File: Python/Data/GoldElectrode/240322/Gold/240322-CVEIS-Activation-5mM_Fe2Fe3-1M_H2SO4-0000RPM-Ag_AgCl_BLF8-Au_RDE_04_PEIS_C15.mpt
EC-Lab ASCII FILE
Nb header lines : 66

Potentio Electrochemical Impedance Spectroscopy

Run on channel : 15 (SN 19485)
User :
Electrode connection : standard
Potential control : Ewe
Ewe ctrl range : min = -2.50 V, max = 2.50 V
Ewe,I filtering : 50 kHz
Safety Limits :
	Do not start on E overload
Channel : Floating
Acquisition started on : 03/22/2024 10:02:07.151
Loaded Setting File :  C:\Data\mathias\GoldElectrode\240321-CVEIS-Activation-5mM_Fe2Fe3-1M_H2SO4-0000RPM-Ag_AgCl_BLF8-Au_RDE.mps
Saved on :
	File : 240322-CVEIS-Activation-5mM_Fe2Fe3-1M_H2SO4-0000RPM-Ag_AgCl_BLF8-Au_RDE_04_PEIS_C15.mpr
	Directory : C:\Data\mathias\GoldElectrode\
	Host : 192.168.0.1
Device : VMP-300 (SN 0826)
Address : USB
EC-Lab for windows v11.52 (software)
Internet server v11.52 (firmware)
Command interpretor v11.52 (firmware)
Electrode material :
Initial state :
Electrolyte :
Comments :
Cable : special
Electrode surface area : 0.001 cm²
Characteristic mass : 0.001 g
Equivalent Weight : 0.000 g/eq.
Density : 0.000 g/cm3
Volume (V) : 0.001 cm³
Record EIS quality indicators
Cycle Definition : Charge/Discharge alternance
Mode                Single sine
E (V)               0.0000
vs.                 Eoc
tE (h:m:s)          0:00:0.0000
record              0
dI                  0.000
unit dI             mA
dt (s)              0.000
fi                  100.000
unit fi             kHz
ff                  100.000
unit ff             Hz
Nd                  10
Points              per decade
spacing             Logarithmic
Va (mV)             5.0
pw                  0.10
Na                  2
corr                0
E range min (V)     -2.500
E range max (V)     2.500
I Range             Auto
Bandwidth           8
nc cycles           0
goto Ns'            0
nr cycles           0
inc. cycle          0

freq/Hz	Re(Z)/Ohm	-Im(Z)/Ohm	|Z|/Ohm	Phase(Z)/deg	time/s	<Ewe>/V	<I>/mA	Cs/µF	Cp/µF	cycle number	I Range	|Ewe|/V	|I|/A	Ns	(Q-Qo)/mA.h	THD Ewe/%	NSD Ewe/%	NSR Ewe/%	|Ewe h2|/V	|Ewe h3|/V	|Ewe h4|/V	|Ewe h5|/V	|Ewe h6|/V	|Ewe h7|/V	THD I/%	NSD I/%	NSR I/%	|I h2|/A	|I h3|/A	|I h4|/A	|I h5|/A	|I h6|/A	|I h7|/A	Re(Y)/Ohm-1	Im(Y)/Ohm-1	|Y|/Ohm-1	Phase(Y)/deg	Re(C)/nF	Im(C)/nF	|C|/nF	Phase(C)/deg	Re(M)	Im(M)	|M|	Phase(M)/deg	Re(Permittivity)	Im(Permittivity)	|Permittivity|	Phase(Permittivity)/deg	Re(Resistivity)/Ohm.cm	Im(Resistivity)/Ohm.cm	|Resistivity|/Ohm.cm	Phase(Resistivity)/deg	Re(Conductivity)/mS/cm	Im(Conductivity)/mS/cm	|Conductivity|/mS/cm	Phase(Conductivity)/deg	Tan(Delta)	Loss Angle(Delta)/deg	dq/mA.h
100004	2.75297	0.159573	2.75759	-3.31739	389.5	0.441884	-0.0467546	9.97341	0.0333969	1	37	0.00483294	0.0017526	0	2.14215e-05	1.30619	0.523316	28.0532	1.89056e-05	1.27646e-05	2.90589e-05	2.90765e-05	3.46615e-05	1.94712e-05	0.707467	0.280038	9.81887	4.61865e-06	6.05228e-06	7.02117e-06	3.38944e-06	4.41217e-06	2.42954e-06	0.362028	0.0209847	0.362636	3.31739	33.3969	576.165	577.132	-86.6826	0.0000000E+000	0.0000000E+000	0.0000000E+000	86.6826	0.0000000E+000	0.0000000E+000	0.0000000E+000	-86.6826	0.0000000E+000	0.0000000E+000	0.0000000E+000	-3.31739	0.0000000E+000	0.0000000E+000	0.0000000E+000	3.31739	17.252	86.6826	2.14215e-05
79433.3	2.74993	0.208056	2.75779	-4.32668	390.315	0.441902	-0.0627417	9.63025	0.0548121	1	37	0.00515521	0.00186933	0	7.91829e-06	1.21744	0.722378	25.9855	2.93763e-05	9.63567e-06	2.31602e-05	1.89841e-05	2.32444e-05	3.54933e-05	0.563362	0.370954	9.42428	5.22167e-06	4.033e-06	2.01988e-06	3.96854e-06	3.60486e-06	3.63407e-06	0.361576	0.0273564	0.36261	4.32668	54.8121	724.465	726.536	-85.6733	0.0000000E+000	0.0000000E+000	0.0000000E+000	85.6733	0.0000000E+000	0.0000000E+000	0.0000000E+000	-85.6733	0.0000000E+000	0.0000000E+000	0.0000000E+000	-4.32668	0.0000000E+000	0.0000000E+000	0.0000000E+000	4.32668	13.2173	85.6733	-1.35032e-05
63093.8	2.75504	0.243403	2.76577	-5.04888	391.13	0.441892	-0.0641933	10.3635	0.0802653	1	37	0.00518388	0.0018743	0	-7.82248e-06	2.0454	0.638583	25.1707	9.56789e-05	1.14708e-05	1.55178e-05	2.16268e-05	2.5094e-05	2.36147e-05	0.673446	0.31246	9.27882	6.72221e-06	6.34317e-06	1.9788e-06	4.10015e-06	5.21407e-06	3.82324e-06	0.36016	0.0318196	0.361563	5.04888	80.2653	908.508	912.047	-84.9511	0.0000000E+000	0.0000000E+000	0.0000000E+000	84.9511	0.0000000E+000	0.0000000E+000	0.0000000E+000	-84.9511	0.0000000E+000	0.0000000E+000	0.0000000E+000	-5.04888	0.0000000E+000	0.0000000E+000	0.0000000E+000	5.04888	11.3188	84.9511	-1.57408e-05
50122.5	2.75445	0.310754	2.77192	-6.43684	391.945	0.441864	-0.0677109	10.2181	0.128423	1	37	0.00518521	0.00187062	0	-2.00946e-05	1.60462	0.893018	25.772	3.08214e-05	2.24811e-05	2.30904e-05	3.41449e-05	4.97677e-05	2.49518e-05	0.661168	0.175381	9.42142	5.94049e-06	5.53631e-06	3.93914e-06	1.73456e-06	5.29955e-06	4.18076e-06	0.358487	0.0404441	0.360761	6.43684	128.423	1138.31	1145.53	-83.5632	0.0000000E+000	0.0000000E+000	0.0000000E+000	83.5632	0.0000000E+000	0.0000000E+000	0.0000000E+000	-83.5632	0.0000000E+000	0.0000000E+000	0.0000000E+000	-6.43684	0.0000000E+000	0.0000000E+000	0.0000000E+000	6.43684	8.86375	83.5632	-1.22721e-05
39814.1	2.7734	0.394151	2.80126	-8.08862	392.76	0.441905	-0.0686228	10.142	0.200788	1	37	0.00516332	0.00184321	0	-3.27452e-05	1.27532	1.00227	25.5737	3.58697e-05	2.3036e-05	1.09684e-05	1.46915e-05	1.38593e-05	2.92741e-05	0.523602	0.361704	9.507	3.0104e-06	4.79099e-06	2.70369e-06	2.63455e-06	5.72674e-06	2.07979e-06	0.35343	0.0502289	0.356982	8.08862	200.788	1412.82	1427.02	-81.9114	0.0000000E+000	0.0000000E+000	0.0000000E+000	81.9114	0.0000000E+000	0.0000000E+000	0.0000000E+000	-81.9114	0.0000000E+000	0.0000000E+000	0.0000000E+000	-8.08862	0.0000000E+000	0.0000000E+000	0.0000000E+000	8.08862	7.03639	81.9114	-1.26506e-05
31621.1	2.77725	0.457373	2.81466	-9.35186	393.575	0.441885	-0.069907	11.0045	0.290578	1	37	0.00513498	0.00182437	0	-5.00179e-05	1.35791	0.525226	25.9914	4.83248e-05	1.75972e-05	3.10275e-05	1.25052e-05	1.26039e-05	1.85272e-05	0.610322	0.258631	9.70789	2.81822e-06	2.26506e-06	5.17004e-06	5.46828e-06	4.53276e-06	5.28587e-06	0.350561	0.0577325	0.355283	9.35186	290.578	1764.44	1788.2	-80.6481	0.0000000E+000	0.0000000E+000	0.0000000E+000	80.6481	0.0000000E+000	0.0000000E+000	0.0000000E+000	-80.6481	0.0000000E+000	0.0000000E+000	0.0000000E+000	-9.35186	0.0000000E+000	0.0000000E+000	0.0000000E+000	9.35186	6.07217	80.6481	-1.72727e-05
25116.9	2.81427	0.555505	2.86858	-11.166	394.39	0.441894	-0.0661103	11.4069	0.427769	1	37	0.00517829	0.00180518	0	-6.57583e-05	1.07375	1.12243	25.7368	3.17794e-05	1.32346e-05	1.39178e-05	1.48867e-05	2.53471e-05	2.22828e-05	0.768692	0.471863	9.6565	5.68761e-06	5.96117e-06	4.67378e-06	4.43471e-06	6.22002e-06	6.11469e-06	0.342006	0.067508	0.348605	11.166	427.769	2167.14	2208.96	-78.834	0.0000000E+000	0.0000000E+000	0.0000000E+000	78.834	0.0000000E+000	0.0000000E+000	0.0000000E+000	-78.834	0.0000000E+000	0.0000000E+000	0.0000000E+000	-11.166	0.0000000E+000	0.0000000E+000	0.0000000E+000	11.166	5.06615	78.834	-1.57404e-05
19948.8	2.8692	0.685998	2.95007	-13.4464	395.205	0.441863	-0.06598	11.63	0.628872	1	37	0.00516001	0.00174911	0	-8.15119e-05	1.63662	0.792307	25.6275	3.457e-05	2.19737e-05	5.28034e-05	1.92462e-05	3.18017e-05	2.38767e-05	0.550734	0.284505	10.0027	4.64998e-06	4.90711e-06	4.29649e-06	3.11189e-06	1.83924e-06	2.55036e-06	0.329683	0.078824	0.338975	13.4464	628.872	2630.27	2704.4	-76.5536	0.0000000E+000	0.0000000E+000	0.0000000E+000	76.5536	0.0000000E+000	0.0000000E+000	0.0000000E+000	-76.5536	0.0000000E+000	0.0000000E+000	0.0000000E+000	-13.4464	0.0000000E+000	0.0000000E+000	0.0000000E+000	13.4464	4.18252	76.5536	-1.57536e-05
15847.7	2.8902	0.823809	3.00531	-15.9094	396.02	0.441881	-0.0658498	12.1907	0.916012	1	37	0.00507027	0.0016871	0	-9.60648e-05	1.52774	0.43659	26.4596	8.04339e-06	6.0523e-06	5.21348e-05	1.30545e-05	3.0634e-05	4.39356e-05	0.582895	0.182739	10.4327	4.4789e-06	3.33438e-06	4.9696e-06	3.30827e-06	3.27029e-06	1.71176e-06	0.319999	0.0912109	0.332744	15.9094	916.012	3213.68	3341.68	-74.0906	0.0000000E+000	0.0000000E+000	0.0000000E+000	74.0906	0.0000000E+000	0.0000000E+000	0.0000000E+000	-74.0906	0.0000000E+000	0.0000000E+000	0.0000000E+000	-15.9094	0.0000000E+000	0.0000000E+000	0.0000000E+000	15.9094	3.50834	74.0906	-1.45529e-05
12590.9	2.94989	1.0056	3.11658	-18.8239	396.835	0.441888	-0.0654589	12.5701	1.30867	1	37	0.00512307	0.00164381	0	-0.000111877	1.465	0.688788	25.7699	1.74991e-05	3.9977e-05	1.23732e-05	3.81594e-05	3.04116e-05	2.78856e-05	0.606676	0.237019	10.9215	2.84974e-06	4.81042e-06	3.41456e-06	3.88786e-06	3.94173e-06	4.0452e-06	0.303703	0.10353	0.320864	18.8239	1308.67	3838.94	4055.87	-71.1761	0.0000000E+000	0.0000000E+000	0.0000000E+000	71.1761	0.0000000E+000	0.0000000E+000	0.0000000E+000	-71.1761	0.0000000E+000	0.0000000E+000	0.0000000E+000	-18.8239	0.0000000E+000	0.0000000E+000	0.0000000E+000	18.8239	2.93347	71.1761	-1.58121e-05
10002.2	3.02607	1.19847	3.25476	-21.606	397.651	0.441878	-0.0674503	13.2768	1.80018	1	37	0.00512988	0.00157612	0	-0.000127717	1.14319	0.71065	25.8575	1.8692e-05	1.9688e-05	1.98415e-05	3.07278e-05	2.81954e-05	1.24419e-05	0.562312	0.385852	11.3472	3.10856e-06	3.56321e-06	1.34755e-06	3.93065e-06	3.21972e-06	4.55698e-06	0.285655	0.113134	0.307243	21.606	1800.18	4545.33	4888.83	-68.394	0.0000000E+000	0.0000000E+000	0.0000000E+000	68.394	0.0000000E+000	0.0000000E+000	0.0000000E+000	-68.394	0.0000000E+000	0.0000000E+000	0.0000000E+000	-21.606	0.0000000E+000	0.0000000E+000	0.0000000E+000	21.606	2.52493	68.394	-1.58402e-05
7944	3.08408	1.47108	3.41697	-25.5008	398.502	0.441737	-0.06464	13.6189	2.52428	1	37	0.0051509	0.00150745	0	-0.000143525	1.3788	0.449637	26.2387	1.84154e-05	2.24522e-05	3.42558e-05	2.38475e-05	2.74108e-05	3.46854e-05	0.687182	0.372128	11.91	3.9179e-06	3.22906e-06	1.82094e-06	4.89416e-06	5.10723e-06	2.64883e-06	0.264146	0.125996	0.292657	25.5008	2524.28	5292.07	5863.28	-64.4992	0.0000000E+000	0.0000000E+000	0.0000000E+000	64.4992	0.0000000E+000	0.0000000E+000	0.0000000E+000	-64.4992	0.0000000E+000	0.0000000E+000	0.0000000E+000	-25.5008	0.0000000E+000	0.0000000E+000	0.0000000E+000	25.5008	2.09647	64.4992	-1.58078e-05
6307.74	3.20718	1.78087	3.66845	-29.0424	399.404	0.441734	-0.0606944	14.1682	3.33899	1	37	0.0050365	0.00137293	0	-0.00016121	1.21771	0.926142	26.2692	1.81182e-05	2.77689e-05	2.01312e-05	3.19358e-05	2.20743e-05	2.42945e-05	0.678226	0.302471	13.0218	3.53644e-06	3.70458e-06	2.78277e-06	4.81973e-06	4.50328e-06	1.09356e-06	0.238319	0.132333	0.272595	29.0424	3338.99	6013.19	6878.03	-60.9576	0.0000000E+000	0.0000000E+000	0.0000000E+000	60.9576	0.0000000E+000	0.0000000E+000	0.0000000E+000	-60.9576	0.0000000E+000	0.0000000E+000	0.0000000E+000	-29.0424	0.0000000E+000	0.0000000E+000	0.0000000E+000	29.0424	1.8009	60.9576	-1.76848e-05
5011.6	3.36708	2.21569	4.0307	-33.3468	400.415	0.441734	-0.0024692	14.3329	4.33105	1	38	0.00506403	0.00125637	0	-0.000164894	1.50934	0.472059	24.9455	4.37957e-05	2.21156e-05	3.42746e-05	9.3395e-06	9.42779e-06	3.99462e-05	0.122446	0.102792	2.38825	6.12417e-07	5.02186e-07	7.73819e-07	5.07856e-07	5.14869e-07	5.05023e-07	0.207249	0.13638	0.248096	33.3468	4331.05	6581.68	7878.86	-56.6532	0.0000000E+000	0.0000000E+000	0.0000000E+000	56.6532	0.0000000E+000	0.0000000E+000	0.0000000E+000	-56.6532	0.0000000E+000	0.0000000E+000	0.0000000E+000	-33.3468	0.0000000E+000	0.0000000E+000	0.0000000E+000	33.3468	1.51965	56.6532	-3.68446e-06
3981.28	3.57244	2.6549	4.45093	-36.6183	401.38	0.44177	-0.00183615	15.0574	5.35727	1	38	0.00503897	0.00113212	0	-0.000163696	1.70101	0.624687	25.5497	2.4853e-05	3.70702e-05	1.68955e-05	6.02283e-05	2.21123e-05	1.91975e-05	0.146479	0.124732	2.60048	9.93803e-07	6.05067e-07	3.02569e-07	7.92169e-07	4.6464e-07	5.31047e-07	0.180328	0.134013	0.224672	36.6183	5357.27	7208.76	8981.46	-53.3817	0.0000000E+000	0.0000000E+000	0.0000000E+000	53.3817	0.0000000E+000	0.0000000E+000	0.0000000E+000	-53.3817	0.0000000E+000	0.0000000E+000	0.0000000E+000	-36.6183	0.0000000E+000	0.0000000E+000	0.0000000E+000	36.6183	1.3456	53.3817	1.19826e-06
3163.04	3.88652	3.22152	5.04809	-39.6552	402.123	0.441723	-0.00358078	15.619	6.36095	1	38	0.00520658	0.0010314	0	-0.000164172	1.46708	0.409309	24.5978	3.45108e-05	3.07035e-05	4.26367e-05	2.90902e-05	2.19037e-05	1.78291e-05	0.158161	0.128619	2.88592	5.55605e-07	9.09817e-07	5.76267e-07	4.10387e-07	5.82048e-07	7.49649e-07	0.152513	0.126417	0.198095	39.6552	6360.95	7674	9967.54	-50.3448	0.0000000E+000	0.0000000E+000	0.0000000E+000	50.3448	0.0000000E+000	0.0000000E+000	0.0000000E+000	-50.3448	0.0000000E+000	0.0000000E+000	0.0000000E+000	-39.6552	0.0000000E+000	0.0000000E+000	0.0000000E+000	39.6552	1.20642	50.3448	-4.76179e-07
2512.41	4.27181	3.83275	5.7392	-41.8991	402.866	0.441776	-0.00357148	16.5279	7.3712	1	38	0.0051357	0.000894846	0	-0.000165413	1.26806	1.08482	25.1868	1.45972e-05	1.92987e-05	3.25031e-05	3.36424e-05	1.97616e-05	2.75611e-05	0.191192	0.123955	3.35533	8.72466e-07	3.606e-07	3.01279e-07	1.08092e-06	6.26856e-07	1.19835e-07	0.129691	0.116361	0.17424	41.8991	7371.2	8215.6	11037.7	-48.1009	0.0000000E+000	0.0000000E+000	0.0000000E+000	48.1009	0.0000000E+000	0.0000000E+000	0.0000000E+000	-48.1009	0.0000000E+000	0.0000000E+000	0.0000000E+000	-41.8991	0.0000000E+000	0.0000000E+000	0.0000000E+000	41.8991	1.11455	48.1009	-1.2408e-06
1995.64	4.84252	4.62861	6.69881	-43.7061	403.609	0.441768	-0.00410958	17.2301	8.2261	1	38	0.00508765	0.000759486	0	-0.000166131	0.919884	1.85002	25.3328	1.34556e-05	7.86504e-06	1.91504e-05	1.62556e-05	3.04105e-05	1.65816e-05	0.268809	0.273147	3.98942	1.24781e-06	1.03505e-06	5.56881e-07	5.41044e-07	6.97276e-07	3.66993e-07	0.107914	0.103147	0.14928	43.7061	8226.1	8606.27	11905.3	-46.2939	0.0000000E+000	0.0000000E+000	0.0000000E+000	46.2939	0.0000000E+000	0.0000000E+000	0.0000000E+000	-46.2939	0.0000000E+000	0.0000000E+000	0.0000000E+000	-43.7061	0.0000000E+000	0.0000000E+000	0.0000000E+000	43.7061	1.04622	46.2939	-7.18323e-07
1584.49	5.49555	5.29422	7.63084	-43.931	404.353	0.441749	-0.00342811	18.9727	9.13243	1	38	0.0049125	0.000643769	0	-0.000167531	1.43019	0.897613	26.5784	1.50995e-05	3.53788e-05	3.2008e-05	2.32982e-05	1.94478e-05	3.15581e-05	0.305141	0.126254	4.58237	9.43329e-07	1.13576e-06	5.31776e-07	5.87112e-07	7.1834e-07	3.76998e-07	0.094377	0.0909194	0.131047	43.931	9132.43	9479.73	13163.1	-46.069	0.0000000E+000	0.0000000E+000	0.0000000E+000	46.069	0.0000000E+000	0.0000000E+000	0.0000000E+000	-46.069	0.0000000E+000	0.0000000E+000	0.0000000E+000	-43.931	0.0000000E+000	0.0000000E+000	0.0000000E+000	43.931	1.03803	46.069	-1.39972e-06
1258.79	6.35621	6.00042	8.74108	-43.3507	405.096	0.441737	-0.00462534	21.071	9.92929	1	38	0.00479544	0.00054861	0	-0.000168718	1.51138	1.88675	27.2982	4.14038e-05	1.64805e-05	1.43323e-05	2.21807e-05	2.92912e-05	2.96432e-05	0.400244	0.18986	5.43265	1.07331e-06	1.40668e-06	6.1157e-07	9.81498e-07	2.76353e-07	3.34765e-07	0.0831895	0.0785329	0.114402	43.3507	9929.29	10518	14464.4	-46.6493	0.0000000E+000	0.0000000E+000	0.0000000E+000	46.6493	0.0000000E+000	0.0000000E+000	0.0000000E+000	-46.6493	0.0000000E+000	0.0000000E+000	0.0000000E+000	-43.3507	0.0000000E+000	0.0000000E+000	0.0000000E+000	43.3507	1.05929	46.6493	-1.18677e-06
999.682	7.40511	6.78784	10.0454	-42.5097	405.839	0.441764	-0.00433116	23.4545	10.7091	1	38	0.0047412	0.000471976	0	-0.000169433	1.13053	0.806371	26.6806	1.58702e-05	1.56539e-05	1.06513e-05	1.87295e-05	2.291e-05	2.80995e-05	0.501401	0.149632	6.31286	9.72859e-07	1.71963e-06	2.98961e-07	8.91144e-07	2.72534e-07	8.05299e-07	0.073383	0.067266	0.0995479	42.5097	10709.1	11683	15848.6	-47.4903	0.0000000E+000	0.0000000E+000	0.0000000E+000	47.4903	0.0000000E+000	0.0000000E+000	0.0000000E+000	-47.4903	0.0000000E+000	0.0000000E+000	0.0000000E+000	-42.5097	0.0000000E+000	0.0000000E+000	0.0000000E+000	42.5097	1.09094	47.4903	-7.14751e-07
794.239	8.70363	7.44574	11.4539	-40.5462	406.582	0.441758	-0.00459183	26.9129	11.3728	1	38	0.00471399	0.000411562	0	-0.000170462	1.44424	1.23622	27.0974	2.96965e-05	1.21489e-05	3.35497e-05	2.29944e-05	2.33168e-05	2.69087e-05	0.563285	0.370599	7.24852	1.65667e-06	7.1146e-07	4.12078e-07	8.13616e-07	5.12654e-07	8.67693e-07	0.0663426	0.0567544	0.0873064	40.5462	11372.8	13294.2	17495	-49.4538	0.0000000E+000	0.0000000E+000	0.0000000E+000	49.4538	0.0000000E+000	0.0000000E+000	0.0000000E+000	-49.4538	0.0000000E+000	0.0000000E+000	0.0000000E+000	-40.5462	0.0000000E+000	0.0000000E+000	0.0000000E+000	40.5462	1.16894	49.4538	-1.02968e-06
631.01	10.0581	7.89047	12.7838	-38.1138	407.324	0.441771	-0.0035808	31.9655	12.1778	1	38	0.00465902	0.000364448	0	-0.000170778	1.66254	0.711221	27.5684	1.87595e-05	4.86586e-05	2.84527e-05	3.1669e-05	9.59409e-06	1.75288e-05	0.764216	0.175605	8.35207	1.41512e-06	1.80442e-06	5.10528e-07	1.08815e-06	4.40892e-07	7.12067e-07	0.0615457	0.0482819	0.0782241	38.1138	12177.8	15523.2	19729.9	-51.8862	0.0000000E+000	0.0000000E+000	0.0000000E+000	51.8862	0.0000000E+000	0.0000000E+000	0.0000000E+000	-51.8862	0.0000000E+000	0.0000000E+000	0.0000000E+000	-38.1138	0.0000000E+000	0.0000000E+000	0.0000000E+000	38.1138	1.27472	51.8862	-3.16094e-07
501.122	11.5799	8.29568	14.2447	-35.6173	408.067	0.441787	-0.00220856	38.2846	12.9844	1	38	0.00464611	0.000326164	0	-0.000170951	1.20086	0.881291	27.3112	1.95898e-05	2.75164e-05	2.00998e-05	9.0754e-06	2.61895e-05	2.41814e-05	0.633073	0.372586	9.03642	1.12061e-06	8.81401e-07	2.06167e-07	5.99948e-07	9.79572e-07	6.94896e-07	0.0570685	0.0408831	0.0702014	35.6173	12984.4	18124.8	22295.8	-54.3827	0.0000000E+000	0.0000000E+000	0.0000000E+000	54.3827	0.0000000E+000	0.0000000E+000	0.0000000E+000	-54.3827	0.0000000E+000	0.0000000E+000	0.0000000E+000	-35.6173	0.0000000E+000	0.0000000E+000	0.0000000E+000	35.6173	1.39589	54.3827	-1.72919e-07
398.089	13.029	8.50628	15.56	-33.1394	408.813	0.441757	-0.00212477	47.0002	14.0463	1	38	0.00461694	0.000296719	0	-0.00017123	1.18731	1.14868	28.0388	7.54918e-06	2.78578e-05	1.81564e-05	2.88036e-05	2.51067e-05	1.18241e-05	0.763637	0.24903	9.81132	1.34148e-06	8.78447e-07	8.95889e-07	6.53659e-07	7.08783e-07	8.49343e-07	0.0538139	0.0351336	0.0642675	33.1394	14046.3	21514.7	25694	-56.8606	0.0000000E+000	0.0000000E+000	0.0000000E+000	56.8606	0.0000000E+000	0.0000000E+000	0.0000000E+000	-56.8606	0.0000000E+000	0.0000000E+000	0.0000000E+000	-33.1394	0.0000000E+000	0.0000000E+000	0.0000000E+000	33.1394	1.53169	56.8606	-2.78908e-07
316.316	14.5114	8.6313	16.8843	-30.744	409.555	0.441779	-0.00253812	58.2939	15.2338	1	38	0.00461295	0.000273209	0	-0.000171874	1.68619	0.713912	28.2541	1.52597e-05	1.53231e-05	1.29716e-05	2.91872e-05	4.36285e-05	5.05781e-05	0.662193	0.397318	11.0439	1.10094e-06	3.24406e-07	3.55392e-07	8.20226e-07	5.87149e-07	7.87997e-07	0.0509029	0.0302768	0.0592266	30.744	15233.8	25611.9	29800	-59.256	0.0000000E+000	0.0000000E+000	0.0000000E+000	59.256	0.0000000E+000	0.0000000E+000	0.0000000E+000	-59.256	0.0000000E+000	0.0000000E+000	0.0000000E+000	-30.744	0.0000000E+000	0.0000000E+000	0.0000000E+000	30.744	1.68125	59.256	-6.43379e-07
251.206	15.9858	8.67046	18.1857	-28.4748	410.298	0.441778	-0.00364039	73.0715	16.61	1	38	0.00461431	0.000253732	0	-0.000172298	1.34998	0.70037	28.2899	1.91678e-05	1.1425e-05	2.29504e-05	1.66846e-05	2.37357e-05	4.30313e-05	0.782129	0.276414	11.8184	1.47423e-06	6.55975e-07	7.11921e-07	4.56577e-07	4.70287e-07	3.60334e-07	0.0483361	0.0262168	0.0549881	28.4748	16610	30624	34838.5	-61.5252	0.0000000E+000	0.0000000E+000	0.0000000E+000	61.5252	0.0000000E+000	0.0000000E+000	0.0000000E+000	-61.5252	0.0000000E+000	0.0000000E+000	0.0000000E+000	-28.4748	0.0000000E+000	0.0000000E+000	0.0000000E+000	28.4748	1.8437	61.5252	-4.24453e-07
199.553	17.4065	8.69882	19.4591	-26.5534	411.043	0.441777	-0.00306319	91.6855	18.3221	1	38	0.00461798	0.000237317	0	-0.000173201	1.63088	1.13135	28.6252	2.01286e-05	4.60752e-05	2.58349e-05	2.39714e-05	1.51027e-05	3.57947e-05	0.98443	0.454808	12.6866	1.63084e-06	5.90716e-07	1.09488e-06	9.37699e-07	4.01125e-07	3.14833e-07	0.0459692	0.0229729	0.0513899	26.5534	18322.1	36663	40986.3	-63.4466	0.0000000E+000	0.0000000E+000	0.0000000E+000	63.4466	0.0000000E+000	0.0000000E+000	0.0000000E+000	-63.4466	0.0000000E+000	0.0000000E+000	0.0000000E+000	-26.5534	0.0000000E+000	0.0000000E+000	0.0000000E+000	26.5534	2.00102	63.4466	-9.03077e-07
158.529	18.7325	8.80407	20.6983	-25.173	411.791	0.44179	-0.00293471	114.032	20.6313	1	38	0.00461932	0.000223175	0	-0.000174056	1.41901	0.846284	27.9066	2.1036e-05	9.61313e-06	2.8325e-05	3.62265e-05	2.1419e-05	2.94878e-05	0.999328	0.185405	13.3473	1.83489e-06	8.33052e-07	4.90872e-07	4.11762e-07	4.50325e-07	4.82303e-07	0.0437248	0.0205502	0.0483132	25.173	20631.3	43897.5	48504	-64.827	0.0000000E+000	0.0000000E+000	0.0000000E+000	64.827	0.0000000E+000	0.0000000E+000	0.0000000E+000	-64.827	0.0000000E+000	0.0000000E+000	0.0000000E+000	-25.173	0.0000000E+000	0.0000000E+000	0.0000000E+000	25.173	2.12771	64.827	-8.5446e-07
125.927	19.9088	8.88728	21.8024	-24.056	412.531	0.441806	-0.00335179	142.211	23.63	1	38	0.00459584	0.000210795	0	-0.000174489	1.53662	0.79501	27.9089	2.7138e-05	1.73211e-05	2.38063e-05	4.82351e-05	2.29678e-05	1.53245e-05	1.03168	0.555261	14.3119	1.49229e-06	8.84401e-07	7.1745e-07	3.42542e-07	7.12657e-07	6.32634e-07	0.0418829	0.0186965	0.0458665	24.056	23629.9	52934.5	57969.3	-65.944	0.0000000E+000	0.0000000E+000	0.0000000E+000	65.944	0.0000000E+000	0.0000000E+000	0.0000000E+000	-65.944	0.0000000E+000	0.0000000E+000	0.0000000E+000	-24.056	0.0000000E+000	0.0000000E+000	0.0000000E+000	24.056	2.24015	65.944	-4.33146e-07
99.9682	21.2258	9.11336	23.0996	-23.2364	413.516	0.441789	0.000801034	174.695	27.1913	1	39	0.00462528	0.000200232	0	-0.000174672	1.74713	0.607923	28.1796	2.53806e-05	2.76178e-05	3.1631e-05	2.73715e-05	3.25213e-05	4.69878e-05	0.583934	0.15765	6.08834	9.745e-07	2.83541e-07	2.93305e-07	2.27901e-07	3.19999e-07	2.85916e-07	0.0397793	0.0170793	0.0432909	23.2364	27191.3	63330.9	68921.5	-66.7636	0.0000000E+000	0.0000000E+000	0.0000000E+000	66.7636	0.0000000E+000	0.0000000E+000	0.0000000E+000	-66.7636	0.0000000E+000	0.0000000E+000	0.0000000E+000	-23.2364	0.0000000E+000	0.0000000E+000	0.0000000E+000	23.2364	2.32909	66.7636	-1.83374e-07