File: Python/Data/GoldElectrode/240322/Gold/240322-CVEIS-PostActivation-5mM_Fe2Fe3-1M_H2SO4-0225RPM-Ag_AgCl_BLF8-Au_RDE_01_CV_C15.mpt
EC-Lab ASCII FILE
Nb header lines : 60

Cyclic Voltammetry

Run on channel : 15 (SN 19485)
User :
Electrode connection : standard
Potential control : Ewe
Ewe ctrl range : min = -1.00 V, max = 1.00 V
Ewe,I filtering : <None>
Safety Limits :
	Do not start on E overload
Channel : Floating
Acquisition started on : 03/22/2024 11:37:10.055
Loaded Setting File :  C:\Data\mathias\GoldElectrode\240320-CVEIS_PostActivation-Fe2Fe3_5mM-HCl1M-0000RPM-Ag_AgCl_BLF8-Au_RDE.mps
Saved on :
	File : 240322-CVEIS-PostActivation-5mM_Fe2Fe3-1M_H2SO4-0225RPM-Ag_AgCl_BLF8-Au_RDE_01_CV_C15.mpr
	Directory : C:\Data\mathias\GoldElectrode\
	Host : 192.168.0.1
Device : VMP-300 (SN 0826)
Address : USB
EC-Lab for windows v11.52 (software)
Internet server v11.52 (firmware)
Command interpretor v11.52 (firmware)
Electrode material :
Initial state :
Electrolyte :
Comments :
Cable : special
Electrode surface area : 0.001 cm²
Characteristic mass : 0.001 g
Equivalent Weight : 0.000 g/eq.
Density : 0.000 g/cm3
Volume (V) : 0.001 cm³
Record EIS quality indicators
Cycle Definition : Charge/Discharge alternance
Ei (V)              0.000
vs.                 Eoc
dE/dt               20.000
dE/dt unit          mV/s
E1 (V)              0.700
vs.                 Ref
Step percent        50
N                   10
E range min (V)     -1.000
E range max (V)     1.000
I Range             Auto
I Range min         Unset
I Range max         Unset
I Range init        Unset
Bandwidth           8
E2 (V)              0.000
vs.                 Ref
nc cycles           1
Reverse Scan        1
Ef (V)              0.000
vs.                 Eoc

mode	ox/red	error	control changes	counter inc.	time/s	control/V	Ewe/V	<I>/mA	cycle number	(Q-Qo)/C	I Range	step time/s	P/W
2	0	0	0	0	0.000000000000000E+000	0.441167	0.440496	-0.000787906	1	0.0000000E+000	43	0.000000000000000E+000	-3.4707e-07
2	1	0	1	0	0.2987	0.447139	0.446823	0.0450972	1	7.98077e-06	41	0.2549	2.01505e-05
2	1	0	1	0	0.5486	0.452137	0.451809	0.065374	1	2.18988e-05	41	0.5048	2.95366e-05
2	1	0	1	0	0.7984	0.457135	0.4567	0.0817673	1	4.03588e-05	41	0.7546	3.73432e-05
2	1	0	1	0	1.0483	0.462132	0.461786	0.0957857	1	6.2605e-05	41	1.0045	4.42326e-05
2	1	0	1	0	1.2982	0.46713	0.466778	0.107936	1	8.81047e-05	41	1.2544	5.03819e-05
2	1	0	1	0	1.5781	0.472727	0.472251	0.119013	1	0.000119976	40	1.5343	5.62038e-05
2	1	0	1	0	1.828	0.477725	0.47746	0.128041	1	0.00015105	40	1.7842	6.11345e-05
2	1	0	1	0	2.0778	0.482722	0.482337	0.135993	1	0.000184242	40	2.034	6.55945e-05
2	1	0	1	0	2.3277	0.48772	0.487474	0.142868	1	0.000219297	40	2.2839	6.96444e-05
2	1	0	1	0	2.5776	0.492718	0.492395	0.148751	1	0.000255941	40	2.5338	7.32446e-05
2	1	0	1	0	2.8275	0.497715	0.497321	0.153645	1	0.000293965	40	2.7837	7.64109e-05
2	1	0	1	0	3.0774	0.502713	0.502246	0.157963	1	0.000333168	40	3.0336	7.93362e-05
2	1	0	1	0	3.3272	0.50771	0.50733	0.161788	1	0.00037336	40	3.2834	8.20799e-05
2	1	0	1	0	3.5771	0.512708	0.512562	0.164815	1	0.000414418	40	3.5333	8.4478e-05
2	1	0	1	0	3.827	0.517706	0.517328	0.167582	1	0.000456204	40	3.7832	8.66948e-05
2	1	0	1	0	4.0769	0.522704	0.522419	0.169744	1	0.000498605	40	4.0331	8.86774e-05
2	1	0	1	0	4.3268	0.527701	0.527433	0.171695	1	0.00054153	40	4.283	9.05578e-05
2	1	0	1	0	4.5767	0.532699	0.532411	0.173294	1	0.000584918	40	4.5329	9.22639e-05
2	1	0	1	0	4.8265	0.537696	0.537225	0.174741	1	0.000628685	40	4.7827	9.38752e-05
2	1	0	1	0	5.0764	0.542694	0.54228	0.175937	1	0.000672808	40	5.0326	9.54073e-05
2	1	0	1	0	5.3263	0.547692	0.547391	0.177171	1	0.000717218	40	5.2825	9.69817e-05
2	1	0	1	0	5.5762	0.552689	0.552615	0.178068	1	0.000761891	40	5.5324	9.84034e-05
2	1	0	1	0	5.8261	0.557687	0.557403	0.178784	1	0.000806783	40	5.7823	9.9655e-05
2	1	0	1	0	6.076	0.562686	0.562491	0.179508	1	0.00085186	40	6.0322	0.000100972
2	1	0	1	0	6.3258	0.567682	0.567288	0.179801	1	0.00089707	40	6.282	0.000101999
2	1	0	1	0	6.5757	0.57268	0.572463	0.180591	1	0.000942442	40	6.5319	0.000103382
2	1	0	1	0	6.8256	0.577678	0.577495	0.181089	1	0.00098795	40	6.7818	0.000104578
2	1	0	1	0	7.0755	0.582675	0.582317	0.181391	1	0.00103357	40	7.0317	0.000105627
2	1	0	1	0	7.3254	0.587673	0.587232	0.182007	1	0.00107932	40	7.2816	0.00010688
2	1	0	1	0	7.5752	0.59267	0.592298	0.182564	1	0.00112517	40	7.5314	0.000108132
2	1	0	1	0	7.8251	0.597668	0.597418	0.182795	1	0.00117115	40	7.7813	0.000109205
2	1	0	1	0	8.075	0.602666	0.602208	0.182992	1	0.00121722	40	8.0312	0.000110199
2	1	0	1	0	8.3249	0.607663	0.607346	0.183489	1	0.00126336	40	8.2811	0.000111441
2	1	0	1	0	8.5748	0.612661	0.612347	0.183826	1	0.00130957	40	8.531	0.000112565
2	1	0	1	0	8.8246	0.617659	0.617443	0.183768	1	0.0013558	40	8.7808	0.000113466
2	1	0	1	0	9.0745	0.622656	0.622303	0.184282	1	0.0014021	40	9.0307	0.000114679
2	1	0	1	0	9.3244	0.627654	0.627318	0.184249	1	0.00144842	40	9.2806	0.000115583
2	1	0	1	0	9.5743	0.632652	0.632312	0.184383	1	0.00149477	40	9.5305	0.000116588
2	1	0	1	0	9.8242	0.637649	0.637279	0.18459	1	0.00154116	40	9.7804	0.000117635
2	1	0	1	0	10.074	0.642645	0.642395	0.184731	1	0.00158758	40	10.0302	0.00011867
2	1	0	1	0	10.3239	0.647644	0.64725	0.184989	1	0.00163408	40	10.2801	0.000119734
2	1	0	1	0	10.5738	0.652642	0.652326	0.185238	1	0.00168064	40	10.53	0.000120836
2	1	0	1	0	10.8237	0.65764	0.657491	0.185623	1	0.00172727	40	10.7799	0.000122045
2	1	0	1	0	11.0736	0.662637	0.662171	0.185691	1	0.00177394	40	11.0298	0.000122959
2	1	0	1	0	11.3235	0.667635	0.667246	0.185866	1	0.00182065	40	11.2797	0.000124018
2	1	0	1	0	11.5733	0.672633	0.672209	0.185912	1	0.00186736	40	11.5295	0.000124972
2	1	0	1	0	11.8232	0.67763	0.677209	0.186132	1	0.00191409	40	11.7794	0.00012605
2	1	0	1	0	12.0731	0.682628	0.682292	0.186177	1	0.00196081	40	12.0293	0.000127027
2	1	0	1	0	12.323	0.687625	0.687168	0.18624	1	0.00200755	40	12.2792	0.000127978
2	1	0	1	0	12.5729	0.692623	0.692362	0.186215	1	0.00205431	40	12.5291	0.000128928
2	1	0	1	0	12.8228	0.697621	0.697262	0.186413	1	0.0021011	40	12.779	0.000129979
2	1	0	1	0	13.0308	0.69822	0.697855	0.187352	1	0.00214001	40	12.987	0.000130745
2	1	0	1	0	13.2806	0.693223	0.69299	0.187011	1	0.00218655	40	13.2368	0.000129597
2	1	0	1	0	13.5305	0.688225	0.687946	0.187011	1	0.0022331	40	13.4867	0.000128654
2	1	0	1	0	13.7804	0.683228	0.682853	0.186984	1	0.00227962	40	13.7366	0.000127683
2	1	0	1	0	14.0303	0.67823	0.677902	0.186713	1	0.0023261	40	13.9865	0.000126573
2	1	0	1	0	14.2802	0.673232	0.672858	0.186576	1	0.00237253	40	14.2364	0.000125539
2	1	0	1	0	14.53	0.668236	0.667787	0.18641	1	0.00241888	40	14.4862	0.000124482
2	1	0	1	0	14.7799	0.663237	0.663051	0.186235	1	0.00246519	40	14.7361	0.000123483
2	1	0	1	0	15.0298	0.658239	0.657845	0.186227	1	0.00251146	40	14.986	0.000122509
2	1	0	1	0	15.2797	0.653242	0.652968	0.185877	1	0.00255768	40	15.2359	0.000121371
2	1	0	1	0	15.5296	0.648244	0.648009	0.185836	1	0.00260384	40	15.4858	0.000120424
2	1	0	1	0	15.7795	0.643246	0.642842	0.185471	1	0.00264994	40	15.7357	0.000119229
2	1	0	1	0	16.0293	0.638249	0.637952	0.185513	1	0.00269596	40	15.9855	0.000118349
2	1	0	1	0	16.2792	0.633251	0.632909	0.185459	1	0.00274196	40	16.2354	0.000117378
2	1	0	1	0	16.5291	0.628254	0.628054	0.185152	1	0.00278789	40	16.4853	0.000116286
2	1	0	1	0	16.779	0.623256	0.622911	0.184881	1	0.00283376	40	16.7352	0.000115165
2	1	0	1	0	17.0289	0.618258	0.61794	0.184724	1	0.00287956	40	16.9851	0.000114148
2	1	0	1	0	17.2788	0.61326	0.61275	0.184464	1	0.00292527	40	17.235	0.00011303
2	1	0	1	0	17.5286	0.608263	0.607971	0.183825	1	0.00297087	40	17.4848	0.00011176
2	1	0	1	0	17.7785	0.603265	0.603083	0.183415	1	0.00301636	40	17.7347	0.000110614
2	1	0	1	0	18.0284	0.598268	0.598152	0.182952	1	0.00306173	40	17.9846	0.000109433
2	1	0	1	0	18.2783	0.59327	0.593001	0.182373	1	0.00310697	40	18.2345	0.000108148
2	1	0	1	0	18.5282	0.588273	0.587978	0.181706	1	0.00315208	40	18.4844	0.000106839
2	1	0	1	0	18.778	0.583275	0.582911	0.181041	1	0.00319703	40	18.7342	0.00010553
2	1	0	1	0	19.0279	0.578277	0.578015	0.180241	1	0.00324182	40	18.9841	0.000104182
2	1	0	1	0	19.2778	0.57328	0.573028	0.179335	1	0.00328642	40	19.234	0.000102764
2	1	0	1	0	19.5277	0.568282	0.568159	0.178595	1	0.00333078	40	19.4839	0.00010147
2	1	0	1	0	19.7776	0.563284	0.562783	0.177435	1	0.0033749	40	19.7338	9.98572e-05
2	1	0	1	0	20.0274	0.558288	0.557961	0.176362	1	0.00341873	40	19.9836	9.84029e-05
2	1	0	1	0	20.2773	0.553289	0.552812	0.174896	1	0.00346223	40	20.2335	9.66845e-05
2	1	0	1	0	20.5272	0.548291	0.547903	0.173123	1	0.00350533	40	20.4834	9.48543e-05
2	1	0	1	0	20.7771	0.543294	0.542896	0.171107	1	0.00354799	40	20.7333	9.28933e-05
2	1	0	1	0	21.027	0.538296	0.538013	0.168971	1	0.00359015	40	20.9832	9.09083e-05
2	1	0	1	0	21.2769	0.533298	0.533023	0.166348	1	0.00363171	40	21.2331	8.86673e-05
2	1	0	1	0	21.5267	0.528301	0.528096	0.163456	1	0.00367257	40	21.4829	8.63204e-05
2	1	0	1	0	21.7766	0.523303	0.52317	0.159709	1	0.00371265	40	21.7328	8.35549e-05
2	1	0	1	0	22.0265	0.518306	0.51789	0.155808	1	0.00375181	40	21.9827	8.06914e-05
2	1	0	1	0	22.2764	0.513308	0.513018	0.151317	1	0.00378991	40	22.2326	7.76281e-05
2	1	0	1	0	22.5263	0.50831	0.508081	0.145828	1	0.00382678	40	22.4825	7.40927e-05
2	1	0	1	0	22.7762	0.503312	0.503043	0.13954	1	0.00386221	40	22.7324	7.01946e-05
2	1	0	1	0	23.026	0.498315	0.497842	0.132412	1	0.00389596	40	22.9822	6.59204e-05
2	1	0	1	0	23.2759	0.493317	0.493107	0.124178	1	0.00392779	40	23.2321	6.12329e-05
2	1	0	1	0	23.5258	0.48832	0.487862	0.11473	1	0.00395741	40	23.482	5.59725e-05
2	1	0	1	0	23.7757	0.483322	0.482912	0.103996	1	0.00398453	40	23.7319	5.02209e-05
2	1	0	1	0	24.0256	0.478325	0.477936	0.0920068	1	0.00400883	40	23.9818	4.39733e-05
2	1	0	1	0	24.2754	0.473327	0.473072	0.0785362	1	0.00402996	40	24.2316	3.71533e-05
2	1	0	1	0	24.5253	0.468329	0.468054	0.063873	1	0.0040476	40	24.4815	2.9896e-05
2	1	0	1	0	24.7752	0.463332	0.463128	0.0477707	1	0.00406139	40	24.7314	2.21239e-05
2	1	0	1	0	25.0551	0.457734	0.457432	0.027748	1	0.00407195	41	25.0113	1.26928e-05
2	1	0	1	0	25.305	0.452736	0.4521	0.00917835	1	0.00407656	41	25.2612	4.14953e-06
2	0	0	1	0	25.5548	0.447739	0.447317	-0.0101466	1	0.00407644	41	0.0999	-4.53874e-06
2	0	0	1	0	25.8047	0.442741	0.442405	-0.0298342	1	0.00407143	41	0.3498	-1.31988e-05
2	0	0	1	0	26.0546	0.437744	0.437696	-0.0496235	1	0.00406147	41	0.5997	-2.172e-05
2	0	0	1	0	26.3045	0.432746	0.432512	-0.0692053	1	0.00404657	41	0.8496	-2.99321e-05
2	0	0	1	0	26.5544	0.427748	0.427518	-0.0880447	1	0.00402688	41	1.0995	-3.76407e-05
2	0	0	1	0	26.8042	0.422751	0.422639	-0.10609	1	0.00400258	41	1.3493	-4.48376e-05
2	0	0	1	0	27.0841	0.417154	0.417	-0.123948	1	0.00397031	40	1.6292	-5.16865e-05
2	0	0	1	0	27.334	0.412156	0.411882	-0.138907	1	0.00393728	40	1.8791	-5.72132e-05
2	0	0	1	0	27.5839	0.407158	0.40679	-0.152415	1	0.00390068	40	2.129	-6.20009e-05
2	0	0	1	0	27.8338	0.402161	0.401868	-0.164349	1	0.00386091	40	2.3789	-6.60464e-05
2	0	0	1	0	28.0836	0.397163	0.396878	-0.174513	1	0.00381837	40	2.6287	-6.92606e-05
2	0	0	1	0	28.3335	0.392165	0.391751	-0.183657	1	0.00377341	40	2.8786	-7.19478e-05
2	0	0	1	0	28.5834	0.387168	0.386776	-0.191484	1	0.00372635	40	3.1285	-7.40614e-05
2	0	0	1	0	28.8333	0.38217	0.381772	-0.197901	1	0.00367751	40	3.3784	-7.55531e-05
2	0	0	1	0	29.0832	0.377172	0.376841	-0.203641	1	0.00362714	40	3.6283	-7.67405e-05
2	0	0	1	0	29.333	0.372175	0.371887	-0.208507	1	0.00357548	40	3.8781	-7.75408e-05
2	0	0	1	0	29.5829	0.367177	0.366975	-0.212596	1	0.00352267	40	4.128	-7.80172e-05
2	0	0	1	0	29.8328	0.36218	0.361934	-0.216069	1	0.00346889	40	4.3779	-7.8203e-05
2	0	0	1	0	30.0827	0.357182	0.356714	-0.219267	1	0.00341427	40	4.6278	-7.82154e-05
2	0	0	1	0	30.3326	0.352184	0.351731	-0.2217	1	0.00335898	40	4.8777	-7.79789e-05
2	0	0	1	0	30.5825	0.347187	0.347043	-0.224191	1	0.0033031	40	5.1276	-7.78039e-05
2	0	0	1	0	30.8323	0.342189	0.341818	-0.226303	1	0.00324671	40	5.3774	-7.73544e-05
2	0	0	1	0	31.0822	0.337191	0.337015	-0.228155	1	0.00318979	40	5.6273	-7.68917e-05
2	0	0	1	0	31.3321	0.332194	0.331881	-0.229772	1	0.00313244	40	5.8772	-7.6257e-05
2	0	0	1	0	31.582	0.327196	0.326791	-0.231194	1	0.00307468	40	6.1271	-7.55521e-05
2	0	0	1	0	31.8319	0.322198	0.321753	-0.232682	1	0.00301657	40	6.377	-7.48661e-05
2	0	0	1	0	32.0818	0.3172	0.316988	-0.233804	1	0.00295815	40	6.6269	-7.41129e-05
2	0	0	1	0	32.3316	0.312203	0.311915	-0.235176	1	0.00289947	40	6.8767	-7.33551e-05
2	0	0	1	0	32.5815	0.307206	0.306727	-0.23608	1	0.00284048	40	7.1266	-7.24121e-05
2	0	0	1	0	32.8314	0.302208	0.301965	-0.23708	1	0.00278127	40	7.3765	-7.15897e-05
2	0	0	1	0	33.0813	0.29721	0.297181	-0.237431	1	0.00272188	40	7.6264	-7.05602e-05
2	0	0	1	0	33.3312	0.292213	0.291941	-0.238045	1	0.00266235	40	7.8763	-6.94951e-05
2	0	0	1	0	33.581	0.287215	0.286939	-0.238697	1	0.0026027	40	8.1261	-6.84913e-05
2	0	0	1	0	33.8309	0.282217	0.281913	-0.239417	1	0.00254286	40	8.376	-6.74949e-05
2	0	0	1	0	34.0808	0.27722	0.276978	-0.240139	1	0.00248283	40	8.6259	-6.65132e-05
2	0	0	1	0	34.3307	0.272222	0.27188	-0.240718	1	0.00242267	40	8.8758	-6.54465e-05
2	0	0	1	0	34.5806	0.267224	0.266703	-0.24111	1	0.00236239	40	9.1257	-6.43048e-05
2	0	0	1	0	34.8304	0.262227	0.262012	-0.24146	1	0.00230202	40	9.3755	-6.32654e-05
2	0	0	1	0	35.0803	0.257229	0.256926	-0.241961	1	0.00224154	40	9.6254	-6.21663e-05
2	0	0	1	0	35.3302	0.252232	0.25186	-0.24214	1	0.00218098	40	9.8753	-6.09853e-05
2	0	0	1	0	35.5801	0.247234	0.247163	-0.242378	1	0.00212038	40	10.1252	-5.9907e-05
2	0	0	1	0	35.83	0.242236	0.241988	-0.242542	1	0.00205974	40	10.3751	-5.86923e-05
2	0	0	1	0	36.0799	0.237239	0.236843	-0.242609	1	0.00199908	40	10.625	-5.74604e-05
2	0	0	1	0	36.3297	0.232241	0.231874	-0.242676	1	0.00193838	40	10.8748	-5.62703e-05
2	0	0	1	0	36.5796	0.227243	0.226909	-0.242819	1	0.00187761	40	11.1247	-5.5098e-05
2	0	0	1	0	36.8295	0.222246	0.221968	-0.243372	1	0.00181677	40	11.3746	-5.40209e-05
2	0	0	1	0	37.0794	0.217248	0.217085	-0.243759	1	0.00175584	40	11.6245	-5.29165e-05
2	0	0	1	0	37.3293	0.212251	0.21198	-0.243983	1	0.00169485	40	11.8744	-5.17195e-05
2	0	0	1	0	37.5792	0.207251	0.20701	-0.244348	1	0.00163378	40	12.1243	-5.05823e-05
2	0	0	1	0	37.829	0.202255	0.201954	-0.244556	1	0.00157269	40	12.3741	-4.93892e-05
2	0	0	1	0	38.0789	0.197258	0.196995	-0.244657	1	0.00151152	40	12.624	-4.81961e-05
2	0	0	1	0	38.3288	0.19226	0.19202	-0.244417	1	0.00145036	40	12.8739	-4.6933e-05
2	0	0	1	0	38.5787	0.187262	0.186886	-0.244318	1	0.00138922	40	13.1238	-4.56597e-05
2	0	0	1	0	38.8286	0.182265	0.181867	-0.244257	1	0.00132813	40	13.3737	-4.44222e-05
2	0	0	1	0	39.0784	0.177267	0.177076	-0.24432	1	0.00126706	40	13.6235	-4.32632e-05
2	0	0	1	0	39.3283	0.172269	0.17194	-0.244218	1	0.00120597	40	13.8734	-4.19909e-05
2	0	0	1	0	39.5782	0.167272	0.166991	-0.244465	1	0.00114485	40	14.1233	-4.08234e-05
2	0	0	1	0	39.8281	0.162274	0.16194	-0.244421	1	0.00108368	40	14.3732	-3.95816e-05
2	0	0	1	0	40.078	0.157277	0.157195	-0.244757	1	0.00102247	40	14.6231	-3.84747e-05
2	0	0	1	0	40.3278	0.152279	0.151801	-0.244881	1	0.000961246	40	14.8729	-3.71733e-05
2	0	0	1	0	40.5777	0.147281	0.147007	-0.245202	1	0.000899948	40	15.1228	-3.60464e-05
2	0	0	1	0	40.8276	0.142284	0.142082	-0.245325	1	0.000838616	40	15.3727	-3.48563e-05
2	0	0	1	0	41.0775	0.137286	0.137023	-0.245478	1	0.000777242	40	15.6226	-3.36361e-05
2	0	0	1	0	41.3274	0.132288	0.131827	-0.245357	1	0.000715851	40	15.8725	-3.23448e-05
2	0	0	1	0	41.5772	0.127293	0.127086	-0.245391	1	0.000654491	40	16.1223	-3.11857e-05
2	0	0	1	0	41.8271	0.122293	0.121796	-0.245314	1	0.000593123	40	16.3722	-2.98782e-05
2	0	0	1	0	42.077	0.117295	0.11679	-0.245194	1	0.000531782	40	16.6221	-2.86363e-05
2	0	0	1	0	42.3269	0.112298	0.111978	-0.245163	1	0.00047046	40	16.872	-2.7453e-05
2	0	0	1	0	42.5768	0.1073	0.107172	-0.245186	1	0.000409136	40	17.1219	-2.62771e-05
2	0	0	1	0	42.8267	0.102303	0.10199	-0.245298	1	0.000347804	40	17.3718	-2.50179e-05
2	0	0	1	0	43.0765	0.0973049	0.0970517	-0.245322	1	0.000286478	40	17.6216	-2.38089e-05
2	0	0	1	0	43.3264	0.0923073	0.092089	-0.24542	1	0.000225092	40	17.8715	-2.26005e-05
2	0	0	1	0	43.5763	0.0873097	0.0871926	-0.245593	1	0.000163669	40	18.1214	-2.14139e-05
2	0	0	1	0	43.8262	0.082312	0.0819958	-0.245757	1	0.000102218	40	18.3713	-2.0151e-05
2	0	0	1	0	44.0761	0.0773144	0.0770173	-0.246028	1	4.07248e-05	40	18.6212	-1.89484e-05
2	0	0	1	0	44.326	0.0723163	0.0719885	-0.246005	1	-2.07995e-05	40	18.8711	-1.77095e-05
2	0	0	1	0	44.5758	0.0673191	0.0670728	-0.246094	1	-8.2313e-05	40	19.1209	-1.65062e-05
2	0	0	1	0	44.8257	0.0623215	0.0620811	-0.245937	1	-0.000143838	40	19.3708	-1.5268e-05
2	0	0	1	0	45.0756	0.0573238	0.0571591	-0.245632	1	-0.000205319	40	19.6207	-1.40401e-05
2	0	0	1	0	45.3255	0.0523262	0.0519955	-0.245494	1	-0.00026674	40	19.8706	-1.27646e-05
2	0	0	1	0	45.5754	0.0473286	0.0471398	-0.245511	1	-0.000328133	40	20.1205	-1.15733e-05
2	0	0	1	0	45.8252	0.0423309	0.0419679	-0.245525	1	-0.0003895	40	20.3703	-1.03042e-05
2	0	0	1	0	46.0751	0.0373333	0.0371248	-0.245458	1	-0.000450898	40	20.6202	-9.11258e-06
2	0	0	1	0	46.325	0.0323357	0.0321703	-0.245613	1	-0.000512337	40	20.8701	-7.90145e-06
2	0	0	1	0	46.5749	0.027338	0.0268345	-0.24561	1	-0.000573815	40	21.12	-6.59083e-06
2	0	0	1	0	46.8248	0.0223404	0.022164	-0.245975	1	-0.000635333	40	21.3699	-5.4518e-06
2	0	0	1	0	47.0746	0.0173441	0.0168928	-0.246216	1	-0.000696855	40	21.6197	-4.15929e-06
2	0	0	1	0	47.3245	0.0123451	0.012042	-0.246181	1	-0.000758423	40	21.8696	-2.96451e-06
2	0	0	1	0	47.5744	0.0073475	0.00696467	-0.245986	1	-0.000819982	40	22.1195	-1.71321e-06
2	0	0	1	0	47.8243	0.00234987	0.0020427	-0.246039	1	-0.000881522	40	22.3694	-5.02586e-07
2	0	0	1	1	48.0044	0.00125039	0.00100942	-0.245816	1	-0.000925814	40	22.5495	-2.48133e-07
2	0	0	1	1	48.2543	0.00624803	0.00602841	-0.245558	1	-0.000987124	40	22.7994	-1.48033e-06
2	0	0	1	1	48.5042	0.0112457	0.0110547	-0.245344	1	-0.00104841	40	23.0493	-2.71221e-06
2	0	0	1	1	48.7541	0.0162433	0.0160083	-0.245329	1	-0.00110969	40	23.2992	-3.92729e-06
2	0	0	1	1	49.004	0.0212414	0.0209444	-0.245273	1	-0.00117098	40	23.5491	-5.13711e-06
2	0	0	1	1	49.2538	0.0262386	0.0257624	-0.245433	1	-0.00123226	40	23.7989	-6.32293e-06
2	0	0	1	1	49.5037	0.0312362	0.0309914	-0.245586	1	-0.00129357	40	24.0488	-7.61107e-06
2	0	0	1	1	49.7536	0.0362338	0.0361593	-0.245628	1	-0.00135488	40	24.2987	-8.88174e-06
2	0	0	1	1	50.0035	0.0412315	0.0408241	-0.245487	1	-0.00141617	40	24.5486	-1.00218e-05
2	0	0	1	1	50.2534	0.0462291	0.0458395	-0.24533	1	-0.00147744	40	24.7985	-1.12458e-05
2	0	0	1	1	50.5032	0.0512267	0.0508557	-0.245074	1	-0.00153864	40	25.0483	-1.24634e-05
2	0	0	1	1	50.7531	0.0562244	0.0559478	-0.244966	1	-0.00159983	40	25.2982	-1.37053e-05
2	0	0	1	1	51.003	0.061222	0.0609307	-0.245066	1	-0.00166101	40	25.5481	-1.4932e-05
2	0	0	1	1	51.2529	0.0662196	0.0659207	-0.245063	1	-0.00172218	40	25.798	-1.61547e-05
2	0	0	1	1	51.5028	0.0712173	0.0710042	-0.245059	1	-0.00178335	40	26.0479	-1.74002e-05
2	0	0	1	1	51.7526	0.0762131	0.0758835	-0.245077	1	-0.00184451	40	26.2977	-1.85973e-05
2	0	0	1	1	52.0025	0.0812125	0.0809718	-0.245081	1	-0.00190569	40	26.5476	-1.98446e-05
2	0	0	1	1	52.2524	0.0862102	0.0860153	-0.245006	1	-0.00196689	40	26.7975	-2.10743e-05
2	0	0	1	1	52.5023	0.0912078	0.0909771	-0.245039	1	-0.0020281	40	27.0474	-2.22929e-05
2	0	0	1	1	52.7522	0.0962054	0.0959057	-0.244906	1	-0.00208931	40	27.2973	-2.34879e-05
2	0	0	1	1	53.0021	0.101203	0.100788	-0.244754	1	-0.00215047	40	27.5472	-2.46682e-05
2	0	0	1	1	53.2519	0.106201	0.105994	-0.244587	1	-0.00221154	40	27.797	-2.59247e-05
2	0	0	1	1	53.5018	0.111198	0.111024	-0.24431	1	-0.0022726	40	28.0469	-2.71242e-05
2	0	0	1	1	53.7517	0.116196	0.115869	-0.244351	1	-0.00233363	40	28.2968	-2.83127e-05
2	0	0	1	1	54.0016	0.121194	0.120703	-0.244199	1	-0.00239465	40	28.5467	-2.94757e-05
2	0	0	1	1	54.2515	0.126191	0.126018	-0.244453	1	-0.00245567	40	28.7966	-3.08055e-05
2	0	0	1	1	54.5014	0.131189	0.130746	-0.244457	1	-0.00251671	40	29.0465	-3.19618e-05
2	0	0	1	1	54.7512	0.136187	0.135903	-0.244663	1	-0.00257774	40	29.2963	-3.32504e-05
2	0	0	1	1	55.0011	0.141184	0.140874	-0.24454	1	-0.00263882	40	29.5462	-3.44494e-05
2	0	0	1	1	55.251	0.146182	0.14615	-0.244622	1	-0.0026999	40	29.7961	-3.57515e-05
2	0	0	1	1	55.5009	0.151179	0.150784	-0.244518	1	-0.002761	40	30.046	-3.68693e-05
2	0	0	1	1	55.7508	0.156177	0.15588	-0.24433	1	-0.00282207	40	30.2959	-3.80862e-05
2	0	0	1	1	56.0006	0.161175	0.160851	-0.244254	1	-0.00288305	40	30.5457	-3.92886e-05
2	0	0	1	1	56.2505	0.166172	0.165969	-0.243823	1	-0.00294398	40	30.7956	-4.04672e-05
2	0	0	1	1	56.5004	0.17117	0.170883	-0.243555	1	-0.00300484	40	31.0455	-4.16194e-05
2	0	0	1	1	56.7503	0.176168	0.17592	-0.243685	1	-0.00306565	40	31.2954	-4.2869e-05
2	0	0	1	1	57.0002	0.181165	0.180828	-0.243459	1	-0.00312643	40	31.5453	-4.40242e-05
2	0	0	1	1	57.25	0.186162	0.18582	-0.243395	1	-0.00318719	40	31.7951	-4.52276e-05
2	0	0	1	1	57.4999	0.191161	0.190809	-0.243563	1	-0.00324799	40	32.045	-4.6474e-05
2	0	0	1	1	57.7498	0.196158	0.195818	-0.24357	1	-0.00330879	40	32.2949	-4.76955e-05
2	0	0	1	1	57.9997	0.201156	0.200827	-0.243446	1	-0.00336958	40	32.5448	-4.88904e-05
2	0	0	1	1	58.2496	0.206153	0.206023	-0.243465	1	-0.00343036	40	32.7947	-5.01595e-05
2	0	0	1	1	58.4995	0.211151	0.21073	-0.24321	1	-0.00349112	40	33.0446	-5.12517e-05
2	0	0	1	1	58.7493	0.216149	0.215822	-0.242904	1	-0.0035518	40	33.2944	-5.24241e-05
2	0	0	1	1	58.9992	0.221146	0.220856	-0.242308	1	-0.00361241	40	33.5443	-5.35151e-05
2	0	0	1	1	59.2491	0.226144	0.225757	-0.24208	1	-0.0036729	40	33.7942	-5.46512e-05
2	0	0	1	1	59.499	0.231142	0.230921	-0.24173	1	-0.00373328	40	34.0441	-5.58205e-05
2	0	0	1	1	59.7489	0.236139	0.235857	-0.241453	1	-0.00379357	40	34.294	-5.69483e-05
2	0	0	1	1	59.9988	0.241138	0.240821	-0.240997	1	-0.00385377	40	34.5439	-5.80373e-05
2	0	0	1	1	60.2486	0.246134	0.245908	-0.240698	1	-0.00391387	40	34.7937	-5.91896e-05
2	0	0	1	1	60.4985	0.251132	0.250871	-0.240469	1	-0.00397393	40	35.0436	-6.03267e-05
2	0	0	1	1	60.7484	0.25613	0.255953	-0.240239	1	-0.00403394	40	35.2935	-6.14898e-05
2	0	0	1	1	60.9983	0.261127	0.260867	-0.240074	1	-0.00409387	40	35.5434	-6.26273e-05
2	0	0	1	1	61.2482	0.266125	0.265819	-0.239673	1	-0.00415372	40	35.7933	-6.37097e-05
2	0	0	1	1	61.498	0.271123	0.270946	-0.239163	1	-0.00421343	40	36.0431	-6.48004e-05
2	0	0	1	1	61.7479	0.27612	0.275763	-0.238624	1	-0.00427304	40	36.293	-6.58038e-05
2	0	0	1	1	61.9978	0.281118	0.280795	-0.237703	1	-0.00433246	40	36.5429	-6.67459e-05
2	0	0	1	1	62.2477	0.286116	0.285657	-0.23675	1	-0.00439166	40	36.7928	-6.76292e-05
2	0	0	1	1	62.4976	0.291113	0.290796	-0.235727	1	-0.00445061	40	37.0427	-6.85485e-05
2	0	0	1	1	62.7474	0.29611	0.295886	-0.23474	1	-0.00450927	40	37.2925	-6.94564e-05
2	0	0	1	1	62.9973	0.301108	0.300983	-0.233616	1	-0.00456768	40	37.5424	-7.03144e-05
2	0	0	1	1	63.2472	0.306106	0.305802	-0.232343	1	-0.00462577	40	37.7923	-7.10508e-05
2	0	0	1	1	63.4971	0.311104	0.310862	-0.230948	1	-0.00468352	40	38.0422	-7.1793e-05
2	0	0	1	1	63.747	0.316101	0.31575	-0.229466	1	-0.00474091	40	38.2921	-7.24538e-05
2	0	0	1	1	63.9969	0.321099	0.320876	-0.227623	1	-0.00479788	40	38.542	-7.30387e-05
2	0	0	1	1	64.2467	0.326097	0.325872	-0.225725	1	-0.00485437	40	38.7918	-7.35574e-05
2	0	0	1	1	64.4966	0.331094	0.330772	-0.223449	1	-0.00491033	40	39.0417	-7.39108e-05
2	0	0	1	1	64.7465	0.336092	0.335754	-0.220501	1	-0.00496565	40	39.2916	-7.40342e-05
2	0	0	1	1	64.9964	0.34109	0.340876	-0.217305	1	-0.00502019	40	39.5415	-7.4074e-05
2	0	0	1	1	65.2463	0.346087	0.345854	-0.213123	1	-0.00507381	40	39.7914	-7.37093e-05
2	0	0	1	1	65.4962	0.351086	0.350784	-0.20861	1	-0.00512637	40	40.0413	-7.31771e-05
2	0	0	1	1	65.746	0.356082	0.355926	-0.20352	1	-0.00517767	40	40.2911	-7.24383e-05
2	0	0	1	1	65.9959	0.36108	0.360739	-0.197526	1	-0.00522759	40	40.541	-7.12554e-05
2	0	0	1	1	66.2458	0.366078	0.365653	-0.19094	1	-0.00527594	40	40.7909	-6.98176e-05
2	0	0	1	1	66.4957	0.371075	0.370873	-0.183137	1	-0.00532249	40	41.0408	-6.79205e-05
2	0	0	1	1	66.7456	0.376073	0.375757	-0.174307	1	-0.00536699	40	41.2907	-6.54972e-05
2	0	0	1	1	66.9954	0.381071	0.380623	-0.164375	1	-0.00540913	40	41.5405	-6.25649e-05
2	0	0	1	1	67.2453	0.386068	0.385742	-0.152922	1	-0.00544862	40	41.7904	-5.89884e-05
2	0	0	1	1	67.4952	0.391066	0.390893	-0.140373	1	-0.00548513	40	42.0403	-5.48709e-05
2	0	0	1	1	67.7451	0.396064	0.395677	-0.12636	1	-0.00551828	40	42.2902	-4.99977e-05
2	0	0	1	1	67.995	0.401061	0.400822	-0.11069	1	-0.00554773	40	42.5401	-4.4367e-05
2	0	0	1	1	68.2448	0.406058	0.40577	-0.0938974	1	-0.00557311	40	42.7899	-3.81008e-05
2	0	0	1	1	68.4947	0.411056	0.410683	-0.0755458	1	-0.00559414	40	43.0398	-3.10253e-05
2	0	0	1	1	68.7446	0.416054	0.415704	-0.0566725	1	-0.00561056	40	43.2897	-2.3559e-05
2	0	0	1	1	69.0245	0.421651	0.42142	-0.034463	1	-0.00562324	41	43.5696	-1.45234e-05
2	0	0	1	1	69.2744	0.426649	0.426293	-0.0140939	1	-0.00562928	41	43.8195	-6.00812e-06
2	1	0	1	1	69.5242	0.431647	0.431241	0.00586302	1	-0.00563029	41	0.0499	2.52838e-06
2	1	0	1	1	69.7741	0.436644	0.436351	0.0254082	1	-0.00562635	41	0.2998	1.10869e-05
2	1	0	1	1	69.984	0.440842	0.440653	0.0412953	2	-0.00561932	41	0.5097	1.81969e-05
2	1	0	1	1	70.2339	0.44584	0.445549	0.059147	2	-0.00560672	41	0.7596	2.63529e-05
2	1	0	1	1	70.4838	0.450838	0.450517	0.0757739	2	-0.00558981	41	1.0095	3.41374e-05
2	1	0	1	1	70.7337	0.455835	0.455439	0.0909184	2	-0.00556894	41	1.2594	4.14077e-05
2	1	0	1	1	70.9836	0.460833	0.460359	0.10453	2	-0.00554449	41	1.5093	4.81214e-05
2	1	0	1	1	71.2634	0.46643	0.466016	0.117059	2	-0.0055134	40	1.7891	5.45513e-05
2	1	0	1	1	71.5133	0.471428	0.470958	0.127374	2	-0.00548269	40	2.039	5.9988e-05
2	1	0	1	1	71.7632	0.476425	0.476216	0.135988	2	-0.00544961	40	2.2889	6.47598e-05
2	1	0	1	1	72.0131	0.481423	0.481139	0.143423	2	-0.0054145	40	2.5388	6.90063e-05
2	1	0	1	1	72.263	0.486422	0.486223	0.149526	2	-0.00537765	40	2.7887	7.27031e-05
2	1	0	1	1	72.5128	0.491418	0.491131	0.154968	2	-0.00533936	40	3.0385	7.61097e-05
2	1	0	1	1	72.7627	0.496416	0.496157	0.159569	2	-0.0052998	40	3.2884	7.91712e-05
2	1	0	1	1	73.0126	0.501414	0.500867	0.163419	2	-0.0052592	40	3.5383	8.18511e-05
2	1	0	1	1	73.2625	0.506411	0.505902	0.16648	2	-0.00521773	40	3.7882	8.42228e-05
2	1	0	1	1	73.5124	0.511409	0.511214	0.16898	2	-0.00517554	40	4.0381	8.6385e-05
2	1	0	1	1	73.7622	0.516406	0.515965	0.171021	2	-0.00513277	40	4.2879	8.82407e-05
2	1	0	1	1	74.0121	0.521404	0.521104	0.172736	2	-0.0050895	40	4.5378	9.00136e-05
2	1	0	1	1	74.262	0.526402	0.525957	0.174238	2	-0.0050458	40	4.7877	9.16415e-05
2	1	0	1	1	74.5119	0.531399	0.530893	0.175804	2	-0.00500171	40	5.0376	9.3333e-05
2	1	0	1	1	74.7618	0.536397	0.536021	0.176797	2	-0.00495732	40	5.2875	9.47671e-05
2	1	0	1	1	75.0116	0.541394	0.541143	0.17789	2	-0.00491265	40	5.5373	9.62637e-05
2	1	0	1	1	75.2615	0.546392	0.545914	0.178619	2	-0.00486774	40	5.7872	9.75109e-05
2	1	0	1	1	75.5114	0.55139	0.551294	0.179246	2	-0.00482262	40	6.0371	9.88174e-05
2	1	0	1	1	75.7613	0.556388	0.556053	0.179885	2	-0.00477731	40	6.287	0.000100026
2	1	0	1	1	76.0112	0.561385	0.561066	0.180371	2	-0.00473187	40	6.5369	0.0001012
2	1	0	1	1	76.2611	0.566383	0.566022	0.180649	2	-0.00468634	40	6.7868	0.000102252
2	1	0	1	1	76.5109	0.57138	0.57095	0.181019	2	-0.00464074	40	7.0366	0.000103353
2	1	0	1	1	76.7608	0.576378	0.576063	0.181229	2	-0.00459506	40	7.2865	0.000104399
2	1	0	1	1	77.0107	0.581376	0.581025	0.181531	2	-0.0045493	40	7.5364	0.000105474
2	1	0	1	1	77.2606	0.586373	0.586153	0.181917	2	-0.00450345	40	7.7863	0.000106631
2	1	0	1	1	77.5105	0.591371	0.590974	0.18222	2	-0.00445751	40	8.0362	0.000107687
2	1	0	1	1	77.7604	0.59637	0.596004	0.18279	2	-0.00441147	40	8.2861	0.000108943
2	1	0	1	1	78.0102	0.601366	0.600982	0.183014	2	-0.00436536	40	8.5359	0.000109988
2	1	0	1	1	78.2601	0.606364	0.606089	0.18338	2	-0.00431915	40	8.7858	0.000111145
2	1	0	1	1	78.51	0.611362	0.611078	0.183553	2	-0.00427288	40	9.0357	0.000112165
2	1	0	1	1	78.7599	0.616359	0.615996	0.183819	2	-0.00422656	40	9.2856	0.000113232
2	1	0	1	1	79.0098	0.621357	0.621107	0.183908	2	-0.00418022	40	9.5355	0.000114226
2	1	0	1	1	79.2596	0.626355	0.625883	0.183936	2	-0.0041339	40	9.7853	0.000115122
2	1	0	1	1	79.5095	0.631352	0.630947	0.183929	2	-0.00408757	40	10.0352	0.000116049
2	1	0	1	1	79.7594	0.63635	0.635828	0.184248	2	-0.00404121	40	10.2851	0.00011715
2	1	0	1	1	80.0093	0.641347	0.641038	0.184419	2	-0.00399482	40	10.535	0.00011822
2	1	0	1	1	80.2592	0.646345	0.645896	0.184552	2	-0.00394838	40	10.7849	0.000119202
2	1	0	1	1	80.509	0.651342	0.650932	0.185106	2	-0.00390189	40	11.0347	0.000120491
2	1	0	1	1	80.7589	0.65634	0.655841	0.185468	2	-0.00385531	40	11.2846	0.000121638
2	1	0	1	1	81.0088	0.661338	0.661094	0.185365	2	-0.00380867	40	11.5345	0.000122544
2	1	0	1	1	81.2587	0.666336	0.666075	0.186022	2	-0.00376198	40	11.7844	0.000123905
2	1	0	1	1	81.5086	0.671333	0.670983	0.186123	2	-0.00371524	40	12.0343	0.000124885
2	1	0	1	1	81.7585	0.676331	0.676026	0.186157	2	-0.00366848	40	12.2842	0.000125847
2	1	0	1	1	82.0083	0.681329	0.680943	0.186222	2	-0.00362174	40	12.534	0.000126807
2	1	0	1	1	82.2582	0.686326	0.685882	0.186069	2	-0.00357501	40	12.7839	0.000127621
2	1	0	1	1	82.5081	0.691324	0.69102	0.185868	2	-0.00352831	40	13.0338	0.000128439
2	1	0	1	1	82.758	0.696321	0.695874	0.185851	2	-0.00348161	40	13.2837	0.000129329
2	1	0	1	1	82.981	0.69922	0.69882	0.186822	2	-0.00343998	40	13.5067	0.000130555
2	1	0	1	1	83.2309	0.694222	0.694093	0.186354	2	-0.00339355	40	13.7566	0.000129347
2	1	0	1	1	83.4808	0.689223	0.68909	0.186417	2	-0.00334717	40	14.0065	0.000128458
2	1	0	1	1	83.7306	0.684227	0.684087	0.186396	2	-0.00330081	40	14.2563	0.000127511
2	1	0	1	1	83.9805	0.67923	0.678912	0.186321	2	-0.00325443	40	14.5062	0.000126495
2	1	0	1	1	84.2304	0.674232	0.674242	0.186406	2	-0.00320807	40	14.7561	0.000125683
2	1	0	1	1	84.4803	0.669234	0.669024	0.186384	2	-0.00316171	40	15.006	0.000124695
2	1	0	1	1	84.7302	0.664237	0.663785	0.186385	2	-0.00311538	40	15.2559	0.000123719
2	1	0	1	1	84.98	0.659239	0.65901	0.186217	2	-0.0030691	40	15.5057	0.000122719
2	1	0	1	1	85.2299	0.654241	0.65388	0.185996	2	-0.00302287	40	15.7556	0.000121619
2	1	0	1	1	85.4798	0.649244	0.648831	0.185657	2	-0.00297672	40	16.0055	0.00012046
2	1	0	1	1	85.7297	0.644246	0.644156	0.185373	2	-0.00293066	40	16.2554	0.000119409
2	1	0	1	1	85.9796	0.639248	0.638897	0.185485	2	-0.00288465	40	16.5053	0.000118506
2	1	0	1	1	86.2294	0.634251	0.634028	0.185058	2	-0.00283873	40	16.7551	0.000117332
2	1	0	1	1	86.4793	0.629253	0.62893	0.185051	2	-0.00279286	40	17.005	0.000116384
2	1	0	1	1	86.7292	0.624255	0.623971	0.184666	2	-0.00274703	40	17.2549	0.000115226
2	1	0	1	1	86.9791	0.619258	0.619029	0.184593	2	-0.00270126	40	17.5048	0.000114269
2	1	0	1	1	87.229	0.61426	0.614066	0.184404	2	-0.00265555	40	17.7547	0.000113236
2	1	0	1	1	87.4789	0.609263	0.608965	0.184133	2	-0.00260994	40	18.0046	0.000112131
2	1	0	1	1	87.7287	0.604265	0.604046	0.183551	2	-0.00256444	40	18.2544	0.000110873
2	1	0	1	1	87.9786	0.599267	0.598951	0.18306	2	-0.00251902	40	18.5043	0.000109644
2	1	0	1	1	88.2285	0.59427	0.593918	0.182485	2	-0.00247375	40	18.7542	0.000108381
2	1	0	1	1	88.4784	0.589272	0.588987	0.181828	2	-0.00242863	40	19.0041	0.000107094
2	1	0	1	1	88.7283	0.584274	0.584136	0.181108	2	-0.00238368	40	19.254	0.000105792
2	1	0	1	1	88.9782	0.579275	0.579076	0.180621	2	-0.00233889	40	19.5039	0.000104593
2	1	0	1	1	89.228	0.574279	0.574228	0.179539	2	-0.00229431	40	19.7537	0.000103096
2	1	0	1	1	89.4779	0.569282	0.568905	0.17862	2	-0.00224993	40	20.0036	0.000101618
2	1	0	1	1	89.7278	0.564284	0.564043	0.177759	2	-0.00220578	40	20.2535	0.000100264
2	1	0	1	1	89.9777	0.559286	0.558991	0.176635	2	-0.00216189	40	20.5034	9.87375e-05
2	1	0	1	1	90.2276	0.554289	0.554026	0.175419	2	-0.00211829	40	20.7533	9.71869e-05
2	1	0	1	1	90.4774	0.549291	0.549099	0.17367	2	-0.00207508	40	21.0031	9.53621e-05
2	1	0	1	1	90.7273	0.544293	0.543987	0.172004	2	-0.00203225	40	21.253	9.35679e-05
2	1	0	1	1	90.9772	0.539296	0.53901	0.169874	2	-0.00198991	40	21.5029	9.15636e-05
2	1	0	1	1	91.2271	0.534298	0.533923	0.167288	2	-0.00194814	40	21.7528	8.9319e-05
2	1	0	1	1	91.477	0.5293	0.529033	0.164222	2	-0.00190704	40	22.0027	8.6879e-05
2	1	0	1	1	91.7268	0.524303	0.524203	0.16069	2	-0.00186675	40	22.2525	8.42339e-05
2	1	0	1	1	91.9767	0.519305	0.51887	0.157033	2	-0.00182733	40	22.5024	8.14797e-05
2	1	0	1	1	92.2266	0.514308	0.514045	0.15255	2	-0.00178895	40	22.7523	7.84175e-05
2	1	0	1	1	92.4765	0.50931	0.509223	0.147212	2	-0.00175178	40	23.0022	7.49638e-05
2	1	0	1	1	92.7264	0.504312	0.504091	0.141213	2	-0.00171599	40	23.2521	7.11844e-05
2	1	0	1	1	92.9763	0.499315	0.499003	0.134255	2	-0.00168179	40	23.502	6.69938e-05
2	1	0	1	1	93.2261	0.494317	0.493913	0.126279	2	-0.00164946	40	23.7518	6.23709e-05
2	1	0	1	1	93.476	0.489319	0.488999	0.117139	2	-0.00161925	40	24.0017	5.72809e-05
2	1	0	1	1	93.7259	0.484322	0.484094	0.10661	2	-0.00159148	40	24.2516	5.16091e-05
2	1	0	1	1	93.9758	0.479324	0.478997	0.0949696	2	-0.00156649	40	24.5015	4.54901e-05
2	1	0	1	1	94.2257	0.474326	0.474004	0.0817316	2	-0.00154461	40	24.7514	3.87411e-05
2	1	0	1	1	94.4756	0.469327	0.469144	0.0670449	2	-0.00152619	40	25.0013	3.14538e-05
2	1	0	1	1	94.7254	0.464331	0.464034	0.0511589	2	-0.00151158	40	25.2511	2.37395e-05
2	1	0	1	1	95.0053	0.458734	0.45815	0.0312672	2	-0.00150007	41	25.531	1.4325e-05
2	1	0	1	1	95.2552	0.453736	0.453547	0.0128578	2	-0.00149455	41	25.7809	5.8316e-06
2	0	0	1	1	95.5051	0.448739	0.448445	-0.00639444	2	-0.00149375	41	0.05	-2.86755e-06
2	0	0	1	1	95.7549	0.443741	0.443426	-0.0261517	2	-0.00149781	41	0.2998	-1.15963e-05
2	0	0	1	1	96.0048	0.438743	0.438465	-0.0460718	2	-0.00150685	41	0.5497	-2.02009e-05
2	0	0	1	1	96.2547	0.433746	0.433349	-0.065776	2	-0.00152084	41	0.7996	-2.8504e-05
2	0	0	1	1	96.5046	0.428748	0.428459	-0.084806	2	-0.00153969	41	1.0495	-3.63359e-05
2	0	0	1	1	96.7545	0.42375	0.423381	-0.102961	2	-0.00156319	41	1.2994	-4.35919e-05
2	0	0	1	1	97.0343	0.418153	0.41771	-0.120931	2	-0.00159461	40	1.5792	-5.0514e-05
2	0	0	1	1	97.2842	0.413155	0.412835	-0.13637	2	-0.00162698	40	1.8291	-5.62981e-05
2	0	0	1	1	97.5341	0.408158	0.407837	-0.150209	2	-0.00166298	40	2.079	-6.12609e-05
2	0	0	1	1	97.784	0.40316	0.402701	-0.162481	2	-0.00170224	40	2.3289	-6.54311e-05
2	0	0	1	1	98.0339	0.398162	0.397924	-0.173173	2	-0.00174434	40	2.5788	-6.89099e-05
2	0	0	1	1	98.2837	0.393165	0.392767	-0.18226	2	-0.0017889	40	2.8286	-7.15857e-05
2	0	0	1	1	98.5336	0.388167	0.387845	-0.190161	2	-0.00183561	40	3.0785	-7.37531e-05
2	0	0	1	1	98.7835	0.38317	0.382991	-0.196816	2	-0.00188415	40	3.3284	-7.53787e-05
2	0	0	1	1	99.0334	0.378172	0.377797	-0.202388	2	-0.00193425	40	3.5783	-7.64616e-05
2	0	0	1	1	99.2833	0.373174	0.372913	-0.207278	2	-0.00198567	40	3.8282	-7.72967e-05
2	0	0	1	1	99.5332	0.368176	0.36788	-0.211381	2	-0.00203819	40	4.0781	-7.77626e-05
2	0	0	1	1	99.783	0.363179	0.362942	-0.214803	2	-0.00209164	40	4.3279	-7.79609e-05
2	0	0	1	1	100.033	0.358181	0.358008	-0.218011	2	-0.00214595	40	4.5778	-7.80496e-05
2	0	0	1	1	100.283	0.353184	0.352692	-0.22078	2	-0.00220098	40	4.8277	-7.78674e-05
2	0	0	1	1	100.533	0.348186	0.347804	-0.223315	2	-0.00225667	40	5.0776	-7.76697e-05
2	0	0	1	1	100.783	0.343189	0.342893	-0.225462	2	-0.00231294	40	5.3275	-7.73094e-05
2	0	0	1	1	101.032	0.338191	0.337858	-0.227502	2	-0.00236972	40	5.5773	-7.68635e-05
2	0	0	1	1	101.282	0.333193	0.333022	-0.229484	2	-0.00242697	40	5.8272	-7.64233e-05
2	0	0	1	1	101.532	0.328196	0.327779	-0.230956	2	-0.00248463	40	6.0771	-7.57026e-05
2	0	0	1	1	101.782	0.323198	0.322835	-0.232455	2	-0.00254266	40	6.327	-7.50444e-05
2	0	0	1	1	102.032	0.3182	0.317764	-0.233439	2	-0.002601	40	6.5769	-7.41783e-05
2	0	0	1	1	102.282	0.313204	0.312894	-0.234193	2	-0.00265956	40	6.8267	-7.32776e-05
2	0	0	1	1	102.532	0.308205	0.307867	-0.235043	2	-0.00271834	40	7.0766	-7.23618e-05
2	0	0	1	1	102.782	0.303207	0.302829	-0.235972	2	-0.00277732	40	7.3265	-7.14593e-05
2	0	0	1	1	103.031	0.29821	0.29801	-0.236923	2	-0.00283651	40	7.5764	-7.06055e-05
2	0	0	1	1	103.281	0.293212	0.293022	-0.237724	2	-0.00289591	40	7.8263	-6.96582e-05
2	0	0	1	1	103.531	0.288215	0.288039	-0.238585	2	-0.00295553	40	8.0762	-6.87218e-05
2	0	0	1	1	103.781	0.283217	0.282864	-0.239258	2	-0.00301532	40	8.326	-6.76777e-05
2	0	0	1	1	104.031	0.278219	0.277869	-0.240076	2	-0.00307531	40	8.5759	-6.67097e-05
2	0	0	1	1	104.281	0.273222	0.273027	-0.240641	2	-0.00313546	40	8.8258	-6.57015e-05
2	0	0	1	1	104.531	0.268224	0.267929	-0.241271	2	-0.00319575	40	9.0757	-6.46435e-05
2	0	0	1	1	104.781	0.263226	0.262892	-0.241346	2	-0.00325613	40	9.3256	-6.34479e-05
2	0	0	1	1	105.031	0.258228	0.257971	-0.241727	2	-0.00331655	40	9.5755	-6.23586e-05
2	0	0	1	1	105.28	0.253231	0.25286	-0.241526	2	-0.00337694	40	9.8253	-6.10724e-05
2	0	0	1	1	105.53	0.248233	0.248117	-0.24178	2	-0.00343739	40	10.0752	-5.99897e-05
2	0	0	1	1	105.78	0.243236	0.242909	-0.241796	2	-0.00349788	40	10.3251	-5.87344e-05
2	0	0	1	1	106.03	0.238238	0.237871	-0.242225	2	-0.00355845	40	10.575	-5.76182e-05
2	0	0	1	1	106.28	0.233241	0.232894	-0.242667	2	-0.00361911	40	10.8249	-5.65158e-05
2	0	0	1	1	106.53	0.228243	0.227777	-0.243049	2	-0.00367984	40	11.0747	-5.53611e-05
2	0	0	1	1	106.78	0.223245	0.222982	-0.243423	2	-0.0037407	40	11.3246	-5.42788e-05
2	0	0	1	1	107.03	0.218248	0.218024	-0.243681	2	-0.00380163	40	11.5745	-5.31284e-05
2	0	0	1	1	107.279	0.21325	0.212895	-0.243924	2	-0.00386262	40	11.8244	-5.19302e-05
2	0	0	1	1	107.529	0.208252	0.20798	-0.244175	2	-0.00392369	40	12.0743	-5.07835e-05
2	0	0	1	1	107.779	0.203256	0.20278	-0.24421	2	-0.00398475	40	12.3241	-4.95211e-05
2	0	0	1	1	108.029	0.198257	0.198077	-0.244198	2	-0.00404582	40	12.574	-4.837e-05
2	0	0	1	1	108.279	0.19326	0.192893	-0.243913	2	-0.00410685	40	12.8239	-4.70491e-05
2	0	0	1	1	108.529	0.188262	0.188022	-0.243948	2	-0.00416784	40	13.0738	-4.58677e-05
2	0	0	1	1	108.779	0.183264	0.182995	-0.24385	2	-0.00422883	40	13.3237	-4.46232e-05
2	0	0	1	1	109.029	0.178267	0.178155	-0.243928	2	-0.00428985	40	13.5736	-4.34569e-05
2	0	0	1	1	109.278	0.173269	0.173019	-0.244188	2	-0.00435088	40	13.8234	-4.22491e-05
2	0	0	1	1	109.528	0.168271	0.167912	-0.244429	2	-0.00441198	40	14.0733	-4.10425e-05
2	0	0	1	1	109.778	0.163274	0.162975	-0.244671	2	-0.00447313	40	14.3232	-3.98753e-05
2	0	0	1	1	110.028	0.158276	0.158025	-0.244957	2	-0.00453434	40	14.5731	-3.87093e-05
2	0	0	1	1	110.278	0.153278	0.152828	-0.245211	2	-0.00459563	40	14.823	-3.74751e-05
2	0	0	1	1	110.528	0.14828	0.148255	-0.245348	2	-0.00465696	40	15.0729	-3.63739e-05
2	0	0	1	1	110.778	0.143283	0.142921	-0.245477	2	-0.00471829	40	15.3227	-3.50837e-05
2	0	0	1	1	111.028	0.138286	0.138	-0.24529	2	-0.00477964	40	15.5726	-3.385e-05
2	0	0	1	1	111.278	0.133288	0.133046	-0.245175	2	-0.00484096	40	15.8225	-3.26196e-05
2	0	0	1	1	111.527	0.12829	0.127993	-0.245099	2	-0.00490225	40	16.0724	-3.13711e-05
2	0	0	1	1	111.777	0.123293	0.12307	-0.245044	2	-0.00496352	40	16.3223	-3.01575e-05
2	0	0	1	1	112.027	0.118295	0.117937	-0.244982	2	-0.00502477	40	16.5721	-2.88924e-05
2	0	0	1	1	112.277	0.113297	0.113	-0.245113	2	-0.00508608	40	16.822	-2.76978e-05
2	0	0	1	1	112.527	0.1083	0.107939	-0.245306	2	-0.00514742	40	17.0719	-2.64781e-05
2	0	0	1	1	112.777	0.103302	0.10311	-0.245324	2	-0.0052088	40	17.3218	-2.52954e-05
2	0	0	1	1	113.027	0.0983045	0.0978643	-0.245651	2	-0.00527021	40	17.5717	-2.40405e-05
2	0	0	1	1	113.277	0.0933077	0.0931158	-0.24584	2	-0.00533164	40	17.8215	-2.28916e-05
2	0	0	1	1	113.526	0.0883092	0.0878425	-0.245788	2	-0.00539311	40	18.0714	-2.15907e-05
2	0	0	1	1	113.776	0.0833115	0.0828958	-0.245815	2	-0.00545459	40	18.3213	-2.0377e-05
2	0	0	1	1	114.026	0.0783139	0.0781548	-0.24568	2	-0.00551605	40	18.5712	-1.9201e-05
2	0	0	1	1	114.276	0.0733163	0.0729481	-0.245569	2	-0.00557747	40	18.8211	-1.79138e-05
2	0	0	1	1	114.526	0.0683186	0.0680322	-0.245563	2	-0.00563886	40	19.071	-1.67062e-05
2	0	0	1	1	114.776	0.063321	0.0629217	-0.245459	2	-0.00570022	40	19.3208	-1.54447e-05
2	0	0	1	1	115.026	0.0583234	0.0580466	-0.24566	2	-0.00576161	40	19.5707	-1.42597e-05
2	0	0	1	1	115.276	0.0533257	0.0530651	-0.245619	2	-0.00582304	40	19.8206	-1.30338e-05
2	0	0	1	1	115.526	0.0483281	0.0480614	-0.245784	2	-0.00588449	40	20.0705	-1.18127e-05
2	0	0	1	1	115.775	0.0433305	0.043097	-0.245759	2	-0.00594599	40	20.3204	-1.05915e-05
2	0	0	1	1	116.025	0.0383319	0.0379101	-0.245932	2	-0.00600752	40	20.5703	-9.32331e-06
2	0	0	1	1	116.275	0.0333352	0.033013	-0.245977	2	-0.00606904	40	20.8201	-8.12042e-06
2	0	0	1	1	116.525	0.0283376	0.0280673	-0.246125	2	-0.00613059	40	21.07	-6.90805e-06
2	0	0	1	1	116.775	0.0233399	0.0231868	-0.245968	2	-0.00619212	40	21.3199	-5.7032e-06
2	0	0	1	1	117.025	0.0183423	0.0179787	-0.245728	2	-0.0062536	40	21.5698	-4.41787e-06
2	0	0	1	1	117.275	0.0133447	0.0132542	-0.245733	2	-0.00631505	40	21.8197	-3.25701e-06
2	0	0	1	1	117.525	0.00834703	0.00823053	-0.245876	2	-0.00637646	40	22.0695	-2.02369e-06
2	0	0	1	1	117.774	0.0033494	0.00309018	-0.245652	2	-0.0064379	40	22.3194	-7.59111e-07
2	0	0	1	0	117.955	0.000249972	-1.99021e-05	-0.24565	2	-0.00648217	40	22.4995	4.88897e-09
2	0	0	1	0	118.204	0.0052485	0.00478894	-0.245433	2	-0.00654347	40	22.7494	-1.17536e-06
2	0	0	1	0	118.454	0.0102461	0.00997796	-0.245427	2	-0.00660477	40	22.9993	-2.44886e-06
2	0	0	1	0	118.704	0.0152438	0.0151503	-0.245725	2	-0.00666609	40	23.2492	-3.72282e-06
2	0	0	1	0	118.954	0.0202414	0.0199049	-0.245483	2	-0.00672742	40	23.4991	-4.88632e-06
2	0	0	1	0	119.204	0.025239	0.0249676	-0.245422	2	-0.00678872	40	23.749	-6.1276e-06
2	0	0	1	0	119.454	0.0302367	0.0298693	-0.245245	2	-0.00684998	40	23.9988	-7.3253e-06
2	0	0	1	0	119.704	0.0352343	0.0349132	-0.245087	2	-0.0069112	40	24.2487	-8.55678e-06
2	0	0	1	0	119.954	0.0402319	0.0399904	-0.244982	2	-0.00697239	40	24.4986	-9.79693e-06
2	0	0	1	0	120.204	0.0452296	0.0449248	-0.244843	2	-0.00703354	40	24.7485	-1.09995e-05
2	0	0	1	0	120.453	0.0502272	0.0500856	-0.244938	2	-0.00709466	40	24.9984	-1.22679e-05
2	0	0	1	0	120.703	0.0552257	0.0548372	-0.244868	2	-0.0071558	40	25.2483	-1.34279e-05
2	0	0	1	0	120.953	0.0602225	0.0598712	-0.244979	2	-0.00721693	40	25.4981	-1.46672e-05
2	0	0	1	0	121.203	0.0652201	0.0650233	-0.245001	2	-0.00727811	40	25.748	-1.59308e-05
2	0	0	1	0	121.453	0.0702177	0.0699552	-0.245008	2	-0.00733932	40	25.9979	-1.71396e-05
2	0	0	1	0	121.703	0.0752154	0.0748975	-0.24523	2	-0.00740055	40	26.2478	-1.83672e-05
2	0	0	1	0	121.953	0.080213	0.0799443	-0.245312	2	-0.00746178	40	26.4977	-1.96113e-05
2	0	0	1	0	122.203	0.0852107	0.0849844	-0.245238	2	-0.00752299	40	26.7475	-2.08414e-05
2	0	0	1	0	122.452	0.0902083	0.0898563	-0.244827	2	-0.00758418	40	26.9974	-2.19993e-05
2	0	0	1	0	122.702	0.0952059	0.0949542	-0.244552	2	-0.00764529	40	27.2473	-2.32212e-05
2	0	0	1	0	122.952	0.100204	0.0999055	-0.244302	2	-0.00770633	40	27.4972	-2.44071e-05
2	0	0	1	0	123.202	0.105201	0.105033	-0.244282	2	-0.00776734	40	27.7471	-2.56577e-05
2	0	0	1	0	123.452	0.110198	0.1098	-0.244257	2	-0.00782833	40	27.9969	-2.68194e-05
2	0	0	1	0	123.702	0.115196	0.115049	-0.244385	2	-0.00788934	40	28.2468	-2.81161e-05
2	0	0	1	0	123.952	0.120194	0.120015	-0.244389	2	-0.00795038	40	28.4967	-2.93303e-05
2	0	0	1	0	124.202	0.125192	0.124848	-0.244467	2	-0.00801144	40	28.7466	-3.05212e-05
2	0	0	1	0	124.452	0.130189	0.129983	-0.244593	2	-0.00807253	40	28.9965	-3.17928e-05
2	0	0	1	0	124.701	0.135187	0.134844	-0.244613	2	-0.00813362	40	29.2464	-3.29846e-05
2	0	0	1	0	124.951	0.140185	0.139919	-0.244704	2	-0.0081947	40	29.4962	-3.42387e-05
2	0	0	1	0	125.201	0.145182	0.144895	-0.244446	2	-0.00825578	40	29.7461	-3.5419e-05
2	0	0	1	0	125.451	0.15018	0.14985	-0.244122	2	-0.00831679	40	29.996	-3.65819e-05
2	0	0	1	0	125.701	0.155178	0.154909	-0.243636	2	-0.0083777	40	30.2459	-3.77415e-05
2	0	0	1	0	125.951	0.160175	0.159824	-0.24335	2	-0.00843851	40	30.4958	-3.88932e-05
2	0	0	1	0	126.201	0.165174	0.164852	-0.243229	2	-0.00849927	40	30.7457	-4.00969e-05
2	0	0	1	0	126.451	0.17017	0.169888	-0.243171	2	-0.00855997	40	30.9955	-4.13119e-05
2	0	0	1	0	126.7	0.175168	0.174931	-0.243309	2	-0.00862071	40	31.2454	-4.25625e-05
2	0	0	1	0	126.95	0.180166	0.180043	-0.243374	2	-0.00868146	40	31.4953	-4.38177e-05
2	0	0	1	0	127.2	0.185163	0.184861	-0.243434	2	-0.00874223	40	31.7452	-4.50014e-05
2	0	0	1	0	127.45	0.190161	0.189759	-0.243387	2	-0.00880301	40	31.9951	-4.61849e-05
2	0	0	1	0	127.7	0.195159	0.194775	-0.243389	2	-0.00886377	40	32.2449	-4.74063e-05
2	0	0	1	0	127.95	0.200156	0.199973	-0.243247	2	-0.00892455	40	32.4948	-4.86429e-05
2	0	0	1	0	128.2	0.205154	0.204671	-0.242945	2	-0.00898529	40	32.7447	-4.97237e-05
2	0	0	1	0	128.45	0.210152	0.209851	-0.242664	2	-0.00904594	40	32.9946	-5.09234e-05
2	0	0	1	0	128.7	0.215149	0.214645	-0.242227	2	-0.00910646	40	33.2445	-5.19928e-05
2	0	0	1	0	128.949	0.220146	0.219965	-0.241951	2	-0.00916686	40	33.4943	-5.32207e-05
2	0	0	1	0	129.199	0.225144	0.22493	-0.241574	2	-0.0092272	40	33.7442	-5.43372e-05
2	0	0	1	0	129.449	0.230142	0.22987	-0.241274	2	-0.00928746	40	33.9941	-5.54616e-05
2	0	0	1	0	129.699	0.23514	0.234692	-0.241071	2	-0.00934768	40	34.244	-5.65776e-05
2	0	0	1	0	129.949	0.240137	0.239833	-0.241066	2	-0.00940785	40	34.4939	-5.78155e-05
2	0	0	1	0	130.199	0.245135	0.244729	-0.240833	2	-0.00946798	40	34.7438	-5.89387e-05
2	0	0	1	0	130.449	0.250133	0.249709	-0.240697	2	-0.00952804	40	34.9936	-6.01042e-05
2	0	0	1	0	130.699	0.25513	0.254948	-0.240425	2	-0.00958808	40	35.2435	-6.12958e-05
2	0	0	1	0	130.948	0.260128	0.25993	-0.240003	2	-0.00964804	40	35.4934	-6.2384e-05
2	0	0	1	0	131.198	0.265125	0.264885	-0.239361	2	-0.0097079	40	35.7433	-6.3403e-05
2	0	0	1	0	131.448	0.270123	0.269922	-0.238696	2	-0.00976757	40	35.9932	-6.44293e-05
2	0	0	1	0	131.698	0.275123	0.274955	-0.23792	2	-0.00982705	40	36.2431	-6.54173e-05
2	0	0	1	0	131.948	0.280118	0.279936	-0.237205	2	-0.0098863	40	36.4929	-6.64022e-05
2	0	0	1	0	132.198	0.285116	0.284706	-0.236377	2	-0.00994537	40	36.7428	-6.7298e-05
2	0	0	1	0	132.448	0.290114	0.289781	-0.235612	2	-0.0100043	40	36.9927	-6.8276e-05
2	0	0	1	0	132.698	0.295111	0.294719	-0.234705	2	-0.0100629	40	37.2426	-6.91719e-05
2	0	0	1	0	132.948	0.300109	0.299802	-0.233833	2	-0.0101214	40	37.4925	-7.01036e-05
2	0	0	1	0	133.197	0.305107	0.304833	-0.232793	2	-0.0101795	40	37.7423	-7.0963e-05
2	0	0	1	0	133.447	0.310104	0.309776	-0.231442	2	-0.0102374	40	37.9922	-7.16951e-05
2	0	0	1	0	133.697	0.315102	0.314737	-0.230119	2	-0.0102949	40	38.2421	-7.24271e-05
2	0	0	1	0	133.947	0.320099	0.319572	-0.228257	2	-0.0103521	40	38.492	-7.29446e-05
2	0	0	1	0	134.197	0.325097	0.325045	-0.226084	2	-0.0104087	40	38.7419	-7.34873e-05
2	0	0	1	0	134.447	0.330094	0.329752	-0.223413	2	-0.0104647	40	38.9917	-7.3671e-05
2	0	0	1	0	134.697	0.335092	0.334887	-0.220478	2	-0.01052	40	39.2416	-7.38353e-05
2	0	0	1	0	134.947	0.34009	0.339933	-0.217109	2	-0.0105746	40	39.4915	-7.38025e-05
2	0	0	1	0	135.196	0.345088	0.344839	-0.213355	2	-0.0106282	40	39.7414	-7.3573e-05
2	0	0	1	0	135.446	0.350085	0.350018	-0.20937	2	-0.0106808	40	39.9913	-7.32832e-05
2	0	0	1	0	135.696	0.355083	0.35483	-0.204391	2	-0.0107323	40	40.2412	-7.2524e-05
2	0	0	1	0	135.946	0.360081	0.359749	-0.198722	2	-0.0107825	40	40.491	-7.14899e-05
2	0	0	1	0	136.196	0.365078	0.364951	-0.192336	2	-0.0108312	40	40.7409	-7.01931e-05
2	0	0	1	0	136.446	0.370076	0.369987	-0.184907	2	-0.0108781	40	40.9908	-6.84132e-05
2	0	0	1	0	136.696	0.375073	0.374867	-0.176378	2	-0.0109231	40	41.2407	-6.61183e-05
2	0	0	1	0	136.946	0.380071	0.379614	-0.166529	2	-0.0109658	40	41.4906	-6.32165e-05
2	0	0	1	0	137.196	0.38507	0.384611	-0.155283	2	-0.0110058	40	41.7405	-5.97236e-05
2	0	0	1	0	137.445	0.390066	0.38974	-0.142575	2	-0.0110429	40	41.9903	-5.55671e-05
2	0	0	1	0	137.695	0.395064	0.394587	-0.128472	2	-0.0110766	40	42.2402	-5.06934e-05
2	0	0	1	0	137.945	0.400062	0.399571	-0.113357	2	-0.0111068	40	42.4901	-4.5294e-05
2	0	0	1	0	138.195	0.405059	0.404835	-0.09699	2	-0.0111329	40	42.74	-3.9265e-05
2	0	0	1	0	138.445	0.410057	0.409896	-0.0792118	2	-0.0111548	40	42.9899	-3.24686e-05
2	0	0	1	0	138.695	0.415055	0.414781	-0.0604617	2	-0.0111721	40	43.2397	-2.50784e-05
2	0	0	1	0	138.945	0.420052	0.419641	-0.0407771	2	-0.0111846	40	43.4896	-1.71118e-05
2	0	0	1	0	139.225	0.425649	0.425266	-0.0179804	2	-0.0111928	41	43.7695	-7.64643e-06
2	1	0	1	0	139.474	0.430647	0.430301	0.00196816	2	-0.0111948	41	0.000000000000000E+000	8.46901e-07
2	1	0	1	0	139.724	0.435646	0.435199	0.0218685	2	-0.0111918	41	0.2499	9.51717e-06
2	1	0	1	0	139.943	0.440018	0.439817	0.038642	2	-0.0111852	41	0.4685	1.69954e-05