File: Python/Data/GoldElectrode/240322/Gold/240322-CVEIS-Activation-5mM_Fe2Fe3-1M_H2SO4-0000RPM-Ag_AgCl_BLF8-Au_RDE_10_PEIS_C15.mpt
EC-Lab ASCII FILE
Nb header lines : 66

Potentio Electrochemical Impedance Spectroscopy

Run on channel : 15 (SN 19485)
User :
Electrode connection : standard
Potential control : Ewe
Ewe ctrl range : min = -2.50 V, max = 2.50 V
Ewe,I filtering : 50 kHz
Safety Limits :
	Do not start on E overload
Channel : Floating
Acquisition started on : 03/22/2024 10:02:07.151
Loaded Setting File :  C:\Data\mathias\GoldElectrode\240321-CVEIS-Activation-5mM_Fe2Fe3-1M_H2SO4-0000RPM-Ag_AgCl_BLF8-Au_RDE.mps
Saved on :
	File : 240322-CVEIS-Activation-5mM_Fe2Fe3-1M_H2SO4-0000RPM-Ag_AgCl_BLF8-Au_RDE_10_PEIS_C15.mpr
	Directory : C:\Data\mathias\GoldElectrode\
	Host : 192.168.0.1
Device : VMP-300 (SN 0826)
Address : USB
EC-Lab for windows v11.52 (software)
Internet server v11.52 (firmware)
Command interpretor v11.52 (firmware)
Electrode material :
Initial state :
Electrolyte :
Comments :
Cable : special
Electrode surface area : 0.001 cm²
Characteristic mass : 0.001 g
Equivalent Weight : 0.000 g/eq.
Density : 0.000 g/cm3
Volume (V) : 0.001 cm³
Record EIS quality indicators
Cycle Definition : Charge/Discharge alternance
Mode                Single sine
E (V)               0.0000
vs.                 Eoc
tE (h:m:s)          0:00:0.0000
record              0
dI                  0.000
unit dI             mA
dt (s)              0.000
fi                  100.000
unit fi             kHz
ff                  100.000
unit ff             Hz
Nd                  10
Points              per decade
spacing             Logarithmic
Va (mV)             5.0
pw                  0.10
Na                  2
corr                0
E range min (V)     -2.500
E range max (V)     2.500
I Range             Auto
Bandwidth           8
nc cycles           0
goto Ns'            0
nr cycles           0
inc. cycle          0

freq/Hz	Re(Z)/Ohm	-Im(Z)/Ohm	|Z|/Ohm	Phase(Z)/deg	time/s	<Ewe>/V	<I>/mA	Cs/µF	Cp/µF	cycle number	I Range	|Ewe|/V	|I|/A	Ns	(Q-Qo)/mA.h	THD Ewe/%	NSD Ewe/%	NSR Ewe/%	|Ewe h2|/V	|Ewe h3|/V	|Ewe h4|/V	|Ewe h5|/V	|Ewe h6|/V	|Ewe h7|/V	THD I/%	NSD I/%	NSR I/%	|I h2|/A	|I h3|/A	|I h4|/A	|I h5|/A	|I h6|/A	|I h7|/A	Re(Y)/Ohm-1	Im(Y)/Ohm-1	|Y|/Ohm-1	Phase(Y)/deg	Re(C)/nF	Im(C)/nF	|C|/nF	Phase(C)/deg	Re(M)	Im(M)	|M|	Phase(M)/deg	Re(Permittivity)	Im(Permittivity)	|Permittivity|	Phase(Permittivity)/deg	Re(Resistivity)/Ohm.cm	Im(Resistivity)/Ohm.cm	|Resistivity|/Ohm.cm	Phase(Resistivity)/deg	Re(Conductivity)/mS/cm	Im(Conductivity)/mS/cm	|Conductivity|/mS/cm	Phase(Conductivity)/deg	Tan(Delta)	Loss Angle(Delta)/deg	dq/mA.h
100004	2.74813	0.112326	2.75042	-2.34059	1549.51	0.441917	-0.0548133	14.1685	0.0236313	1	37	0.00485874	0.00176655	0	2.65822e-05	1.07165	0.553665	27.2186	1.62884e-05	3.43062e-05	1.25098e-05	1.46609e-05	2.52804e-05	1.19021e-05	0.562005	0.490513	9.79252	3.67662e-06	5.15968e-06	5.01958e-06	2.84973e-06	4.05263e-06	1.96277e-06	0.363278	0.0148485	0.363581	2.34059	23.6313	578.153	578.635	-87.6594	0.0000000E+000	0.0000000E+000	0.0000000E+000	87.6594	0.0000000E+000	0.0000000E+000	0.0000000E+000	-87.6594	0.0000000E+000	0.0000000E+000	0.0000000E+000	-2.34059	0.0000000E+000	0.0000000E+000	0.0000000E+000	2.34059	24.4655	87.6594	2.65822e-05
79433.3	2.71809	0.140583	2.72172	-2.96078	1550.33	0.441894	-0.0677667	14.2523	0.0380246	1	37	0.00512382	0.00188257	0	1.28195e-05	1.1045	0.88956	25.5808	2.79926e-05	2.49499e-05	1.44591e-05	2.32278e-05	1.77896e-05	2.52539e-05	0.648111	0.233237	9.31969	4.16418e-06	4.57727e-06	5.06663e-06	3.80059e-06	4.16551e-06	5.39014e-06	0.366924	0.0189778	0.367415	2.96078	38.0246	735.181	736.164	-87.0392	0.0000000E+000	0.0000000E+000	0.0000000E+000	87.0392	0.0000000E+000	0.0000000E+000	0.0000000E+000	-87.0392	0.0000000E+000	0.0000000E+000	0.0000000E+000	-2.96078	0.0000000E+000	0.0000000E+000	0.0000000E+000	2.96078	19.3344	87.0392	-1.37627e-05
63093.8	2.72062	0.186888	2.72704	-3.92966	1551.14	0.441877	-0.0724009	13.4974	0.063392	1	37	0.00517077	0.00189611	0	-3.34712e-07	1.19347	0.786709	24.9696	4.48289e-05	2.07681e-05	2.2008e-05	1.39522e-05	9.83352e-06	2.06498e-05	0.457688	0.350256	9.2509	6.2698e-06	2.32622e-06	1.78641e-06	1.95799e-06	4.24864e-06	1.94429e-06	0.365836	0.0251305	0.366699	3.92966	63.3919	922.827	925.002	-86.0703	0.0000000E+000	0.0000000E+000	0.0000000E+000	86.0703	0.0000000E+000	0.0000000E+000	0.0000000E+000	-86.0703	0.0000000E+000	0.0000000E+000	0.0000000E+000	-3.92966	0.0000000E+000	0.0000000E+000	0.0000000E+000	3.92966	14.5575	86.0703	-1.31542e-05
50122.5	2.7185	0.199621	2.72582	-4.19973	1551.96	0.441887	-0.0779843	15.9067	0.0853102	1	37	0.00516947	0.00189649	0	-1.32271e-05	1.16351	1.02886	25.16	9.26792e-06	8.48346e-06	2.2979e-05	2.22228e-05	2.7013e-05	3.5453e-05	0.485101	0.25427	9.21744	3.20723e-06	1.42838e-06	5.85036e-06	3.53454e-06	1.35172e-06	4.68332e-06	0.365878	0.0268666	0.366863	4.19973	85.3102	1161.78	1164.91	-85.8003	0.0000000E+000	0.0000000E+000	0.0000000E+000	85.8003	0.0000000E+000	0.0000000E+000	0.0000000E+000	-85.8003	0.0000000E+000	0.0000000E+000	0.0000000E+000	-4.19973	0.0000000E+000	0.0000000E+000	0.0000000E+000	4.19973	13.6183	85.8003	-1.28924e-05
39814.1	2.74833	0.26211	2.7608	-5.44787	1552.77	0.441871	-0.080199	15.251	0.137467	1	37	0.00516898	0.00187228	0	-2.77142e-05	1.60232	0.699243	25.2467	5.3884e-05	3.00654e-05	2.5127e-05	3.33168e-05	2.69813e-05	1.78904e-05	0.636294	0.347341	9.39715	5.31382e-06	4.66033e-06	3.97567e-06	4.83331e-06	5.33261e-06	2.88766e-06	0.360578	0.0343886	0.362214	5.44787	137.467	1441.39	1447.93	-84.5521	0.0000000E+000	0.0000000E+000	0.0000000E+000	84.5521	0.0000000E+000	0.0000000E+000	0.0000000E+000	-84.5521	0.0000000E+000	0.0000000E+000	0.0000000E+000	-5.44787	0.0000000E+000	0.0000000E+000	0.0000000E+000	5.44787	10.4854	84.5521	-1.44872e-05
31621.1	2.75114	0.335685	2.77155	-6.95665	1553.59	0.441882	-0.0829721	14.9938	0.219953	1	37	0.00515662	0.00186056	0	-4.79841e-05	0.848971	0.63405	25.5093	1.26312e-05	1.29149e-05	3.32281e-05	1.38822e-05	7.63657e-06	9.70369e-06	0.540715	0.393303	9.40118	3.54764e-06	3.66334e-06	3.87627e-06	2.92468e-06	2.61322e-06	6.06171e-06	0.358153	0.0437006	0.360809	6.95665	219.953	1802.65	1816.02	-83.0434	0.0000000E+000	0.0000000E+000	0.0000000E+000	83.0434	0.0000000E+000	0.0000000E+000	0.0000000E+000	-83.0434	0.0000000E+000	0.0000000E+000	0.0000000E+000	-6.95665	0.0000000E+000	0.0000000E+000	0.0000000E+000	6.95665	8.19561	83.0434	-2.02699e-05
25116.9	2.78146	0.420068	2.813	-8.58815	1554.4	0.44189	-0.0847774	15.0846	0.336382	1	37	0.00520545	0.0018505	0	-6.2899e-05	1.09747	0.83291	25.4401	1.68594e-05	1.76269e-05	1.93684e-05	7.8014e-06	2.47413e-05	3.5963e-05	0.604348	0.226627	9.53749	2.70644e-06	6.4227e-06	5.8014e-06	3.09005e-06	2.89771e-06	3.39952e-06	0.351506	0.0530859	0.355492	8.58815	336.382	2227.34	2252.6	-81.4119	0.0000000E+000	0.0000000E+000	0.0000000E+000	81.4119	0.0000000E+000	0.0000000E+000	0.0000000E+000	-81.4119	0.0000000E+000	0.0000000E+000	0.0000000E+000	-8.58815	0.0000000E+000	0.0000000E+000	0.0000000E+000	8.58815	6.62146	81.4119	-1.49148e-05
19948.8	2.81362	0.4756	2.85353	-9.5943	1555.22	0.441881	-0.0855591	16.775	0.465994	1	37	0.00515375	0.00180609	0	-8.43035e-05	1.69396	0.808291	25.476	2.68731e-05	1.91901e-05	4.80911e-05	6.93707e-06	4.22837e-05	3.91968e-05	0.572212	0.334863	9.61295	4.35709e-06	4.55694e-06	3.19879e-06	3.85059e-06	2.82455e-06	5.11989e-06	0.345541	0.0584086	0.350443	9.5943	465.994	2756.79	2795.9	-80.4057	0.0000000E+000	0.0000000E+000	0.0000000E+000	80.4057	0.0000000E+000	0.0000000E+000	0.0000000E+000	-80.4057	0.0000000E+000	0.0000000E+000	0.0000000E+000	-9.5943	0.0000000E+000	0.0000000E+000	0.0000000E+000	9.5943	5.91593	80.4057	-2.14045e-05
15847.7	2.8355	0.607418	2.89983	-12.0911	1556.03	0.441911	-0.0830466	16.5336	0.72543	1	37	0.00508197	0.0017525	0	-0.000101505	1.02724	0.704613	26.0955	9.55721e-06	1.86352e-05	9.88339e-06	2.21137e-05	2.68967e-05	2.42953e-05	0.45174	0.251522	10.0078	2.56036e-06	5.17107e-06	4.18414e-06	1.90294e-06	2.09149e-06	9.66367e-07	0.337197	0.072234	0.344847	12.0911	725.431	3386.4	3463.23	-77.9089	0.0000000E+000	0.0000000E+000	0.0000000E+000	77.9089	0.0000000E+000	0.0000000E+000	0.0000000E+000	-77.9089	0.0000000E+000	0.0000000E+000	0.0000000E+000	-12.0911	0.0000000E+000	0.0000000E+000	0.0000000E+000	12.0911	4.66812	77.9089	-1.72016e-05
12590.9	2.88996	0.715143	2.97712	-13.8991	1556.85	0.441886	-0.0851124	17.6754	1.01991	1	37	0.00502682	0.00168848	0	-0.000121708	1.6648	0.569768	26.4997	2.0335e-05	1.16607e-05	4.6298e-05	5.54513e-05	2.76937e-05	1.73734e-05	0.445359	0.312782	10.4569	2.53439e-06	3.37166e-06	1.13809e-06	3.73129e-06	2.93494e-06	3.44705e-06	0.32606	0.0806862	0.335895	13.8991	1019.91	4121.54	4245.86	-76.1009	0.0000000E+000	0.0000000E+000	0.0000000E+000	76.1009	0.0000000E+000	0.0000000E+000	0.0000000E+000	-76.1009	0.0000000E+000	0.0000000E+000	0.0000000E+000	-13.8991	0.0000000E+000	0.0000000E+000	0.0000000E+000	13.8991	4.04109	76.1009	-2.02025e-05
10002.2	2.94711	0.870732	3.07305	-16.4599	1557.66	0.441878	-0.0841446	18.2742	1.46713	1	37	0.00513765	0.00167184	0	-0.000141119	1.28839	0.661908	26.3589	1.59897e-05	3.64126e-05	2.64975e-05	2.76099e-05	2.52774e-05	1.33785e-05	0.440336	0.204879	10.6827	1.7456e-06	3.33827e-06	2.22674e-06	2.0856e-06	4.40068e-06	3.27495e-06	0.312074	0.092203	0.32541	16.4599	1467.13	4965.7	5177.9	-73.5401	0.0000000E+000	0.0000000E+000	0.0000000E+000	73.5401	0.0000000E+000	0.0000000E+000	0.0000000E+000	-73.5401	0.0000000E+000	0.0000000E+000	0.0000000E+000	-16.4599	0.0000000E+000	0.0000000E+000	0.0000000E+000	16.4599	3.38464	73.5401	-1.94117e-05
7944	3.05911	1.02348	3.22578	-18.4987	1558.51	0.441806	-0.0839399	19.5749	1.97057	1	37	0.0051787	0.00160541	0	-0.000162496	1.40397	0.898117	25.4899	1.79437e-05	4.2856e-05	2.42515e-05	2.91165e-05	2.57829e-05	2.20499e-05	0.780486	0.331313	11.0448	3.03818e-06	6.02709e-06	4.35147e-06	4.75903e-06	3.07249e-06	6.61229e-06	0.293985	0.0983583	0.310003	18.4987	1970.57	5889.88	6210.78	-71.5014	0.0000000E+000	0.0000000E+000	0.0000000E+000	71.5014	0.0000000E+000	0.0000000E+000	0.0000000E+000	-71.5014	0.0000000E+000	0.0000000E+000	0.0000000E+000	-18.4987	0.0000000E+000	0.0000000E+000	0.0000000E+000	18.4987	2.98892	71.5014	-2.13765e-05
6307.74	3.16785	1.26981	3.41287	-21.843	1559.42	0.441801	-0.0834932	19.8705	2.75071	1	37	0.00499415	0.00146333	0	-0.000184068	1.23438	1.43343	26.7618	3.71939e-05	2.92248e-05	9.82999e-06	1.36822e-05	1.95531e-05	2.43139e-05	0.561708	0.315157	12.2176	3.237e-06	2.06724e-06	3.18886e-06	2.92862e-06	2.15334e-06	5.23363e-06	0.271972	0.109018	0.293008	21.843	2750.71	6862.32	7393.1	-68.157	0.0000000E+000	0.0000000E+000	0.0000000E+000	68.157	0.0000000E+000	0.0000000E+000	0.0000000E+000	-68.157	0.0000000E+000	0.0000000E+000	0.0000000E+000	-21.843	0.0000000E+000	0.0000000E+000	0.0000000E+000	21.843	2.49474	68.157	-2.15721e-05
5011.6	3.28877	1.4697	3.60223	-24.0791	1560.17	0.44181	-0.0854102	21.608	3.59691	1	37	0.0051678	0.00143461	0	-0.000200017	1.36775	0.81484	25.161	2.48366e-05	2.52316e-05	2.5534e-05	3.77188e-05	1.71361e-05	2.32023e-05	0.497435	0.586135	12.3411	1.00632e-06	3.41928e-06	4.19909e-06	2.66286e-06	3.03257e-06	1.17708e-06	0.253449	0.113262	0.277606	24.0791	3596.91	8048.87	8816.01	-65.9209	0.0000000E+000	0.0000000E+000	0.0000000E+000	65.9209	0.0000000E+000	0.0000000E+000	0.0000000E+000	-65.9209	0.0000000E+000	0.0000000E+000	0.0000000E+000	-24.0791	0.0000000E+000	0.0000000E+000	0.0000000E+000	24.0791	2.23772	65.9209	-1.59492e-05
3981.28	3.50753	1.7739	3.93058	-26.8275	1561.17	0.441744	-0.0046849	22.5356	4.59	1	38	0.0051685	0.00131495	0	-0.00020823	1.32709	0.608565	25.1364	4.67304e-05	1.48096e-05	2.6831e-05	2.59551e-05	1.613e-05	1.58286e-05	0.161737	0.111543	2.23266	1.28939e-06	7.06093e-07	9.07483e-07	6.1587e-07	5.5894e-07	7.26923e-07	0.227032	0.114819	0.254415	26.8275	4590	9075.82	10170.5	-63.1725	0.0000000E+000	0.0000000E+000	0.0000000E+000	63.1725	0.0000000E+000	0.0000000E+000	0.0000000E+000	-63.1725	0.0000000E+000	0.0000000E+000	0.0000000E+000	-26.8275	0.0000000E+000	0.0000000E+000	0.0000000E+000	26.8275	1.9773	63.1725	-8.21335e-06
3163.04	3.75347	2.05371	4.27858	-28.6853	1561.91	0.441773	-0.00481152	24.5005	5.6449	1	38	0.00545995	0.00127611	0	-0.000208367	1.12508	0.61185	22.9932	2.0287e-05	2.52805e-05	3.31665e-05	1.97212e-05	2.08765e-05	2.35315e-05	0.187358	0.1126	2.3649	1.95112e-06	4.09251e-07	7.60329e-07	4.66321e-07	6.7952e-07	4.47729e-07	0.205037	0.112187	0.233722	28.6853	5644.9	10316.9	11760.2	-61.3147	0.0000000E+000	0.0000000E+000	0.0000000E+000	61.3147	0.0000000E+000	0.0000000E+000	0.0000000E+000	-61.3147	0.0000000E+000	0.0000000E+000	0.0000000E+000	-28.6853	0.0000000E+000	0.0000000E+000	0.0000000E+000	28.6853	1.82765	61.3147	-1.36563e-07
2512.41	4.07619	2.38072	4.7205	-30.2873	1562.88	0.441782	-0.00459368	26.6086	6.76801	1	38	0.00508523	0.00107726	0	-0.000212014	1.51931	0.710522	24.7132	1.42312e-05	3.05675e-05	5.20287e-05	3.07494e-05	1.93795e-05	2.39179e-05	0.254067	0.102244	2.81222	2.04571e-06	9.89105e-07	7.20064e-07	1.00091e-06	3.5064e-07	6.52622e-07	0.182927	0.106839	0.211842	30.2873	6768.01	11588	13419.6	-59.7127	0.0000000E+000	0.0000000E+000	0.0000000E+000	59.7127	0.0000000E+000	0.0000000E+000	0.0000000E+000	-59.7127	0.0000000E+000	0.0000000E+000	0.0000000E+000	-30.2873	0.0000000E+000	0.0000000E+000	0.0000000E+000	30.2873	1.71217	59.7127	-3.64728e-06
1995.64	4.44957	2.64787	5.17783	-30.7562	1563.62	0.441794	-0.00563636	30.1191	7.87662	1	38	0.00504623	0.000974585	0	-0.000213085	1.20224	0.8546	25.8554	2.38901e-05	2.00167e-05	3.40515e-05	3.23363e-05	1.00609e-05	1.27783e-05	0.273965	0.0770356	3.03468	2.19773e-06	8.46731e-07	2.92972e-07	8.23753e-07	4.74474e-07	6.17916e-07	0.165968	0.0987646	0.193131	30.7562	7876.62	13236.2	15402.5	-59.2438	0.0000000E+000	0.0000000E+000	0.0000000E+000	59.2438	0.0000000E+000	0.0000000E+000	0.0000000E+000	-59.2438	0.0000000E+000	0.0000000E+000	0.0000000E+000	-30.7562	0.0000000E+000	0.0000000E+000	0.0000000E+000	30.7562	1.68044	59.2438	-1.07076e-06
1584.49	4.91927	2.9742	5.74849	-31.1572	1564.37	0.441785	-0.00434418	33.7722	9.04051	1	38	0.0050263	0.000874369	0	-0.000214868	1.60106	1.03505	25.7031	3.66691e-05	2.76122e-05	4.40482e-05	2.48381e-05	1.85026e-05	3.38914e-05	0.337371	0.10273	3.44649	2.50747e-06	8.44792e-07	5.20227e-07	7.20306e-07	7.77733e-07	4.55709e-07	0.148865	0.0900042	0.173959	31.1572	9040.51	14952.8	17473.3	-58.8428	0.0000000E+000	0.0000000E+000	0.0000000E+000	58.8428	0.0000000E+000	0.0000000E+000	0.0000000E+000	-58.8428	0.0000000E+000	0.0000000E+000	0.0000000E+000	-31.1572	0.0000000E+000	0.0000000E+000	0.0000000E+000	31.1572	1.65398	58.8428	-1.78296e-06
1258.79	5.36706	3.23175	6.26495	-31.0541	1565.11	0.441789	-0.00474822	39.1227	10.4105	1	38	0.00492385	0.000785936	0	-0.000216501	0.984724	0.761892	26.1422	1.56119e-05	3.18098e-05	1.21129e-05	2.26492e-05	1.50155e-05	1.28988e-05	0.383474	0.100563	3.74675	2.45379e-06	1.02645e-06	6.15765e-07	1.11845e-06	3.38407e-07	4.36955e-07	0.136742	0.0823385	0.159618	31.0541	10410.5	17288.9	20181.3	-58.9459	0.0000000E+000	0.0000000E+000	0.0000000E+000	58.9459	0.0000000E+000	0.0000000E+000	0.0000000E+000	-58.9459	0.0000000E+000	0.0000000E+000	0.0000000E+000	-31.0541	0.0000000E+000	0.0000000E+000	0.0000000E+000	31.0541	1.66073	58.9459	-1.63338e-06
999.682	5.88953	3.48663	6.84421	-30.6258	1565.85	0.441792	-0.00634763	45.6617	11.85	1	38	0.00487012	0.000711569	0	-0.000217359	1.45496	0.82449	25.5758	2.87764e-05	2.75829e-05	2.63957e-05	8.77344e-06	2.07188e-05	4.22488e-05	0.377811	0.0780062	4.26988	2.04674e-06	1.23906e-06	3.74143e-07	9.04917e-07	3.77548e-07	4.60745e-07	0.125729	0.0744321	0.146109	30.6258	11850	20016.7	23261.4	-59.3742	0.0000000E+000	0.0000000E+000	0.0000000E+000	59.3742	0.0000000E+000	0.0000000E+000	0.0000000E+000	-59.3742	0.0000000E+000	0.0000000E+000	0.0000000E+000	-30.6258	0.0000000E+000	0.0000000E+000	0.0000000E+000	30.6258	1.68917	59.3742	-8.57478e-07
794.239	6.52572	3.68454	7.49406	-29.4498	1566.6	0.441755	-0.00689317	54.3858	13.1467	1	38	0.00486987	0.000649831	0	-0.000218922	1.17757	1.08641	26.514	1.77059e-05	2.08438e-05	1.05714e-05	3.75486e-05	2.13807e-05	1.90007e-05	0.53323	0.176303	4.62765	2.82829e-06	1.04822e-06	3.89787e-07	1.1363e-06	6.92348e-07	6.21238e-07	0.116197	0.0656068	0.133439	29.4498	13146.7	23284.3	26739.4	-60.5502	0.0000000E+000	0.0000000E+000	0.0000000E+000	60.5502	0.0000000E+000	0.0000000E+000	0.0000000E+000	-60.5502	0.0000000E+000	0.0000000E+000	0.0000000E+000	-29.4498	0.0000000E+000	0.0000000E+000	0.0000000E+000	29.4498	1.77111	60.5502	-1.56324e-06
631.01	7.09682	3.89015	8.09309	-28.7295	1567.34	0.441792	-0.00438701	64.8363	14.9803	1	38	0.0048376	0.000597744	0	-0.000219657	1.21465	0.901215	25.9156	1.27348e-05	3.94488e-05	1.41448e-05	1.95573e-05	1.77722e-05	2.60417e-05	0.530842	0.165355	4.91357	2.4021e-06	1.22575e-06	9.35781e-07	9.38901e-07	5.80257e-07	4.61855e-07	0.108352	0.0593933	0.123562	28.7295	14980.3	27328.7	31165.2	-61.2705	0.0000000E+000	0.0000000E+000	0.0000000E+000	61.2705	0.0000000E+000	0.0000000E+000	0.0000000E+000	-61.2705	0.0000000E+000	0.0000000E+000	0.0000000E+000	-28.7295	0.0000000E+000	0.0000000E+000	0.0000000E+000	28.7295	1.82431	61.2705	-7.34558e-07
501.122	7.63889	4.06212	8.65178	-28.0026	1568.08	0.44181	-0.00375954	78.1851	17.2352	1	38	0.0047853	0.0005531	0	-0.000219991	1.58826	0.687387	26.924	2.26058e-05	2.82097e-05	1.35968e-05	2.5434e-05	2.15091e-05	5.45385e-05	0.555937	0.132584	5.49426	2.78377e-06	4.05235e-07	5.99351e-07	6.62967e-07	4.56811e-07	6.28644e-07	0.102051	0.0542677	0.115583	28.0026	17235.2	32411.2	36708.8	-61.9974	0.0000000E+000	0.0000000E+000	0.0000000E+000	61.9974	0.0000000E+000	0.0000000E+000	0.0000000E+000	-61.9974	0.0000000E+000	0.0000000E+000	0.0000000E+000	-28.0026	0.0000000E+000	0.0000000E+000	0.0000000E+000	28.0026	1.88052	61.9974	-3.34278e-07
398.089	8.25658	4.28562	9.30256	-27.4318	1568.83	0.441818	-0.00358452	93.2882	19.7992	1	38	0.00478836	0.000514736	0	-0.000220488	1.79141	0.760353	26.9688	1.14295e-05	4.11238e-05	2.66588e-05	1.55664e-05	4.67755e-05	1.8748e-05	0.603021	0.137399	5.89778	2.48279e-06	3.21533e-07	2.4402e-07	9.92707e-07	7.46322e-07	1.10982e-06	0.0954103	0.0495231	0.107497	27.4318	19799.2	38144.8	42977.1	-62.5682	0.0000000E+000	0.0000000E+000	0.0000000E+000	62.5682	0.0000000E+000	0.0000000E+000	0.0000000E+000	-62.5682	0.0000000E+000	0.0000000E+000	0.0000000E+000	-27.4318	0.0000000E+000	0.0000000E+000	0.0000000E+000	27.4318	1.92658	62.5682	-4.96737e-07
316.316	8.88436	4.52451	9.97011	-26.9882	1569.57	0.441801	-0.00321213	111.206	22.9019	1	38	0.00480001	0.00048144	0	-0.000221372	1.73798	0.817522	26.3475	9.68722e-06	2.90085e-05	2.17368e-05	3.30048e-05	4.71762e-05	3.76686e-05	0.613557	0.172473	6.22429	2.64635e-06	3.57269e-07	6.16144e-07	4.00448e-07	3.5945e-07	8.40396e-07	0.0893772	0.0455168	0.1003	26.9882	22901.9	44970.3	50466	-63.0118	0.0000000E+000	0.0000000E+000	0.0000000E+000	63.0118	0.0000000E+000	0.0000000E+000	0.0000000E+000	-63.0118	0.0000000E+000	0.0000000E+000	0.0000000E+000	-26.9882	0.0000000E+000	0.0000000E+000	0.0000000E+000	26.9882	1.96361	63.0118	-8.84824e-07
251.206	9.45502	4.74169	10.5774	-26.6338	1570.31	0.441791	-0.00285278	133.615	26.8514	1	38	0.0047698	0.000450943	0	-0.000221637	0.948303	0.776985	27.2739	1.52515e-05	1.20314e-05	1.52014e-05	2.48815e-05	2.20384e-05	1.18978e-05	0.722692	0.240848	6.59735	2.91994e-06	4.31857e-07	4.2993e-07	8.94525e-07	6.85249e-07	5.27445e-07	0.0845095	0.0423815	0.0945413	26.6338	26851.4	53542.2	59897.9	-63.3662	0.0000000E+000	0.0000000E+000	0.0000000E+000	63.3662	0.0000000E+000	0.0000000E+000	0.0000000E+000	-63.3662	0.0000000E+000	0.0000000E+000	0.0000000E+000	-26.6338	0.0000000E+000	0.0000000E+000	0.0000000E+000	26.6338	1.99402	63.3662	-2.6457e-07
199.553	10.1387	5.0073	11.3078	-26.2838	1571.06	0.441807	-0.00386009	159.278	31.2324	1	38	0.00477525	0.000422295	0	-0.000222783	2.72981	1.05067	26.4184	1.27399e-05	0.000103227	2.8699e-05	4.36674e-05	3.53186e-05	4.33693e-05	0.888009	0.392869	7.02357	3.31935e-06	9.73246e-07	6.79167e-07	5.79054e-07	5.83372e-07	7.87444e-07	0.0792912	0.0391602	0.0884342	26.2838	31232.4	63239.1	70531.2	-63.7162	0.0000000E+000	0.0000000E+000	0.0000000E+000	63.7162	0.0000000E+000	0.0000000E+000	0.0000000E+000	-63.7162	0.0000000E+000	0.0000000E+000	0.0000000E+000	-26.2838	0.0000000E+000	0.0000000E+000	0.0000000E+000	26.2838	2.02479	63.7162	-1.14605e-06
158.529	10.7429	5.32689	11.9911	-26.3746	1571.8	0.441801	-0.00353798	188.468	37.1937	1	38	0.0047597	0.000396937	0	-0.000223892	1.33207	0.542317	26.4263	1.73703e-05	2.64803e-05	1.46471e-05	4.5127e-05	2.05801e-05	1.55401e-05	0.635256	0.129355	7.54415	2.144e-06	4.13032e-07	4.09792e-07	7.40911e-07	5.9021e-07	5.93563e-07	0.0747147	0.0370474	0.0833954	26.3746	37193.7	75009.7	83724.7	-63.6254	0.0000000E+000	0.0000000E+000	0.0000000E+000	63.6254	0.0000000E+000	0.0000000E+000	0.0000000E+000	-63.6254	0.0000000E+000	0.0000000E+000	0.0000000E+000	-26.3746	0.0000000E+000	0.0000000E+000	0.0000000E+000	26.3746	2.01673	63.6254	-1.10871e-06
125.927	11.4909	5.78289	12.864	-26.7142	1572.54	0.441794	-0.00316931	218.553	44.1666	1	38	0.00478113	0.000371667	0	-0.000224159	1.18087	0.817863	26.3536	2.08667e-05	3.92615e-05	1.52119e-05	1.50945e-05	1.70983e-05	1.15591e-05	0.802302	0.154048	8.14841	2.37847e-06	1.05421e-06	3.95088e-07	6.3374e-07	3.69534e-07	7.62282e-07	0.0694386	0.0349455	0.0777362	26.7142	44166.6	87761.3	98248.3	-63.2858	0.0000000E+000	0.0000000E+000	0.0000000E+000	63.2858	0.0000000E+000	0.0000000E+000	0.0000000E+000	-63.2858	0.0000000E+000	0.0000000E+000	0.0000000E+000	-26.7142	0.0000000E+000	0.0000000E+000	0.0000000E+000	26.7142	1.98705	63.2858	-2.67023e-07
99.9682	12.1681	6.19049	13.6522	-26.9647	1573.28	0.441815	-0.00274666	257.178	52.878	1	38	0.00476474	0.000349008	0	-0.000224687	1.89393	1.28914	26.8184	3.27969e-05	3.78502e-05	1.48675e-05	2.01264e-05	3.57538e-05	5.64813e-05	0.887355	0.405624	8.44923	2.35747e-06	1.16868e-06	7.1433e-07	6.77943e-07	5.54977e-07	9.93494e-07	0.065285	0.0332137	0.073248	26.9647	52878	103937	116615	-63.0353	0.0000000E+000	0.0000000E+000	0.0000000E+000	63.0353	0.0000000E+000	0.0000000E+000	0.0000000E+000	-63.0353	0.0000000E+000	0.0000000E+000	0.0000000E+000	-26.9647	0.0000000E+000	0.0000000E+000	0.0000000E+000	26.9647	1.9656	63.0353	-5.28457e-07