File: Python/Data/GoldElectrode/240322/Gold/240322-CVEIS-Activation-5mM_Fe2Fe3-1M_H2SO4-0000RPM-Ag_AgCl_BLF8-Au_RDE_08_PEIS_C15.mpt
EC-Lab ASCII FILE
Nb header lines : 66

Potentio Electrochemical Impedance Spectroscopy

Run on channel : 15 (SN 19485)
User :
Electrode connection : standard
Potential control : Ewe
Ewe ctrl range : min = -2.50 V, max = 2.50 V
Ewe,I filtering : 50 kHz
Safety Limits :
	Do not start on E overload
Channel : Floating
Acquisition started on : 03/22/2024 10:02:07.151
Loaded Setting File :  C:\Data\mathias\GoldElectrode\240321-CVEIS-Activation-5mM_Fe2Fe3-1M_H2SO4-0000RPM-Ag_AgCl_BLF8-Au_RDE.mps
Saved on :
	File : 240322-CVEIS-Activation-5mM_Fe2Fe3-1M_H2SO4-0000RPM-Ag_AgCl_BLF8-Au_RDE_08_PEIS_C15.mpr
	Directory : C:\Data\mathias\GoldElectrode\
	Host : 192.168.0.1
Device : VMP-300 (SN 0826)
Address : USB
EC-Lab for windows v11.52 (software)
Internet server v11.52 (firmware)
Command interpretor v11.52 (firmware)
Electrode material :
Initial state :
Electrolyte :
Comments :
Cable : special
Electrode surface area : 0.001 cm²
Characteristic mass : 0.001 g
Equivalent Weight : 0.000 g/eq.
Density : 0.000 g/cm3
Volume (V) : 0.001 cm³
Record EIS quality indicators
Cycle Definition : Charge/Discharge alternance
Mode                Single sine
E (V)               0.0000
vs.                 Eoc
tE (h:m:s)          0:00:0.0000
record              0
dI                  0.000
unit dI             mA
dt (s)              0.000
fi                  100.000
unit fi             kHz
ff                  100.000
unit ff             Hz
Nd                  10
Points              per decade
spacing             Logarithmic
Va (mV)             5.0
pw                  0.10
Na                  2
corr                0
E range min (V)     -2.500
E range max (V)     2.500
I Range             Auto
Bandwidth           8
nc cycles           0
goto Ns'            0
nr cycles           0
inc. cycle          0

freq/Hz	Re(Z)/Ohm	-Im(Z)/Ohm	|Z|/Ohm	Phase(Z)/deg	time/s	<Ewe>/V	<I>/mA	Cs/µF	Cp/µF	cycle number	I Range	|Ewe|/V	|I|/A	Ns	(Q-Qo)/mA.h	THD Ewe/%	NSD Ewe/%	NSR Ewe/%	|Ewe h2|/V	|Ewe h3|/V	|Ewe h4|/V	|Ewe h5|/V	|Ewe h6|/V	|Ewe h7|/V	THD I/%	NSD I/%	NSR I/%	|I h2|/A	|I h3|/A	|I h4|/A	|I h5|/A	|I h6|/A	|I h7|/A	Re(Y)/Ohm-1	Im(Y)/Ohm-1	|Y|/Ohm-1	Phase(Y)/deg	Re(C)/nF	Im(C)/nF	|C|/nF	Phase(C)/deg	Re(M)	Im(M)	|M|	Phase(M)/deg	Re(Permittivity)	Im(Permittivity)	|Permittivity|	Phase(Permittivity)/deg	Re(Resistivity)/Ohm.cm	Im(Resistivity)/Ohm.cm	|Resistivity|/Ohm.cm	Phase(Resistivity)/deg	Re(Conductivity)/mS/cm	Im(Conductivity)/mS/cm	|Conductivity|/mS/cm	Phase(Conductivity)/deg	Tan(Delta)	Loss Angle(Delta)/deg	dq/mA.h
100004	2.73288	0.114345	2.73527	-2.39588	1162.93	0.441889	-0.0587589	13.9183	0.0243231	1	37	0.00484515	0.00177136	0	2.27457e-05	1.35272	0.694694	26.8391	2.17107e-05	3.28035e-05	1.94619e-05	2.03227e-05	1.82015e-05	3.80913e-05	0.494677	0.371316	9.74943	3.92906e-06	3.54278e-06	2.28303e-06	4.6072e-06	3.34032e-06	3.05321e-06	0.365275	0.0152832	0.365594	2.39588	24.3231	581.331	581.84	-87.6041	0.0000000E+000	0.0000000E+000	0.0000000E+000	87.6041	0.0000000E+000	0.0000000E+000	0.0000000E+000	-87.6041	0.0000000E+000	0.0000000E+000	0.0000000E+000	-2.39588	0.0000000E+000	0.0000000E+000	0.0000000E+000	2.39588	23.9003	87.6041	2.27457e-05
79433.3	2.73804	0.151951	2.74226	-3.17643	1163.74	0.441869	-0.0670595	13.1861	0.0404859	1	37	0.00511378	0.00186481	0	9.56678e-06	1.49346	1.00264	25.1752	2.91999e-05	1.84346e-05	3.64694e-05	2.42667e-05	1.06946e-05	4.10336e-05	0.484196	0.333511	9.34703	2.26989e-06	1.88852e-06	6.55934e-06	3.73208e-06	1.45371e-06	3.39367e-06	0.364103	0.0202062	0.364663	3.17643	40.4859	729.527	730.65	-86.8236	0.0000000E+000	0.0000000E+000	0.0000000E+000	86.8236	0.0000000E+000	0.0000000E+000	0.0000000E+000	-86.8236	0.0000000E+000	0.0000000E+000	0.0000000E+000	-3.17643	0.0000000E+000	0.0000000E+000	0.0000000E+000	3.17643	18.0193	86.8236	-1.31789e-05
63093.8	2.72231	0.172588	2.72777	-3.62757	1164.56	0.44187	-0.081446	14.6158	0.0585097	1	37	0.0051539	0.00188942	0	-6.89578e-06	1.0289	0.725603	25.5809	2.53873e-05	1.1413e-05	2.1335e-05	2.17105e-05	1.81781e-05	1.46838e-05	0.529041	0.401434	9.20438	6.75976e-06	1.11296e-06	5.06474e-06	1.41141e-06	3.20005e-06	3.75404e-06	0.365865	0.023195	0.3666	3.62757	58.5098	922.899	924.752	-86.3724	0.0000000E+000	0.0000000E+000	0.0000000E+000	86.3724	0.0000000E+000	0.0000000E+000	0.0000000E+000	-86.3724	0.0000000E+000	0.0000000E+000	0.0000000E+000	-3.62757	0.0000000E+000	0.0000000E+000	0.0000000E+000	3.62757	15.7734	86.3724	-1.64626e-05
50122.5	2.73331	0.228192	2.74282	-4.7723	1165.37	0.441877	-0.0739643	13.9151	0.0963149	1	37	0.00516816	0.00188425	0	-2.80274e-05	1.63549	0.598805	25.4928	3.19861e-05	3.60763e-05	1.95881e-05	1.96468e-05	4.19039e-05	3.11611e-05	0.559689	0.278324	9.27793	3.21731e-06	6.83042e-06	4.73852e-06	7.55619e-07	2.53061e-06	3.38049e-06	0.363324	0.0303323	0.364588	4.7723	96.3148	1153.67	1157.68	-85.2277	0.0000000E+000	0.0000000E+000	0.0000000E+000	85.2277	0.0000000E+000	0.0000000E+000	0.0000000E+000	-85.2277	0.0000000E+000	0.0000000E+000	0.0000000E+000	-4.7723	0.0000000E+000	0.0000000E+000	0.0000000E+000	4.7723	11.9781	85.2277	-2.11316e-05
39814.1	2.73461	0.290093	2.74996	-6.05541	1166.19	0.441899	-0.0806829	13.7799	0.153345	1	37	0.00512297	0.00186293	0	-4.77909e-05	1.61912	0.673925	25.607	6.37773e-05	1.9982e-05	2.24163e-05	1.70137e-05	1.94149e-05	3.01573e-05	0.488715	0.339668	9.41393	2.52016e-06	3.90748e-06	2.45624e-06	3.44665e-06	3.12806e-06	5.23472e-06	0.361613	0.0383607	0.363642	6.05541	153.345	1445.53	1453.64	-83.9446	0.0000000E+000	0.0000000E+000	0.0000000E+000	83.9446	0.0000000E+000	0.0000000E+000	0.0000000E+000	-83.9446	0.0000000E+000	0.0000000E+000	0.0000000E+000	-6.05541	0.0000000E+000	0.0000000E+000	0.0000000E+000	6.05541	9.42666	83.9446	-1.97635e-05
31621.1	2.75603	0.336841	2.77654	-6.9681	1167	0.44186	-0.0821905	14.9423	0.219917	1	37	0.00512494	0.0018458	0	-6.66728e-05	1.02021	0.455651	25.5488	1.85161e-05	1.75373e-05	2.6564e-05	2.08603e-05	7.63378e-06	2.55639e-05	0.477399	0.35919	9.51284	3.23757e-06	3.09577e-06	1.77038e-06	2.10366e-06	3.52701e-06	5.46261e-06	0.357501	0.0436935	0.360161	6.9681	219.917	1799.37	1812.75	-83.0319	0.0000000E+000	0.0000000E+000	0.0000000E+000	83.0319	0.0000000E+000	0.0000000E+000	0.0000000E+000	-83.0319	0.0000000E+000	0.0000000E+000	0.0000000E+000	-6.9681	0.0000000E+000	0.0000000E+000	0.0000000E+000	6.9681	8.182	83.0319	-1.88819e-05
25116.9	2.77638	0.435604	2.81034	-8.91683	1167.82	0.441885	-0.0795477	14.5466	0.349485	1	37	0.00515013	0.00183256	0	-8.55701e-05	1.35139	0.907236	26.0704	2.75033e-05	4.28495e-05	1.84881e-05	2.38303e-05	2.49785e-05	1.88043e-05	0.666502	0.277482	9.61216	4.81825e-06	4.99585e-06	5.64042e-06	3.75551e-06	6.20139e-06	3.63714e-06	0.351528	0.0551537	0.355829	8.91683	349.485	2227.48	2254.73	-81.0832	0.0000000E+000	0.0000000E+000	0.0000000E+000	81.0832	0.0000000E+000	0.0000000E+000	0.0000000E+000	-81.0832	0.0000000E+000	0.0000000E+000	0.0000000E+000	-8.91683	0.0000000E+000	0.0000000E+000	0.0000000E+000	8.91683	6.37362	81.0832	-1.88973e-05
19948.8	2.81723	0.516165	2.86413	-10.3824	1168.63	0.441878	-0.0816507	15.4566	0.502004	1	37	0.00510997	0.00178413	0	-0.000102687	1.57219	0.724823	25.3822	1.75711e-05	3.18563e-05	5.8708e-05	7.32625e-06	2.38154e-05	2.55347e-05	0.603869	0.255834	9.97719	3.46349e-06	3.01659e-06	6.67096e-06	4.09142e-06	2.6344e-06	3.00089e-06	0.34343	0.0629222	0.349146	10.3824	502.004	2739.94	2785.55	-79.6176	0.0000000E+000	0.0000000E+000	0.0000000E+000	79.6176	0.0000000E+000	0.0000000E+000	0.0000000E+000	-79.6176	0.0000000E+000	0.0000000E+000	0.0000000E+000	-10.3824	0.0000000E+000	0.0000000E+000	0.0000000E+000	10.3824	5.45801	79.6176	-1.71168e-05
15847.7	2.85749	0.627061	2.92548	-12.3771	1169.45	0.441872	-0.0775935	16.0156	0.735816	1	37	0.00512888	0.00175317	0	-0.000120624	1.89444	1.1373	25.6927	3.12246e-05	5.03466e-05	3.77372e-05	4.56478e-05	3.51754e-05	1.30915e-05	0.431611	0.345561	10.0048	2.78041e-06	3.41937e-06	2.69994e-06	2.83059e-06	3.00696e-06	2.02495e-06	0.333879	0.0732681	0.341824	12.3771	735.816	3353.08	3432.87	-77.6229	0.0000000E+000	0.0000000E+000	0.0000000E+000	77.6229	0.0000000E+000	0.0000000E+000	0.0000000E+000	-77.6229	0.0000000E+000	0.0000000E+000	0.0000000E+000	-12.3771	0.0000000E+000	0.0000000E+000	0.0000000E+000	12.3771	4.55695	77.6229	-1.79372e-05
12590.9	2.9055	0.749442	3.0006	-14.4636	1170.26	0.44188	-0.0845727	16.8665	1.05217	1	37	0.00517139	0.00172345	0	-0.000140189	1.4605	0.902869	25.7208	3.22094e-05	2.60799e-05	4.40234e-05	3.18854e-05	1.44654e-05	1.82178e-05	0.477056	0.17306	10.2453	4.78272e-06	2.52718e-06	3.94992e-06	1.91653e-06	2.29612e-06	2.63902e-06	0.322705	0.0832381	0.333267	14.4636	1052.17	4079.13	4212.64	-75.5364	0.0000000E+000	0.0000000E+000	0.0000000E+000	75.5364	0.0000000E+000	0.0000000E+000	0.0000000E+000	-75.5364	0.0000000E+000	0.0000000E+000	0.0000000E+000	-14.4636	0.0000000E+000	0.0000000E+000	0.0000000E+000	14.4636	3.87688	75.5364	-1.95648e-05
10002.2	2.9632	0.917305	3.10193	-17.2007	1171.08	0.441886	-0.0839213	17.3464	1.51695	1	37	0.00497783	0.00160475	0	-0.000155531	1.1501	0.6388	26.1341	2.08041e-05	1.94217e-05	2.17547e-05	8.63833e-06	4.00793e-05	1.58725e-05	0.595616	0.334152	11.0261	5.52411e-06	3.57277e-06	4.65539e-06	3.3335e-06	1.67737e-06	2.56416e-06	0.307961	0.0953342	0.32238	17.2007	1516.95	4900.26	5129.69	-72.7993	0.0000000E+000	0.0000000E+000	0.0000000E+000	72.7993	0.0000000E+000	0.0000000E+000	0.0000000E+000	-72.7993	0.0000000E+000	0.0000000E+000	0.0000000E+000	-17.2007	0.0000000E+000	0.0000000E+000	0.0000000E+000	17.2007	3.23033	72.7993	-1.53425e-05
7944	3.06616	1.1368	3.27012	-20.3426	1171.93	0.441766	-0.0864524	17.6237	2.1298	1	37	0.00522716	0.00159846	0	-0.000172959	1.64765	0.662941	25.4362	1.94789e-05	2.82751e-05	2.79134e-05	2.10092e-05	1.52135e-05	6.76714e-05	0.596502	0.43997	11.1437	1.74961e-06	1.6323e-06	5.3835e-06	2.92438e-06	6.34773e-06	1.98453e-06	0.286727	0.106306	0.305799	20.3426	2129.8	5744.46	6126.57	-69.6574	0.0000000E+000	0.0000000E+000	0.0000000E+000	69.6574	0.0000000E+000	0.0000000E+000	0.0000000E+000	-69.6574	0.0000000E+000	0.0000000E+000	0.0000000E+000	-20.3426	0.0000000E+000	0.0000000E+000	0.0000000E+000	20.3426	2.69719	69.6574	-1.74279e-05
6307.74	3.15152	1.34798	3.4277	-23.1576	1172.83	0.441764	-0.0826743	18.7181	2.89484	1	37	0.00498931	0.00145559	0	-0.000191801	1.35876	1.35371	25.8514	4.20294e-05	2.26976e-05	2.95974e-05	1.66765e-05	2.35199e-05	2.07589e-05	0.683332	0.431417	12.3006	5.11065e-06	3.8842e-06	1.65975e-06	3.36262e-06	5.7034e-06	2.49123e-06	0.268234	0.11473	0.291741	23.1576	2894.84	6768.01	7361.12	-66.8424	0.0000000E+000	0.0000000E+000	0.0000000E+000	66.8424	0.0000000E+000	0.0000000E+000	0.0000000E+000	-66.8424	0.0000000E+000	0.0000000E+000	0.0000000E+000	-23.1576	0.0000000E+000	0.0000000E+000	0.0000000E+000	23.1576	2.33795	66.8424	-1.88421e-05
5011.6	3.31948	1.58832	3.6799	-25.5703	1173.59	0.44176	-0.0810738	19.9943	3.72484	1	37	0.00519677	0.0014122	0	-0.000207631	1.52932	0.685804	25.1663	2.2408e-05	2.56749e-05	2.44291e-05	3.90761e-05	4.55575e-05	2.49378e-05	0.629975	0.395092	12.5821	1.84527e-06	2.79615e-06	4.84176e-06	4.10013e-06	2.325e-06	3.89171e-06	0.24513	0.117291	0.271746	25.5703	3724.84	7784.68	8629.93	-64.4297	0.0000000E+000	0.0000000E+000	0.0000000E+000	64.4297	0.0000000E+000	0.0000000E+000	0.0000000E+000	-64.4297	0.0000000E+000	0.0000000E+000	0.0000000E+000	-25.5703	0.0000000E+000	0.0000000E+000	0.0000000E+000	25.5703	2.08994	64.4297	-1.58297e-05
3981.28	3.52333	1.89644	4.0013	-28.2915	1174.58	0.441763	-0.00293096	21.0794	4.73517	1	38	0.00523448	0.0013082	0	-0.000211733	1.45738	0.928302	23.9276	3.93828e-05	2.1355e-05	4.01389e-05	2.35225e-05	2.36603e-05	2.75563e-05	0.164631	0.136016	2.32763	1.2441e-06	1.2517e-06	6.99538e-07	2.69757e-07	5.50561e-07	6.48557e-07	0.220066	0.118451	0.249919	28.2915	4735.17	8797.31	9990.72	-61.7085	0.0000000E+000	0.0000000E+000	0.0000000E+000	61.7085	0.0000000E+000	0.0000000E+000	0.0000000E+000	-61.7085	0.0000000E+000	0.0000000E+000	0.0000000E+000	-28.2915	0.0000000E+000	0.0000000E+000	0.0000000E+000	28.2915	1.85787	61.7085	-4.10189e-06
3163.04	3.78671	2.22692	4.39299	-30.4593	1175.55	0.441762	-0.00397179	22.5949	5.80631	1	38	0.00503204	0.00114547	0	-0.000212132	1.18124	0.551141	25.485	2.06586e-05	2.57004e-05	1.98557e-05	3.29586e-05	1.1939e-05	2.0062e-05	0.188993	0.158632	2.6188	1.48925e-06	7.58991e-07	2.79231e-07	8.00872e-07	7.7e-07	5.62695e-07	0.196219	0.115394	0.227635	30.4593	5806.31	9873.19	11454	-59.5407	0.0000000E+000	0.0000000E+000	0.0000000E+000	59.5407	0.0000000E+000	0.0000000E+000	0.0000000E+000	-59.5407	0.0000000E+000	0.0000000E+000	0.0000000E+000	-30.4593	0.0000000E+000	0.0000000E+000	0.0000000E+000	30.4593	1.70042	59.5407	-3.99086e-07
2512.41	4.13246	2.56342	4.86295	-31.8119	1176.29	0.441781	-0.00522115	24.7121	6.86672	1	38	0.00510703	0.00105019	0	-0.000213456	1.09621	0.555833	24.4547	1.80504e-05	2.19778e-05	2.91776e-05	2.40939e-05	1.39111e-05	1.89721e-05	0.189156	0.0682512	2.79774	9.87268e-07	1.21231e-06	4.58098e-07	8.34238e-07	6.1929e-07	3.17752e-07	0.174746	0.108398	0.205636	31.8119	6866.72	11069.7	13026.5	-58.1881	0.0000000E+000	0.0000000E+000	0.0000000E+000	58.1881	0.0000000E+000	0.0000000E+000	0.0000000E+000	-58.1881	0.0000000E+000	0.0000000E+000	0.0000000E+000	-31.8119	0.0000000E+000	0.0000000E+000	0.0000000E+000	31.8119	1.61208	58.1881	-1.32381e-06
1995.64	4.57743	2.87412	5.40494	-32.1243	1177.03	0.441724	-0.00574063	27.7481	7.84623	1	38	0.0050797	0.000939824	0	-0.00021475	1.34442	1.19778	24.9774	1.13077e-05	1.50477e-05	3.13069e-05	3.49623e-05	4.03216e-05	1.58156e-05	0.267789	0.0610292	3.16907	1.99652e-06	1.14829e-06	3.85543e-07	6.15955e-07	3.44567e-07	4.47985e-07	0.156689	0.0983836	0.185016	32.1243	7846.23	12496.2	14755.3	-57.8757	0.0000000E+000	0.0000000E+000	0.0000000E+000	57.8757	0.0000000E+000	0.0000000E+000	0.0000000E+000	-57.8757	0.0000000E+000	0.0000000E+000	0.0000000E+000	-32.1243	0.0000000E+000	0.0000000E+000	0.0000000E+000	32.1243	1.59264	57.8757	-1.29409e-06
1584.49	5.03246	3.20692	5.96741	-32.5072	1177.78	0.441741	-0.00629549	31.3214	9.04579	1	38	0.0049899	0.000836192	0	-0.000216766	1.20022	0.486488	25.1305	2.58537e-05	1.07893e-05	2.03881e-05	3.64538e-05	2.4984e-05	1.34051e-05	0.309293	0.107345	3.55713	2.13736e-06	8.64369e-07	5.01186e-07	7.50608e-07	4.75354e-07	3.57639e-07	0.141321	0.0900568	0.167577	32.5072	9045.79	14195.1	16832.3	-57.4928	0.0000000E+000	0.0000000E+000	0.0000000E+000	57.4928	0.0000000E+000	0.0000000E+000	0.0000000E+000	-57.4928	0.0000000E+000	0.0000000E+000	0.0000000E+000	-32.5072	0.0000000E+000	0.0000000E+000	0.0000000E+000	32.5072	1.56925	57.4928	-2.01644e-06
1258.79	5.56024	3.52298	6.58238	-32.3584	1178.52	0.441764	-0.00611302	35.8886	10.2804	1	38	0.00491818	0.000747173	0	-0.00021842	1.2096	0.977221	25.9083	2.57689e-05	2.97937e-05	2.53467e-05	1.45729e-05	2.01933e-05	1.77986e-05	0.451811	0.149426	4.03962	2.39465e-06	1.63479e-06	8.36525e-07	1.15839e-06	5.858e-07	5.10931e-07	0.12833	0.0813101	0.151921	32.3584	10280.4	16225.4	19208.1	-57.6416	0.0000000E+000	0.0000000E+000	0.0000000E+000	57.6416	0.0000000E+000	0.0000000E+000	0.0000000E+000	-57.6416	0.0000000E+000	0.0000000E+000	0.0000000E+000	-32.3584	0.0000000E+000	0.0000000E+000	0.0000000E+000	32.3584	1.57828	57.6416	-1.65331e-06
999.682	6.18482	3.83603	7.27785	-31.8086	1179.26	0.441747	-0.00703282	41.5027	11.5301	1	38	0.00489872	0.000673099	0	-0.000219632	1.35771	0.564674	25.6293	2.17352e-05	2.21134e-05	1.70285e-05	1.87516e-05	2.1985e-05	3.99704e-05	0.437666	0.118086	4.44253	2.50694e-06	8.29003e-07	2.67422e-07	8.19054e-07	2.59543e-07	9.03531e-07	0.116767	0.0724228	0.137403	31.8086	11530.1	18590	21875.3	-58.1914	0.0000000E+000	0.0000000E+000	0.0000000E+000	58.1914	0.0000000E+000	0.0000000E+000	0.0000000E+000	-58.1914	0.0000000E+000	0.0000000E+000	0.0000000E+000	-31.8086	0.0000000E+000	0.0000000E+000	0.0000000E+000	31.8086	1.6123	58.1914	-1.21267e-06
794.239	6.81466	4.00565	7.90473	-30.447	1180.01	0.441762	-0.0067405	50.026	12.846	1	38	0.00483859	0.000612114	0	-0.000221049	1.4647	0.930829	26.2654	4.36789e-05	3.28929e-05	1.98954e-05	1.66626e-05	2.67364e-05	1.35438e-05	0.457068	0.184009	4.93207	1.69244e-06	1.60753e-06	5.64668e-07	4.51948e-07	1.08119e-06	7.07017e-07	0.109061	0.064106	0.126506	30.447	12846	21854.4	25350.2	-59.553	0.0000000E+000	0.0000000E+000	0.0000000E+000	59.553	0.0000000E+000	0.0000000E+000	0.0000000E+000	-59.553	0.0000000E+000	0.0000000E+000	0.0000000E+000	-30.447	0.0000000E+000	0.0000000E+000	0.0000000E+000	30.447	1.70126	59.553	-1.41658e-06
631.01	7.50436	4.27191	8.63508	-29.651	1180.75	0.441748	-0.00580767	59.0421	14.4502	1	38	0.00484332	0.000560889	0	-0.000221601	1.44766	0.270952	26.4537	2.69715e-05	1.30957e-05	5.11366e-05	1.98008e-05	1.89822e-05	1.93356e-05	0.497004	0.138091	5.27207	2.26794e-06	3.87713e-07	8.65166e-07	9.40713e-07	5.66922e-07	6.13565e-07	0.100642	0.0572914	0.115807	29.651	14450.2	25384.3	29209.1	-60.349	0.0000000E+000	0.0000000E+000	0.0000000E+000	60.349	0.0000000E+000	0.0000000E+000	0.0000000E+000	-60.349	0.0000000E+000	0.0000000E+000	0.0000000E+000	-29.651	0.0000000E+000	0.0000000E+000	0.0000000E+000	29.651	1.75668	60.349	-5.52216e-07
501.122	8.13731	4.47244	9.28539	-28.7941	1181.49	0.441776	-0.00473519	71.0121	16.4748	1	38	0.00480302	0.000517266	0	-0.000222247	1.22783	0.424461	26.0327	2.07815e-05	1.80564e-05	1.25786e-05	1.89443e-05	2.88802e-05	3.14843e-05	0.508884	0.119637	5.74179	2.18307e-06	9.17787e-07	2.72096e-07	5.76858e-07	6.9127e-07	6.33629e-07	0.0943801	0.0518733	0.107696	28.7941	16474.8	29974.8	34203.9	-61.2059	0.0000000E+000	0.0000000E+000	0.0000000E+000	61.2059	0.0000000E+000	0.0000000E+000	0.0000000E+000	-61.2059	0.0000000E+000	0.0000000E+000	0.0000000E+000	-28.7941	0.0000000E+000	0.0000000E+000	0.0000000E+000	28.7941	1.81944	61.2059	-6.45496e-07
398.089	8.82899	4.57842	9.9455	-27.4097	1182.24	0.441765	-0.00601621	87.3221	18.5056	1	38	0.00479512	0.000482139	0	-0.000223356	1.60014	0.651592	26.4381	1.04287e-05	2.08046e-05	1.59552e-05	3.65002e-05	4.83275e-05	3.0991e-05	0.67819	0.153843	6.09135	2.59471e-06	7.96472e-07	4.16576e-07	1.12787e-06	7.56308e-07	9.34482e-07	0.0892602	0.0462873	0.100548	27.4097	18505.6	35686	40198.8	-62.5902	0.0000000E+000	0.0000000E+000	0.0000000E+000	62.5902	0.0000000E+000	0.0000000E+000	0.0000000E+000	-62.5902	0.0000000E+000	0.0000000E+000	0.0000000E+000	-27.4097	0.0000000E+000	0.0000000E+000	0.0000000E+000	27.4097	1.92839	62.5902	-1.1089e-06
316.316	9.43662	4.80914	10.5914	-27.0046	1182.98	0.441781	-0.00485436	104.624	21.5705	1	38	0.00478103	0.000451408	0	-0.000224429	1.55737	0.52459	26.3805	1.40697e-05	2.09489e-05	3.09678e-05	1.81837e-05	3.16539e-05	4.76557e-05	0.697043	0.219612	6.57227	2.46291e-06	5.43763e-07	2.71563e-07	7.09694e-07	6.39874e-07	1.56913e-06	0.0841221	0.0428708	0.0944163	27.0046	21570.5	42326.2	47505.7	-62.9954	0.0000000E+000	0.0000000E+000	0.0000000E+000	62.9954	0.0000000E+000	0.0000000E+000	0.0000000E+000	-62.9954	0.0000000E+000	0.0000000E+000	0.0000000E+000	-27.0046	0.0000000E+000	0.0000000E+000	0.0000000E+000	27.0046	1.96223	62.9954	-1.07381e-06
251.206	10.1544	4.96511	11.3033	-26.0567	1183.72	0.441776	-0.00515041	127.603	24.6211	1	38	0.00477397	0.000422351	0	-0.000224907	1.43091	0.68838	27.1662	1.98094e-05	2.86541e-05	3.73409e-05	2.57945e-05	2.32037e-05	2.45456e-05	0.709429	0.261507	7.00611	2.43716e-06	1.1326e-06	4.14727e-07	8.10575e-07	4.02144e-07	4.09589e-07	0.0794775	0.0388613	0.0884696	26.0567	24621.1	50354.1	56051.1	-63.9433	0.0000000E+000	0.0000000E+000	0.0000000E+000	63.9433	0.0000000E+000	0.0000000E+000	0.0000000E+000	-63.9433	0.0000000E+000	0.0000000E+000	0.0000000E+000	-26.0567	0.0000000E+000	0.0000000E+000	0.0000000E+000	26.0567	2.04516	63.9433	-4.77904e-07
199.553	10.7446	5.23713	11.953	-25.9855	1184.47	0.441795	-0.00351563	152.289	29.2349	1	38	0.00474767	0.000397195	0	-0.000226001	2.08121	1.13469	26.5817	3.16057e-05	3.2624e-05	3.0031e-05	2.99171e-05	5.77484e-05	3.42758e-05	0.70881	0.342167	7.57733	2.00492e-06	8.7251e-07	7.58074e-07	1.06788e-06	5.21508e-07	7.76071e-07	0.0752034	0.0366557	0.0836612	25.9855	29234.9	59978.9	66724.5	-64.0145	0.0000000E+000	0.0000000E+000	0.0000000E+000	64.0145	0.0000000E+000	0.0000000E+000	0.0000000E+000	-64.0145	0.0000000E+000	0.0000000E+000	0.0000000E+000	-25.9855	0.0000000E+000	0.0000000E+000	0.0000000E+000	25.9855	2.05162	64.0145	-1.09378e-06
158.529	11.5369	5.60371	12.8258	-25.9068	1185.21	0.441775	-0.00426972	179.158	34.1993	1	38	0.00477533	0.000372322	0	-0.000227401	1.47024	0.671269	26.3103	2.45794e-05	3.10902e-05	2.22925e-05	3.19526e-05	3.4007e-05	1.60975e-05	0.694093	0.214053	7.86502	2.27025e-06	3.36978e-07	7.12265e-07	4.95835e-07	4.08734e-07	4.58256e-07	0.0701325	0.0340648	0.0779678	25.9068	34199.3	70409.4	78275.7	-64.0932	0.0000000E+000	0.0000000E+000	0.0000000E+000	64.0932	0.0000000E+000	0.0000000E+000	0.0000000E+000	-64.0932	0.0000000E+000	0.0000000E+000	0.0000000E+000	-25.9068	0.0000000E+000	0.0000000E+000	0.0000000E+000	25.9068	2.05879	64.0932	-1.39937e-06
125.927	12.242	5.98819	13.6281	-26.0656	1185.96	0.441779	-0.00415614	211.06	40.75	1	38	0.00476975	0.000349994	0	-0.000227908	1.16149	0.819036	26.3319	1.53554e-05	1.66608e-05	2.09567e-05	2.89495e-05	1.32457e-05	2.1701e-05	0.796554	0.179671	8.46163	2.29366e-06	6.04362e-07	3.02469e-07	1.0881e-06	7.01462e-07	3.52697e-07	0.0659147	0.0322423	0.0733779	26.0656	40750	83307.6	92740	-63.9344	0.0000000E+000	0.0000000E+000	0.0000000E+000	63.9344	0.0000000E+000	0.0000000E+000	0.0000000E+000	-63.9344	0.0000000E+000	0.0000000E+000	0.0000000E+000	-26.0656	0.0000000E+000	0.0000000E+000	0.0000000E+000	26.0656	2.04436	63.9344	-5.07706e-07
99.9682	12.9316	6.38877	14.4237	-26.2914	1186.69	0.441791	-0.00492884	249.196	48.8905	1	38	0.00473757	0.000328458	0	-0.000228813	1.26191	0.764439	26.7878	1.17917e-05	2.72702e-05	4.13121e-05	1.9467e-05	2.2442e-05	6.06398e-06	0.781456	0.31592	9.09572	2.20759e-06	5.50033e-07	3.40605e-07	8.62323e-07	2.85075e-07	3.12642e-07	0.0621585	0.030709	0.0693305	26.2914	48890.5	98959.8	110378	-63.7086	0.0000000E+000	0.0000000E+000	0.0000000E+000	63.7086	0.0000000E+000	0.0000000E+000	0.0000000E+000	-63.7086	0.0000000E+000	0.0000000E+000	0.0000000E+000	-26.2914	0.0000000E+000	0.0000000E+000	0.0000000E+000	26.2914	2.02411	63.7086	-9.04851e-07