File: Python/Data/GoldElectrode/240322/Gold/240322-CVEIS-Activation-5mM_Fe2Fe3-1M_H2SO4-0000RPM-Ag_AgCl_BLF8-Au_RDE_01_CV_C15.mpt
EC-Lab ASCII FILE
Nb header lines : 60

Cyclic Voltammetry

Run on channel : 15 (SN 19485)
User :
Electrode connection : standard
Potential control : Ewe
Ewe ctrl range : min = -2.50 V, max = 2.50 V
Ewe,I filtering : 50 kHz
Safety Limits :
	Do not start on E overload
Channel : Floating
Acquisition started on : 03/22/2024 10:02:07.151
Loaded Setting File :  C:\Data\mathias\GoldElectrode\240321-CVEIS-Activation-5mM_Fe2Fe3-1M_H2SO4-0000RPM-Ag_AgCl_BLF8-Au_RDE.mps
Saved on :
	File : 240322-CVEIS-Activation-5mM_Fe2Fe3-1M_H2SO4-0000RPM-Ag_AgCl_BLF8-Au_RDE_01_CV_C15.mpr
	Directory : C:\Data\mathias\GoldElectrode\
	Host : 192.168.0.1
Device : VMP-300 (SN 0826)
Address : USB
EC-Lab for windows v11.52 (software)
Internet server v11.52 (firmware)
Command interpretor v11.52 (firmware)
Electrode material :
Initial state :
Electrolyte :
Comments :
Cable : special
Electrode surface area : 0.001 cm²
Characteristic mass : 0.001 g
Equivalent Weight : 0.000 g/eq.
Density : 0.000 g/cm3
Volume (V) : 0.001 cm³
Record EIS quality indicators
Cycle Definition : Charge/Discharge alternance
Ei (V)              0.000
vs.                 Eoc
dE/dt               200.000
dE/dt unit          mV/s
E1 (V)              1.500
vs.                 Ref
Step percent        50
N                   10
E range min (V)     -2.500
E range max (V)     2.500
I Range             Auto
I Range min         Unset
I Range max         Unset
I Range init        Unset
Bandwidth           8
E2 (V)              -0.300
vs.                 Ref
nc cycles           0
Reverse Scan        1
Ef (V)              0.000
vs.                 Eoc

mode	ox/red	error	control changes	counter inc.	time/s	control/V	Ewe/V	<I>/mA	cycle number	(Q-Qo)/C	I Range	step time/s	P/W
2	1	1	0	0	0.000000000000000E+000	0.442938	0.441928	0.000411872	1	0.0000000E+000	43	0.000000000000000E+000	1.82018e-07
2	1	0	1	0	0.0578	0.454482	0.454221	0.00250403	1	9.16191e-08	42	0.04	1.13738e-06
2	1	0	1	0	0.0878	0.460479	0.460261	0.00302153	1	1.75137e-07	42	0.07	1.39069e-06
2	1	0	1	0	0.1178	0.466476	0.466237	0.00344157	1	2.72001e-07	42	0.1	1.60459e-06
2	1	0	1	0	0.1478	0.472473	0.472242	0.00388046	1	3.81663e-07	42	0.13	1.83251e-06
2	1	0	1	0	0.1778	0.478469	0.478226	0.00427872	1	5.03998e-07	42	0.16	2.04619e-06
2	1	0	1	0	0.2077	0.484466	0.48423	0.00474207	1	6.39063e-07	42	0.1899	2.29625e-06
2	1	0	1	0	0.2377	0.490463	0.490229	0.00519412	1	7.88151e-07	42	0.2199	2.54631e-06
2	1	0	1	0	0.2677	0.49646	0.496197	0.00571171	1	9.51891e-07	42	0.2499	2.83414e-06
2	1	0	1	0	0.2977	0.502457	0.502209	0.00627148	1	1.13173e-06	42	0.2799	3.14959e-06
2	1	0	1	0	0.3277	0.508454	0.508211	0.00692169	1	1.32947e-06	42	0.3099	3.51768e-06
2	1	0	1	0	0.3577	0.514451	0.514201	0.00762689	1	1.54762e-06	42	0.3399	3.92175e-06
2	1	0	1	0	0.3876	0.520439	0.520177	0.00851676	1	1.78853e-06	42	0.3698	4.43022e-06
2	1	0	1	0	0.4176	0.526445	0.526173	0.00947181	1	2.05826e-06	42	0.3998	4.98381e-06
2	1	0	1	0	0.4476	0.532442	0.532157	0.0107445	1	2.36132e-06	42	0.4298	5.71776e-06
2	1	0	1	0	0.5076	0.544436	0.544189	0.0141189	1	3.07658e-06	41	0.4898	7.68337e-06
2	1	0	1	0	0.5376	0.550433	0.55021	0.0163975	1	3.53309e-06	41	0.5198	9.02207e-06
2	1	0	1	0	0.5676	0.55643	0.556186	0.0192267	1	4.06631e-06	41	0.5498	1.06936e-05
2	1	0	1	0	0.5975	0.562427	0.562187	0.0226691	1	4.69167e-06	41	0.5797	1.27443e-05
2	1	0	1	0	0.6275	0.568423	0.568172	0.0268857	1	5.43356e-06	41	0.6097	1.52757e-05
2	1	0	1	0	0.6575	0.57442	0.574155	0.0318663	1	6.31327e-06	41	0.6397	1.82962e-05
2	1	0	1	0	0.6875	0.580417	0.580155	0.0377565	1	7.35627e-06	41	0.6697	2.19046e-05
2	1	0	1	0	0.7175	0.586414	0.586161	0.044534	1	8.58933e-06	41	0.6997	2.61041e-05
2	1	0	1	0	0.7475	0.592411	0.592145	0.052275	1	1.00399e-05	41	0.7297	3.09544e-05
2	1	0	1	0	0.7774	0.59839	0.598133	0.0607812	1	1.17287e-05	41	0.7596	3.63552e-05
2	1	0	1	0	0.8074	0.604405	0.604135	0.0702313	1	1.36937e-05	41	0.7896	4.24292e-05
2	1	0	1	0	0.8374	0.610402	0.610138	0.0803465	1	1.59522e-05	41	0.8196	4.90224e-05
2	1	0	1	0	0.8674	0.616399	0.616127	0.0911281	1	1.85245e-05	41	0.8496	5.61465e-05
2	1	0	1	0	0.8974	0.622396	0.622124	0.102359	1	2.14272e-05	41	0.8796	6.368e-05
2	1	0	1	0	0.9574	0.63439	0.634152	0.12578	1	2.80935e-05	40	0.9396	7.97635e-05
2	1	0	1	0	0.9873	0.640387	0.640152	0.137597	1	3.20322e-05	40	0.9695	8.80829e-05
2	1	0	1	0	1.0173	0.646384	0.646148	0.149268	1	3.63372e-05	40	0.9995	9.64494e-05
2	1	0	1	0	1.0473	0.652381	0.652137	0.1607	1	4.09888e-05	40	1.0295	0.000104799
2	1	0	1	0	1.0773	0.658378	0.658131	0.17171	1	4.59776e-05	40	1.0595	0.000113008
2	1	0	1	0	1.1073	0.664375	0.66413	0.182122	1	5.12883e-05	40	1.0895	0.000120953
2	1	0	1	0	1.1373	0.670371	0.670131	0.191824	1	5.69008e-05	40	1.1195	0.000128547
2	1	0	1	0	1.1673	0.676368	0.676144	0.200701	1	6.27923e-05	40	1.1495	0.000135703
2	1	0	1	0	1.1972	0.682365	0.68214	0.208673	1	6.89166e-05	40	1.1794	0.000142344
2	1	0	1	0	1.2272	0.688362	0.688132	0.215569	1	7.52831e-05	40	1.2094	0.00014834
2	1	0	1	0	1.2572	0.694359	0.694129	0.221346	1	8.18407e-05	40	1.2394	0.000153643
2	1	0	1	0	1.2872	0.700356	0.700106	0.226043	1	8.85552e-05	40	1.2694	0.000158254
2	1	0	1	0	1.3172	0.706353	0.706121	0.229627	1	9.53939e-05	40	1.2994	0.000162145
2	1	0	1	0	1.3472	0.71235	0.712111	0.232148	1	0.000102323	40	1.3294	0.000165315
2	1	0	1	0	1.3771	0.718347	0.718107	0.233638	1	0.000109288	40	1.3593	0.000167777
2	1	0	1	0	1.4071	0.724344	0.724096	0.234069	1	0.000116306	40	1.3893	0.000169488
2	1	0	1	0	1.4371	0.730341	0.730111	0.233703	1	0.000123326	40	1.4193	0.000170629
2	1	0	1	0	1.4671	0.736338	0.736106	0.232527	1	0.000130321	40	1.4493	0.000171164
2	1	0	1	0	1.4971	0.742335	0.742092	0.230637	1	0.00013727	40	1.4793	0.000171154
2	1	0	1	0	1.5271	0.748332	0.748089	0.2282	1	0.000144154	40	1.5093	0.000170714
2	1	0	1	0	1.5571	0.754329	0.754081	0.225278	1	0.000150957	40	1.5393	0.000169878
2	1	0	1	0	1.587	0.760326	0.760078	0.22205	1	0.000157645	40	1.5692	0.000168775
2	1	0	1	0	1.617	0.766323	0.766079	0.218413	1	0.000164251	40	1.5992	0.000167322
2	1	0	1	0	1.647	0.77232	0.772083	0.214585	1	0.000170746	40	1.6292	0.000165677
2	1	0	1	0	1.677	0.778317	0.778081	0.210591	1	0.000177123	40	1.6592	0.000163857
2	1	0	1	0	1.707	0.784313	0.784061	0.206529	1	0.000183379	40	1.6892	0.000161932
2	1	0	1	0	1.737	0.79031	0.79008	0.202436	1	0.000189512	40	1.7192	0.000159941
2	1	0	1	0	1.7669	0.796307	0.796077	0.19836	1	0.000195504	40	1.7491	0.00015791
2	1	0	1	0	1.7969	0.802304	0.802054	0.194326	1	0.000201393	40	1.7791	0.00015586
2	1	0	1	0	1.8269	0.808301	0.808066	0.190374	1	0.000207162	40	1.8091	0.000153835
2	1	0	1	0	1.8569	0.814298	0.81407	0.186506	1	0.000212815	40	1.8391	0.000151829
2	1	0	1	0	1.8869	0.820295	0.820059	0.182779	1	0.000218353	40	1.8691	0.00014989
2	1	0	1	0	1.9169	0.826292	0.826065	0.179161	1	0.000223781	40	1.8991	0.000147999
2	1	0	1	0	1.9469	0.832289	0.83207	0.175715	1	0.000229103	40	1.9291	0.000146207
2	1	0	1	0	1.9768	0.838286	0.838064	0.172347	1	0.000234306	40	1.959	0.000144438
2	1	0	1	0	2.0068	0.844283	0.84405	0.16919	1	0.000239428	40	1.989	0.000142804
2	1	0	1	0	2.0368	0.85028	0.850048	0.166113	1	0.000244456	40	2.019	0.000141204
2	1	0	1	0	2.0668	0.856277	0.856063	0.163186	1	0.000249394	40	2.049	0.000139697
2	1	0	1	0	2.0968	0.862274	0.862053	0.160397	1	0.000254246	40	2.079	0.00013827
2	1	0	1	0	2.1268	0.868271	0.868036	0.157726	1	0.000259017	40	2.109	0.000136912
2	1	0	1	0	2.1567	0.874268	0.87404	0.155223	1	0.000263695	40	2.1389	0.000135671
2	1	0	1	0	2.1867	0.880265	0.880044	0.152777	1	0.000268314	40	2.1689	0.00013445
2	1	0	1	0	2.2167	0.886261	0.88603	0.150481	1	0.000272862	40	2.1989	0.000133331
2	1	0	1	0	2.2467	0.892258	0.892029	0.148298	1	0.000277343	40	2.2289	0.000132286
2	1	0	1	0	2.2767	0.898255	0.898023	0.14619	1	0.00028176	40	2.2589	0.000131282
2	1	0	1	0	2.3067	0.904252	0.904019	0.144176	1	0.000286116	40	2.2889	0.000130338
2	1	0	1	0	2.3367	0.910249	0.91001	0.142293	1	0.000290413	40	2.3189	0.000129488
2	1	0	1	0	2.3666	0.916246	0.916016	0.140497	1	0.00029464	40	2.3488	0.000128698
2	1	0	1	0	2.3966	0.922243	0.922003	0.138762	1	0.000298828	40	2.3788	0.000127939
2	1	0	1	0	2.4266	0.92824	0.928009	0.137112	1	0.000302965	40	2.4088	0.000127242
2	1	0	1	0	2.4566	0.934237	0.934005	0.135476	1	0.000307053	40	2.4388	0.000126535
2	1	0	1	0	2.4866	0.940234	0.940008	0.133934	1	0.000311093	40	2.4688	0.000125899
2	1	0	1	0	2.5166	0.946231	0.945998	0.132448	1	0.000315089	40	2.4988	0.000125296
2	1	0	1	0	2.5466	0.952246	0.952015	0.131145	1	0.000319042	40	2.5288	0.000124852
2	1	0	1	0	2.5765	0.958225	0.957989	0.129719	1	0.00032294	40	2.5587	0.000124269
2	1	0	1	0	2.6065	0.964222	0.963978	0.128461	1	0.000326813	40	2.5887	0.000123834
2	1	0	1	0	2.6365	0.970219	0.969984	0.1272	1	0.000330647	40	2.6187	0.000123382
2	1	0	1	0	2.6665	0.976216	0.975987	0.126018	1	0.000334446	40	2.6487	0.000122992
2	1	0	1	0	2.6965	0.982212	0.981979	0.124898	1	0.000338209	40	2.6787	0.000122648
2	1	0	1	0	2.7265	0.988209	0.987967	0.123817	1	0.00034194	40	2.7087	0.000122327
2	1	0	1	0	2.7564	0.994206	0.993976	0.122756	1	0.000345627	40	2.7386	0.000122016
2	1	0	1	0	2.7864	1.0002	0.999966	0.121798	1	0.000349295	40	2.7686	0.000121794
2	1	0	1	0	2.8164	1.0062	1.00595	0.120826	1	0.000352935	40	2.7986	0.000121545
2	1	0	1	0	2.8464	1.0122	1.01194	0.119936	1	0.000356546	40	2.8286	0.000121369
2	1	0	1	0	2.8764	1.01819	1.01793	0.119068	1	0.000360131	40	2.8586	0.000121203
2	1	0	1	0	2.9064	1.02419	1.02395	0.118223	1	0.00036369	40	2.8886	0.000121054
2	1	0	1	0	2.9364	1.03019	1.02994	0.117436	1	0.000367224	40	2.9186	0.000120952
2	1	0	1	0	2.9663	1.03618	1.03595	0.11663	1	0.000370724	40	2.9485	0.000120823
2	1	0	1	0	2.9963	1.04218	1.04193	0.115893	1	0.000374212	40	2.9785	0.000120753
2	1	0	1	0	3.0263	1.04818	1.04796	0.115173	1	0.000377678	40	3.0085	0.000120697
2	1	0	1	0	3.0563	1.05418	1.05394	0.114497	1	0.000381123	40	3.0385	0.000120673
2	1	0	1	0	3.0863	1.06017	1.05993	0.11388	1	0.000384548	40	3.0685	0.000120705
2	1	0	1	0	3.1163	1.06617	1.06594	0.113209	1	0.000387953	40	3.0985	0.000120675
2	1	0	1	0	3.1462	1.07217	1.07194	0.112653	1	0.00039133	40	3.1284	0.000120757
2	1	0	1	0	3.1762	1.07816	1.07793	0.112071	1	0.000394701	40	3.1584	0.000120805
2	1	0	1	0	3.2062	1.08416	1.08393	0.11158	1	0.000398056	40	3.1884	0.000120945
2	1	0	1	0	3.2362	1.09016	1.08993	0.111141	1	0.000401397	40	3.2184	0.000121136
2	1	0	1	0	3.2662	1.09615	1.09591	0.110718	1	0.000404724	40	3.2484	0.000121337
2	1	0	1	0	3.2962	1.10215	1.1019	0.110332	1	0.00040804	40	3.2784	0.000121575
2	1	0	1	0	3.3262	1.10815	1.10791	0.110017	1	0.000411345	40	3.3084	0.000121889
2	1	0	1	0	3.3561	1.11415	1.11392	0.109792	1	0.000414632	40	3.3383	0.0001223
2	1	0	1	0	3.3861	1.12014	1.11991	0.109635	1	0.000417923	40	3.3683	0.000122781
2	1	0	1	0	3.4161	1.12614	1.12592	0.109574	1	0.000421212	40	3.3983	0.000123372
2	1	0	1	0	3.4461	1.13214	1.1319	0.109597	1	0.000424498	40	3.4283	0.000124054
2	1	0	1	0	3.4761	1.13813	1.13791	0.109745	1	0.000427788	40	3.4583	0.00012488
2	1	0	1	0	3.5061	1.14413	1.1439	0.110074	1	0.000431085	40	3.4883	0.000125914
2	1	0	1	0	3.536	1.15013	1.14991	0.110583	1	0.000434383	40	3.5182	0.00012716
2	1	0	1	0	3.566	1.15612	1.15588	0.111258	1	0.000437709	40	3.5482	0.000128602
2	1	0	1	0	3.596	1.16212	1.16186	0.112241	1	0.000441061	40	3.5782	0.000130409
2	1	0	1	0	3.626	1.16812	1.16788	0.11358	1	0.000444448	40	3.6082	0.000132648
2	1	0	1	0	3.656	1.17411	1.17387	0.115372	1	0.000447881	40	3.6382	0.000135432
2	1	0	1	0	3.686	1.18011	1.17987	0.117561	1	0.000451374	40	3.6682	0.000138707
2	1	0	1	0	3.716	1.18611	1.18587	0.120277	1	0.000454942	40	3.6982	0.000142633
2	1	0	1	0	3.7459	1.19211	1.19187	0.123493	1	0.000458586	40	3.7281	0.000147188
2	1	0	1	0	3.7759	1.1981	1.19787	0.12713	1	0.000462345	40	3.7581	0.000152284
2	1	0	1	0	3.8059	1.2041	1.20386	0.131171	1	0.000466219	40	3.7881	0.000157912
2	1	0	1	0	3.8359	1.2101	1.20984	0.135556	1	0.00047022	40	3.8181	0.000164002
2	1	0	1	0	3.8659	1.21609	1.21586	0.140232	1	0.000474357	40	3.8481	0.000170502
2	1	0	1	0	3.8959	1.22209	1.22184	0.145119	1	0.000478637	40	3.8781	0.000177312
2	1	0	1	0	3.9258	1.22809	1.22785	0.150268	1	0.000483052	40	3.908	0.000184506
2	1	0	1	0	3.9558	1.23408	1.23384	0.155514	1	0.000487639	40	3.938	0.00019188
2	1	0	1	0	3.9858	1.24008	1.23984	0.160944	1	0.000492386	40	3.968	0.000199545
2	1	0	1	0	4.0158	1.24608	1.24584	0.166556	1	0.000497298	40	3.998	0.000207502
2	1	0	1	0	4.0458	1.25207	1.25182	0.17216	1	0.000502378	40	4.028	0.000215515
2	1	0	1	0	4.0758	1.25807	1.25783	0.177871	1	0.00050763	40	4.058	0.00022373
2	1	0	1	0	4.1058	1.26407	1.26381	0.183507	1	0.000513052	40	4.088	0.000231918
2	1	0	1	0	4.1357	1.27007	1.26982	0.18911	1	0.000518626	40	4.1179	0.000240136
2	1	0	1	0	4.1657	1.27606	1.27582	0.194433	1	0.000524381	40	4.1479	0.000248061
2	1	0	1	0	4.1957	1.28206	1.28181	0.199565	1	0.000530292	40	4.1779	0.000255806
2	1	0	1	0	4.2257	1.28806	1.28781	0.204263	1	0.000536351	40	4.2079	0.000263053
2	1	0	1	0	4.2557	1.29405	1.2938	0.208626	1	0.000542546	40	4.2379	0.000269921
2	1	0	1	0	4.2857	1.30005	1.2998	0.212572	1	0.000548865	40	4.2679	0.0002763
2	1	0	1	0	4.3156	1.30605	1.30581	0.216244	1	0.000555276	40	4.2978	0.000282374
2	1	0	1	0	4.3456	1.31204	1.3118	0.21937	1	0.000561811	40	4.3278	0.000287769
2	1	0	1	0	4.3756	1.31804	1.3178	0.222242	1	0.000568435	40	4.3578	0.000292871
2	1	0	1	0	4.4056	1.32404	1.32379	0.224654	1	0.00057514	40	4.3878	0.000297394
2	1	0	1	0	4.4356	1.33004	1.3298	0.226888	1	0.000581914	40	4.4178	0.000301715
2	1	0	1	0	4.4656	1.33603	1.3358	0.228833	1	0.00058875	40	4.4478	0.000305675
2	1	0	1	0	4.4956	1.34203	1.34178	0.230534	1	0.00059564	40	4.4778	0.000309327
2	1	0	1	0	4.5255	1.34803	1.34779	0.232036	1	0.000602556	40	4.5077	0.000312736
2	1	0	1	0	4.5555	1.35402	1.35377	0.233258	1	0.000609536	40	4.5377	0.000315777
2	1	0	1	0	4.5855	1.36002	1.35977	0.234333	1	0.000616551	40	4.5677	0.000318638
2	1	0	1	0	4.6155	1.36602	1.36576	0.235228	1	0.000623596	40	4.5977	0.000321264
2	1	0	1	0	4.6455	1.37201	1.37176	0.235938	1	0.000630665	40	4.6277	0.000323652
2	1	0	1	0	4.6755	1.37801	1.37777	0.236486	1	0.000637751	40	4.6577	0.000325822
2	1	0	1	0	4.7054	1.384	1.38377	0.23687	1	0.000644827	40	4.6876	0.000327774
2	1	0	1	0	4.7354	1.39	1.38975	0.236923	1	0.000651934	40	4.7176	0.000329265
2	1	0	1	0	4.7654	1.396	1.39576	0.23679	1	0.000659041	40	4.7476	0.000330502
2	1	0	1	0	4.7954	1.402	1.40177	0.236495	1	0.000666141	40	4.7776	0.000331511
2	1	0	1	0	4.8254	1.408	1.40776	0.236023	1	0.000673229	40	4.8076	0.000332263
2	1	0	1	0	4.8554	1.41399	1.41372	0.235433	1	0.0006803	40	4.8376	0.000332835
2	1	0	1	0	4.8854	1.41999	1.41974	0.234768	1	0.000687352	40	4.8676	0.00033331
2	1	0	1	0	4.9153	1.42599	1.42574	0.234143	1	0.000694362	40	4.8975	0.000333827
2	1	0	1	0	4.9453	1.43198	1.43175	0.23351	1	0.000701376	40	4.9275	0.000334328
2	1	0	1	0	4.9753	1.43798	1.43774	0.232936	1	0.000708372	40	4.9575	0.000334901
2	1	0	1	0	5.0053	1.44398	1.44373	0.232433	1	0.000715352	40	4.9875	0.000335571
2	1	0	1	0	5.0353	1.44997	1.44973	0.232059	1	0.00072232	40	5.0175	0.000336423
2	1	0	1	0	5.0653	1.45597	1.45574	0.231774	1	0.000729277	40	5.0475	0.000337402
2	1	0	1	0	5.0952	1.46195	1.46172	0.231661	1	0.000736205	40	5.0774	0.000338623
2	1	0	1	0	5.1252	1.46796	1.46771	0.231648	1	0.000743155	40	5.1074	0.000339994
2	1	0	1	0	5.1552	1.47396	1.47374	0.231761	1	0.000750105	40	5.1374	0.000341556
2	1	0	1	0	5.1852	1.47996	1.47972	0.231951	1	0.000757059	40	5.1674	0.000343222
2	1	0	1	0	5.2152	1.48596	1.4857	0.232273	1	0.000764023	40	5.1974	0.000345089
2	1	0	1	0	5.2452	1.49195	1.49171	0.232742	1	0.000770998	40	5.2274	0.000347184
2	1	0	1	0	5.2752	1.49795	1.49771	0.23333	1	0.000777989	40	5.2574	0.00034946
2	1	0	1	0	5.2937	1.49835	1.49805	0.221562	1	0.000782241	40	5.2759	0.000331912
2	1	0	1	0	5.3237	1.49235	1.49205	0.1954	1	0.000788474	40	5.3059	0.000291548
2	1	0	1	0	5.3537	1.48636	1.48606	0.175145	1	0.000794018	40	5.3359	0.000260275
2	1	0	1	0	5.3837	1.48036	1.48005	0.158911	1	0.000799017	40	5.3659	0.000235197
2	1	0	1	0	5.4137	1.47436	1.47406	0.145666	1	0.000803577	40	5.3959	0.000214721
2	1	0	1	0	5.4437	1.46836	1.46809	0.134719	1	0.000807777	40	5.4259	0.000197779
2	1	0	1	0	5.4736	1.46238	1.46209	0.125522	1	0.000811663	40	5.4558	0.000183525
2	1	0	1	0	5.5036	1.45637	1.45609	0.117763	1	0.000815309	40	5.4858	0.000171474
2	1	0	1	0	5.5336	1.45037	1.45008	0.111152	1	0.000818739	40	5.5158	0.000161179
2	1	0	1	0	5.5636	1.44438	1.44408	0.105392	1	0.000821984	40	5.5458	0.000152195
2	1	0	1	0	5.5936	1.43838	1.43808	0.100444	1	0.000825069	40	5.5758	0.000144447
2	1	0	1	0	5.6236	1.43238	1.4321	0.0960653	1	0.000828014	40	5.6058	0.000137576
2	1	0	1	0	5.6536	1.42639	1.42608	0.0922916	1	0.000830838	40	5.6358	0.000131615
2	1	0	1	0	5.6835	1.42039	1.42008	0.0888736	1	0.000833544	40	5.6657	0.000126208
2	1	0	1	0	5.7135	1.41439	1.4141	0.0858821	1	0.000836165	40	5.6957	0.000121446
2	1	0	1	0	5.7435	1.4084	1.4081	0.0832334	1	0.000838701	40	5.7257	0.000117201
2	1	0	1	0	5.7735	1.4024	1.40209	0.0808445	1	0.000841161	40	5.7557	0.000113352
2	1	0	1	0	5.8035	1.3964	1.39611	0.0787153	1	0.000843554	40	5.7857	0.000109895
2	1	0	1	0	5.8335	1.3904	1.3901	0.0768028	1	0.000845885	40	5.8157	0.000106763
2	1	0	1	0	5.8635	1.38441	1.3841	0.0750067	1	0.000848162	40	5.8457	0.000103817
2	1	0	1	0	5.8934	1.37841	1.3781	0.0734399	1	0.00085038	40	5.8756	0.000101208
2	1	0	1	0	5.9234	1.37241	1.37211	0.0719669	1	0.000852561	40	5.9056	9.87468e-05
2	1	0	1	0	5.9534	1.36642	1.36612	0.0706641	1	0.000854701	40	5.9356	9.65354e-05
2	1	0	1	0	5.9834	1.36042	1.36012	0.0694709	1	0.000856802	40	5.9656	9.44888e-05
2	1	0	1	0	6.0134	1.35442	1.35411	0.0683227	1	0.000858869	40	5.9956	9.25167e-05
2	1	0	1	0	6.0434	1.34843	1.34812	0.0673047	1	0.000860904	40	6.0256	9.07346e-05
2	1	0	1	0	6.0733	1.34243	1.34212	0.0663726	1	0.000862902	40	6.0555	8.90803e-05
2	1	0	1	0	6.1033	1.33643	1.33613	0.0654841	1	0.000864879	40	6.0855	8.74952e-05
2	1	0	1	0	6.1333	1.33043	1.33014	0.0647131	1	0.000866832	40	6.1155	8.60774e-05
2	1	0	1	0	6.1633	1.32444	1.32414	0.0639021	1	0.00086876	40	6.1455	8.46155e-05
2	1	0	1	0	6.1933	1.31844	1.31814	0.0631677	1	0.000870665	40	6.1755	8.32637e-05
2	1	0	1	0	6.2233	1.31244	1.31215	0.0624974	1	0.00087255	40	6.2055	8.20063e-05
2	1	0	1	0	6.2533	1.30645	1.30616	0.0618819	1	0.000874415	40	6.2355	8.08277e-05
2	1	0	1	0	6.2832	1.30045	1.30016	0.0611971	1	0.000876255	40	6.2654	7.95662e-05
2	1	0	1	0	6.3132	1.29445	1.29414	0.0606967	1	0.000878084	40	6.2954	7.85503e-05
2	1	0	1	0	6.3432	1.28846	1.28817	0.0601347	1	0.000879896	40	6.3254	7.74638e-05
2	1	0	1	0	6.3732	1.28246	1.28216	0.0596063	1	0.000881692	40	6.3554	7.64248e-05
2	1	0	1	0	6.4032	1.27646	1.27616	0.0590812	1	0.000883472	40	6.3854	7.53968e-05
2	1	0	1	0	6.4332	1.27047	1.27018	0.0586473	1	0.000885239	40	6.4154	7.4493e-05
2	1	0	1	0	6.4631	1.26447	1.26418	0.058162	1	0.000886985	40	6.4453	7.35271e-05
2	1	0	1	0	6.4931	1.25847	1.25818	0.0577462	1	0.000888723	40	6.4753	7.26549e-05
2	1	0	1	0	6.5231	1.25247	1.25219	0.057296	1	0.000890449	40	6.5053	7.17457e-05
2	1	0	1	0	6.5531	1.24648	1.24618	0.0568538	1	0.000892162	40	6.5353	7.08498e-05
2	1	0	1	0	6.5831	1.24048	1.24019	0.0564511	1	0.000893862	40	6.5653	7.00099e-05
2	1	0	1	0	6.6131	1.23448	1.23418	0.056072	1	0.00089555	40	6.5953	6.92027e-05
2	1	0	1	0	6.6431	1.22849	1.22818	0.0556454	1	0.000897226	40	6.6253	6.83425e-05
2	1	0	1	0	6.673	1.22249	1.22219	0.0552698	1	0.000898884	40	6.6552	6.75502e-05
2	1	0	1	0	6.703	1.21649	1.21618	0.0548432	1	0.000900536	40	6.6852	6.66994e-05
2	1	0	1	0	6.733	1.2105	1.2102	0.0544467	1	0.000902175	40	6.7152	6.58914e-05
2	1	0	1	0	6.763	1.2045	1.2042	0.0540376	1	0.000903803	40	6.7452	6.5072e-05
2	1	0	1	0	6.793	1.1985	1.19821	0.0536306	1	0.000905418	40	6.7752	6.42606e-05
2	1	0	1	0	6.823	1.19251	1.19221	0.0532057	1	0.000907021	40	6.8052	6.34325e-05
2	1	0	1	0	6.8529	1.18651	1.1862	0.0527708	1	0.000908606	40	6.8351	6.25969e-05
2	1	0	1	0	6.8829	1.18051	1.18023	0.0523485	1	0.000910183	40	6.8651	6.1783e-05
2	1	0	1	0	6.9129	1.17451	1.17421	0.0518999	1	0.000911746	40	6.8951	6.09416e-05
2	1	0	1	0	6.9429	1.16852	1.16823	0.0514458	1	0.000913297	40	6.9251	6.01005e-05
2	1	0	1	0	6.9729	1.16252	1.16222	0.0509357	1	0.000914832	40	6.9551	5.91985e-05
2	1	0	1	0	7.0029	1.15652	1.15623	0.050385	1	0.000916352	40	6.9851	5.82565e-05
2	1	0	1	0	7.0329	1.15053	1.15023	0.0498577	1	0.000917857	40	7.0151	5.73478e-05
2	1	0	1	0	7.0628	1.14453	1.14426	0.0492957	1	0.00091934	40	7.045	5.6407e-05
2	1	0	1	0	7.0928	1.13853	1.13823	0.0487179	1	0.000920811	40	7.075	5.54523e-05
2	1	0	1	0	7.1228	1.13254	1.13224	0.0480702	1	0.000922264	40	7.105	5.44269e-05
2	1	0	1	0	7.1528	1.12654	1.12626	0.0474156	1	0.000923697	40	7.135	5.34023e-05
2	1	0	1	0	7.1828	1.12054	1.12026	0.0467546	1	0.00092511	40	7.165	5.23775e-05
2	1	0	1	0	7.2128	1.11454	1.11426	0.0460145	1	0.000926501	40	7.195	5.12722e-05
2	1	0	1	0	7.2427	1.10855	1.10825	0.0451172	1	0.000927864	40	7.2249	5.00012e-05
2	1	0	1	0	7.3027	1.09655	1.09627	0.0434843	1	0.000930542	41	7.2849	4.76706e-05
2	1	0	1	0	7.3327	1.09056	1.09026	0.0424778	1	0.000931832	41	7.3149	4.63117e-05
2	1	0	1	0	7.3627	1.08456	1.08426	0.0413714	1	0.00093309	41	7.3449	4.48573e-05
2	1	0	1	0	7.3927	1.07856	1.07824	0.0402367	1	0.000934315	41	7.3749	4.3385e-05
2	1	0	1	0	7.4227	1.07257	1.07228	0.0389851	1	0.000935503	41	7.4049	4.18031e-05
2	1	0	1	0	7.4526	1.06657	1.06628	0.0376119	1	0.000936648	41	7.4348	4.01048e-05
2	1	0	1	0	7.4826	1.06057	1.06029	0.0360995	1	0.000937755	41	7.4648	3.8276e-05
2	1	0	1	0	7.5126	1.05458	1.05429	0.0345021	1	0.000938815	41	7.4948	3.63753e-05
2	1	0	1	0	7.5426	1.04858	1.04829	0.0327119	1	0.000939823	41	7.5248	3.42915e-05
2	1	0	1	0	7.5726	1.04258	1.04231	0.0307387	1	0.000940775	41	7.5548	3.20392e-05
2	1	0	1	0	7.6026	1.03658	1.03631	0.0285703	1	0.000941665	41	7.5848	2.96078e-05
2	1	0	1	0	7.6326	1.03057	1.03028	0.0260579	1	0.000942485	41	7.6148	2.6847e-05
2	1	0	1	0	7.6625	1.02459	1.0243	0.0234453	1	0.000943227	41	7.6447	2.40151e-05
2	1	0	1	0	7.6925	1.01859	1.01829	0.0204178	1	0.000943885	41	7.6747	2.07913e-05
2	1	0	1	0	7.7225	1.0126	1.01232	0.0170382	1	0.000944448	41	7.7047	1.7248e-05
2	1	0	1	0	7.7525	1.0066	1.00631	0.0132449	1	0.000944903	41	7.7347	1.33285e-05
2	1	0	1	0	7.7825	1.0006	1.00031	0.00899784	1	0.000945238	41	7.7647	9.00065e-06
2	1	0	1	0	7.8125	0.994606	0.994336	0.00415109	1	0.000945435	41	7.7947	4.12758e-06
2	0	0	1	0	7.8424	0.988609	0.988339	-0.00143029	1	0.000945477	41	0.005	-1.41361e-06
2	0	0	1	0	7.8724	0.982612	0.982349	-0.00772529	1	0.000945341	41	0.035	-7.58893e-06
2	0	0	1	0	7.9024	0.976615	0.976344	-0.0149465	1	0.000945002	41	0.065	-1.45929e-05
2	0	0	1	0	7.9324	0.970618	0.970365	-0.0232665	1	0.000944431	41	0.095	-2.2577e-05
2	0	0	1	0	7.9624	0.964622	0.964354	-0.0327815	1	0.000943592	41	0.125	-3.16129e-05
2	0	0	1	0	7.9924	0.958625	0.958363	-0.0436444	1	0.000942448	41	0.155	-4.18272e-05
2	0	0	1	0	8.0224	0.952628	0.952386	-0.0560317	1	0.000940955	41	0.185	-5.33638e-05
2	0	0	1	0	8.0523	0.946631	0.946388	-0.0701299	1	0.00093907	41	0.2149	-6.63701e-05
2	0	0	1	0	8.0823	0.940634	0.940411	-0.0857409	1	0.000936734	41	0.2449	-8.06316e-05
2	0	0	1	0	8.1123	0.934637	0.934416	-0.102931	1	0.000933905	41	0.2749	-9.61805e-05
2	0	0	1	0	8.1723	0.922643	0.922357	-0.140551	1	0.000926889	40	0.3349	-0.000129639
2	0	0	1	0	8.2023	0.916646	0.916366	-0.159062	1	0.00092239	40	0.3649	-0.000145759
2	0	0	1	0	8.2322	0.910649	0.910354	-0.176096	1	0.000917372	40	0.3948	-0.00016031
2	0	0	1	0	8.2622	0.904652	0.90436	-0.189939	1	0.000911871	40	0.4248	-0.000171773
2	0	0	1	0	8.2922	0.898655	0.898355	-0.199367	1	0.000906017	40	0.4548	-0.000179103
2	0	0	1	0	8.3222	0.892658	0.892366	-0.203249	1	0.000899963	40	0.4848	-0.000181372
2	0	0	1	0	8.3522	0.886661	0.886377	-0.201318	1	0.000893881	40	0.5148	-0.000178444
2	0	0	1	0	8.3822	0.880664	0.880363	-0.193651	1	0.000887946	40	0.5448	-0.000170483
2	0	0	1	0	8.4122	0.874667	0.874381	-0.181281	1	0.000882314	40	0.5748	-0.000158509
2	0	0	1	0	8.4421	0.86867	0.868393	-0.165694	1	0.000877123	40	0.6047	-0.000143888
2	0	0	1	0	8.4721	0.862674	0.862394	-0.147919	1	0.000872419	40	0.6347	-0.000127565
2	0	0	1	0	8.5021	0.856677	0.856414	-0.129596	1	0.000868259	40	0.6647	-0.000110988
2	0	0	1	0	8.5321	0.85068	0.850396	-0.111808	1	0.000864642	40	0.6947	-9.50813e-05
2	0	0	1	0	8.5621	0.844683	0.844395	-0.0951095	1	0.000861544	40	0.7247	-8.031e-05
2	0	0	1	0	8.5921	0.838686	0.838408	-0.0799612	1	0.000858924	40	0.7547	-6.70402e-05
2	0	0	1	0	8.622	0.832689	0.832414	-0.0664331	1	0.000856741	40	0.7846	-5.52998e-05
2	0	0	1	0	8.652	0.826692	0.826402	-0.0543987	1	0.000854933	40	0.8146	-4.49552e-05
2	0	0	1	0	8.682	0.820695	0.820403	-0.0437461	1	0.000853466	40	0.8446	-3.58895e-05
2	0	0	1	0	8.712	0.814698	0.814399	-0.0344101	1	0.000852298	40	0.8746	-2.80236e-05
2	0	0	1	0	8.742	0.808701	0.808405	-0.0261385	1	0.000851394	40	0.9046	-2.11305e-05
2	0	0	1	0	8.802	0.796707	0.79641	-0.0124824	1	0.000850113	41	0.9646	-9.94114e-06
2	0	0	1	0	8.8319	0.79071	0.790395	-0.00684958	1	0.000849826	41	0.9945	-5.41388e-06
2	0	0	1	0	8.8619	0.784713	0.784438	-0.00177931	1	0.000849699	41	1.0245	-1.39576e-06
2	1	0	1	0	8.8919	0.778716	0.778414	0.00259734	1	0.000849713	41	0.015	2.0218e-06
2	1	0	1	0	8.9219	0.772719	0.772427	0.00660039	1	0.000849854	41	0.045	5.09832e-06
2	1	0	1	0	8.9519	0.766722	0.766426	0.0100716	1	0.000850106	41	0.075	7.71915e-06
2	1	0	1	0	8.9819	0.760726	0.760436	0.0132037	1	0.000850457	41	0.105	1.00406e-05
2	1	0	1	0	9.0118	0.754729	0.754438	0.0159086	1	0.000850893	41	0.1349	1.2002e-05
2	1	0	1	0	9.0418	0.748732	0.748443	0.0182912	1	0.000851407	41	0.1649	1.36899e-05
2	1	0	1	0	9.0718	0.742735	0.742428	0.020325	1	0.000851989	41	0.1949	1.50898e-05
2	1	0	1	0	9.1018	0.736738	0.73645	0.0222312	1	0.000852629	41	0.2249	1.63722e-05
2	1	0	1	0	9.1318	0.730741	0.730423	0.023841	1	0.00085332	41	0.2549	1.7414e-05
2	1	0	1	0	9.1618	0.724744	0.724447	0.0251534	1	0.000854056	41	0.2849	1.82223e-05
2	1	0	1	0	9.1918	0.718747	0.718455	0.0263626	1	0.00085483	41	0.3149	1.89403e-05
2	1	0	1	0	9.2217	0.71275	0.712454	0.0274388	1	0.000855635	41	0.3448	1.95489e-05
2	1	0	1	0	9.2517	0.706753	0.706466	0.0283502	1	0.000856472	41	0.3748	2.00284e-05
2	1	0	1	0	9.2817	0.700756	0.700459	0.0291565	1	0.000857335	41	0.4048	2.04229e-05
2	1	0	1	0	9.3117	0.694759	0.694453	0.029874	1	0.00085822	41	0.4348	2.07461e-05
2	1	0	1	0	9.3417	0.688762	0.688466	0.0304544	1	0.000859125	41	0.4648	2.09668e-05
2	1	0	1	0	9.3717	0.682765	0.682472	0.0309271	1	0.000860046	41	0.4948	2.11069e-05
2	1	0	1	0	9.4016	0.676768	0.676474	0.0313316	1	0.000860977	41	0.5247	2.1195e-05
2	1	0	1	0	9.4316	0.670771	0.670477	0.0316862	1	0.000861923	41	0.5547	2.12448e-05
2	1	0	1	0	9.4616	0.664774	0.664475	0.0320033	1	0.000862878	41	0.5847	2.12654e-05
2	1	0	1	0	9.4916	0.658778	0.658486	0.0321995	1	0.000863841	41	0.6147	2.12029e-05
2	1	0	1	0	9.5216	0.652781	0.652475	0.0323383	1	0.000864809	41	0.6447	2.10999e-05
2	1	0	1	0	9.5516	0.646784	0.646509	0.0324389	1	0.000865781	41	0.6747	2.0972e-05
2	1	0	1	0	9.5816	0.640787	0.640483	0.0325179	1	0.000866755	41	0.7047	2.08271e-05
2	1	0	1	0	9.6115	0.63479	0.634499	0.0324258	1	0.000867725	41	0.7346	2.05742e-05
2	1	0	1	0	9.6415	0.628793	0.628484	0.0323477	1	0.000868696	41	0.7646	2.033e-05
2	1	0	1	0	9.6715	0.622796	0.6225	0.0321528	1	0.000869664	41	0.7946	2.00151e-05
2	1	0	1	0	9.7015	0.616799	0.616488	0.0319363	1	0.000870625	41	0.8246	1.96884e-05
2	1	0	1	0	9.7315	0.610802	0.610504	0.0315379	1	0.000871577	41	0.8546	1.9254e-05
2	1	0	1	0	9.7615	0.604805	0.604508	0.0311407	1	0.000872518	41	0.8846	1.88248e-05
2	1	0	1	0	9.7914	0.598817	0.598493	0.0303616	1	0.000873439	41	0.9145	1.81712e-05
2	1	0	1	0	9.8214	0.592811	0.592502	0.0298949	1	0.000874345	41	0.9445	1.77128e-05
2	1	0	1	0	9.8514	0.586814	0.5865	0.0289248	1	0.000875227	41	0.9745	1.69644e-05
2	1	0	1	0	9.8814	0.580817	0.580503	0.0278277	1	0.000876079	41	1.0045	1.61541e-05
2	1	0	1	0	9.9114	0.57482	0.574521	0.0264034	1	0.000876894	41	1.0345	1.51693e-05
2	1	0	1	0	9.9414	0.568823	0.568536	0.0248701	1	0.000877664	41	1.0645	1.41395e-05
2	1	0	1	0	9.9714	0.562826	0.562534	0.0227605	1	0.000878379	41	1.0945	1.28036e-05
2	1	0	1	0	10.0013	0.556829	0.556525	0.0203489	1	0.000879023	41	1.1244	1.13247e-05
2	1	0	1	0	10.0313	0.550833	0.550547	0.0172936	1	0.000879589	41	1.1544	9.52092e-06
2	1	0	1	0	10.0613	0.544836	0.544537	0.0139084	1	0.000880058	41	1.1844	7.57365e-06
2	1	0	1	0	10.0913	0.538839	0.538548	0.00967935	1	0.000880411	41	1.2144	5.21279e-06
2	1	0	1	0	10.1213	0.532842	0.532574	0.00477371	1	0.000880628	41	1.2444	2.54235e-06
2	0	0	1	0	10.1513	0.526845	0.526555	-0.000963313	1	0.000880686	41	0.000000000000000E+000	-5.07237e-07
2	0	0	1	0	10.1812	0.520866	0.520584	-0.00736147	1	0.000880561	41	0.0299	-3.83226e-06
2	0	0	1	0	10.2112	0.514851	0.514579	-0.0146491	1	0.000880229	41	0.0599	-7.53809e-06
2	0	0	1	0	10.2412	0.508854	0.508564	-0.0223094	1	0.000879674	41	0.0899	-1.13457e-05
2	0	0	1	0	10.2712	0.502857	0.502583	-0.0300026	1	0.000878888	41	0.1199	-1.50788e-05
2	0	0	1	0	10.3012	0.49686	0.496585	-0.0371954	1	0.000877877	41	0.1499	-1.84707e-05
2	0	0	1	0	10.3312	0.490863	0.490581	-0.0431236	1	0.000876667	41	0.1799	-2.11556e-05
2	0	0	1	0	10.3612	0.484866	0.484581	-0.0472227	1	0.000875306	41	0.2099	-2.28832e-05
2	0	0	1	0	10.3911	0.478869	0.478586	-0.0490392	1	0.00087386	41	0.2398	-2.34694e-05
2	0	0	1	0	10.4211	0.472872	0.472576	-0.0486585	1	0.00087239	41	0.2698	-2.29948e-05
2	0	0	1	0	10.4511	0.466875	0.466605	-0.0471396	1	0.00087095	41	0.2998	-2.19956e-05
2	0	0	1	0	10.4811	0.460878	0.460573	-0.0453032	1	0.000869565	41	0.3298	-2.08654e-05
2	0	0	1	0	10.5111	0.454881	0.454578	-0.0442052	1	0.000868225	41	0.3598	-2.00947e-05
2	0	0	1	0	10.5411	0.448884	0.448603	-0.0441502	1	0.000866902	41	0.3898	-1.98059e-05
2	0	0	1	0	10.5711	0.442888	0.442587	-0.0452996	1	0.000865562	41	0.4198	-2.0049e-05
2	0	0	1	0	10.601	0.436891	0.436601	-0.0473187	1	0.000864178	41	0.4497	-2.06594e-05
2	0	0	1	0	10.631	0.430894	0.430625	-0.050077	1	0.000862719	41	0.4797	-2.15644e-05
2	0	0	1	0	10.661	0.424897	0.424611	-0.0533737	1	0.000861167	41	0.5097	-2.2663e-05
2	0	0	1	0	10.691	0.4189	0.418617	-0.0572575	1	0.000859508	41	0.5397	-2.3969e-05
2	0	0	1	0	10.721	0.412903	0.412627	-0.0616198	1	0.000857725	41	0.5697	-2.5426e-05
2	0	0	1	0	10.751	0.406906	0.40662	-0.0665332	1	0.000855803	41	0.5997	-2.70537e-05
2	0	0	1	0	10.7809	0.400909	0.400624	-0.0719089	1	0.000853734	41	0.6296	-2.88084e-05
2	0	0	1	0	10.8109	0.394912	0.394613	-0.0779266	1	0.000851487	41	0.6596	-3.07509e-05
2	0	0	1	0	10.8409	0.388915	0.388616	-0.0843873	1	0.000849053	41	0.6896	-3.27943e-05
2	0	0	1	0	10.8709	0.382918	0.382646	-0.0914657	1	0.000846416	41	0.7196	-3.4999e-05
2	0	0	1	0	10.9009	0.376921	0.376658	-0.0991106	1	0.000843558	41	0.7496	-3.73308e-05
2	0	0	1	0	10.9309	0.370924	0.370662	-0.107382	1	0.00084046	41	0.7796	-3.98025e-05
2	0	0	1	0	10.9908	0.35893	0.358622	-0.125759	1	0.000833618	40	0.8395	-4.51e-05
2	0	0	1	0	11.0208	0.352933	0.352637	-0.135738	1	0.000829694	40	0.8695	-4.78661e-05
2	0	0	1	0	11.0508	0.346937	0.346637	-0.146439	1	0.00082546	40	0.8995	-5.07612e-05
2	0	0	1	0	11.0808	0.34094	0.34065	-0.157648	1	0.000820899	40	0.9295	-5.37029e-05
2	0	0	1	0	11.1108	0.334943	0.334627	-0.169356	1	0.000815993	40	0.9595	-5.6671e-05
2	0	0	1	0	11.1408	0.328946	0.328642	-0.181552	1	0.000810729	40	0.9895	-5.96655e-05
2	0	0	1	0	11.1707	0.322949	0.322638	-0.194222	1	0.00080511	40	1.0194	-6.26632e-05
2	0	0	1	0	11.2007	0.316952	0.316647	-0.207241	1	0.000799087	40	1.0494	-6.56222e-05
2	0	0	1	0	11.2307	0.310955	0.310643	-0.220521	1	0.000792671	40	1.0794	-6.85033e-05
2	0	0	1	0	11.2607	0.304958	0.304659	-0.233988	1	0.000785851	40	1.1094	-7.12868e-05
2	0	0	1	0	11.2907	0.298961	0.298653	-0.247579	1	0.000778626	40	1.1394	-7.39403e-05
2	0	0	1	0	11.3207	0.292964	0.292664	-0.261104	1	0.000770994	40	1.1694	-7.64155e-05
2	0	0	1	0	11.3507	0.286967	0.286656	-0.2745	1	0.000762957	40	1.1994	-7.86872e-05
2	0	0	1	0	11.3806	0.28097	0.280672	-0.287738	1	0.000754549	40	1.2293	-8.07601e-05
2	0	0	1	0	11.4106	0.274973	0.274673	-0.300387	1	0.000745725	40	1.2593	-8.25081e-05
2	0	0	1	0	11.4406	0.268976	0.268697	-0.312645	1	0.000736526	40	1.2893	-8.40068e-05
2	0	0	1	0	11.4706	0.262979	0.262678	-0.324259	1	0.000726968	40	1.3193	-8.51758e-05
2	0	0	1	0	11.5006	0.256982	0.256696	-0.335017	1	0.000717075	40	1.3493	-8.59976e-05
2	0	0	1	0	11.5306	0.250985	0.250692	-0.345079	1	0.000706869	40	1.3793	-8.65086e-05
2	0	0	1	0	11.5605	0.244988	0.244694	-0.354248	1	0.000696412	40	1.4092	-8.66824e-05
2	0	0	1	0	11.5905	0.238992	0.238697	-0.362262	1	0.000685661	40	1.4392	-8.64707e-05
2	0	0	1	0	11.6205	0.232995	0.232688	-0.369173	1	0.000674686	40	1.4692	-8.59021e-05
2	0	0	1	0	11.6505	0.226998	0.226699	-0.375117	1	0.000663519	40	1.4992	-8.50387e-05
2	0	0	1	0	11.6805	0.221001	0.220716	-0.379934	1	0.000652191	40	1.5292	-8.38576e-05
2	0	0	1	0	11.7105	0.215004	0.214699	-0.383631	1	0.000640735	40	1.5592	-8.2365e-05
2	0	0	1	0	11.7405	0.209007	0.208693	-0.386368	1	0.000629182	40	1.5892	-8.06324e-05
2	0	0	1	0	11.7704	0.20301	0.202707	-0.388125	1	0.000617602	40	1.6191	-7.86757e-05
2	0	0	1	0	11.8004	0.197013	0.196706	-0.388771	1	0.000605947	40	1.6491	-7.64735e-05
2	0	0	1	0	11.8304	0.191016	0.190697	-0.388607	1	0.000594285	40	1.6791	-7.41062e-05
2	0	0	1	0	11.8604	0.185019	0.18472	-0.387609	1	0.00058264	40	1.7091	-7.15992e-05
2	0	0	1	0	11.8904	0.179022	0.178712	-0.385943	1	0.000571036	40	1.7391	-6.89726e-05
2	0	0	1	0	11.9204	0.173025	0.172714	-0.38367	1	0.000559491	40	1.7691	-6.6265e-05
2	0	0	1	0	11.9504	0.167015	0.166701	-0.380896	1	0.000548024	40	1.7991	-6.34959e-05
2	0	0	1	0	11.9803	0.161031	0.160718	-0.377544	1	0.000536684	40	1.829	-6.06781e-05
2	0	0	1	0	12.0103	0.155034	0.154721	-0.373849	1	0.000525412	40	1.859	-5.78424e-05
2	0	0	1	0	12.0403	0.149037	0.148729	-0.369839	1	0.000514257	40	1.889	-5.50058e-05
2	0	0	1	0	12.0703	0.14304	0.142733	-0.365562	1	0.000503227	40	1.919	-5.21776e-05
2	0	0	1	0	12.1003	0.137044	0.136732	-0.361115	1	0.000492326	40	1.949	-4.93757e-05
2	0	0	1	0	12.1303	0.131047	0.130748	-0.356524	1	0.000481562	40	1.979	-4.66149e-05
2	0	0	1	0	12.1602	0.12505	0.124754	-0.351946	1	0.000470971	40	2.0089	-4.39065e-05
2	0	0	1	0	12.1902	0.119053	0.118751	-0.347106	1	0.000460487	40	2.0389	-4.12193e-05
2	0	0	1	0	12.2202	0.113056	0.11275	-0.342336	1	0.000450146	40	2.0689	-3.85984e-05
2	0	0	1	0	12.2502	0.107059	0.106753	-0.337524	1	0.00043995	40	2.0989	-3.60317e-05
2	0	0	1	0	12.2802	0.101062	0.100753	-0.332779	1	0.000429897	40	2.1289	-3.35284e-05
2	0	0	1	0	12.3102	0.095065	0.0947634	-0.328013	1	0.000419988	40	2.1589	-3.10837e-05
2	0	0	1	0	12.3402	0.0890635	0.0887559	-0.323369	1	0.000410219	40	2.1889	-2.87009e-05
2	0	0	1	0	12.3701	0.0830711	0.0827481	-0.318714	1	0.000400621	40	2.2188	-2.63729e-05
2	0	0	1	0	12.4001	0.0770741	0.0767703	-0.31414	1	0.000391129	40	2.2488	-2.41166e-05
2	0	0	1	0	12.4301	0.0710772	0.0707694	-0.309673	1	0.000381773	40	2.2788	-2.19154e-05
2	0	0	1	0	12.4601	0.0650802	0.0647861	-0.305247	1	0.00037255	40	2.3088	-1.97757e-05
2	0	0	1	0	12.4901	0.0590833	0.0587858	-0.300957	1	0.000363457	40	2.3388	-1.7692e-05
2	0	0	1	0	12.5201	0.0530864	0.0527649	-0.296774	1	0.000354492	40	2.3688	-1.56593e-05
2	0	0	1	0	12.55	0.0470894	0.0467844	-0.292663	1	0.000345681	40	2.3987	-1.3692e-05
2	0	0	1	0	12.58	0.0410925	0.0408025	-0.28865	1	0.000336962	40	2.4287	-1.17776e-05
2	0	0	1	0	12.61	0.0350955	0.0347832	-0.284686	1	0.000328363	40	2.4587	-9.90227e-06
2	0	0	1	0	12.64	0.0290986	0.0287922	-0.280873	1	0.000319881	40	2.4887	-8.08696e-06
2	0	0	1	0	12.67	0.0231017	0.022786	-0.277095	1	0.000311512	40	2.5187	-6.31387e-06
2	0	0	1	0	12.7	0.0171047	0.0168055	-0.273421	1	0.000303254	40	2.5487	-4.59497e-06
2	0	0	1	0	12.73	0.0111078	0.0108019	-0.26988	1	0.000295106	40	2.5787	-2.91523e-06
2	0	0	1	0	12.7599	0.00511082	0.00478349	-0.266434	1	0.000287089	40	2.6086	-1.27449e-06
2	0	0	1	0	12.7899	-0.000886118	-0.00121091	-0.263003	1	0.000279148	40	2.6386	3.18473e-07
2	0	0	1	0	12.8199	-0.00688306	-0.00720258	-0.259725	1	0.000271308	40	2.6686	1.87069e-06
2	0	0	1	0	12.8499	-0.01288	-0.0131859	-0.25647	1	0.000263566	40	2.6986	3.38178e-06
2	0	0	1	0	12.8799	-0.018877	-0.0191926	-0.253305	1	0.00025592	40	2.7286	4.8616e-06
2	0	0	1	0	12.9099	-0.0248739	-0.0251968	-0.250249	1	0.000248367	40	2.7586	6.30547e-06
2	0	0	1	0	12.9398	-0.0308708	-0.0311734	-0.247308	1	0.000240929	40	2.7885	7.70943e-06
2	0	0	1	0	12.9698	-0.0368678	-0.0371854	-0.244408	1	0.000233554	40	2.8185	9.0884e-06
2	0	0	1	0	12.9998	-0.0428647	-0.0431648	-0.241604	1	0.000226264	40	2.8485	1.04288e-05
2	0	0	1	0	13.0298	-0.0488617	-0.0491707	-0.238813	1	0.000219059	40	2.8785	1.17426e-05
2	0	0	1	0	13.0598	-0.0548586	-0.0551794	-0.236115	1	0.000211935	40	2.9085	1.30287e-05
2	0	0	1	0	13.0898	-0.0608556	-0.0611511	-0.233479	1	0.000204892	40	2.9385	1.42775e-05
2	0	0	1	0	13.1198	-0.0668525	-0.0671607	-0.230928	1	0.000197927	40	2.9685	1.55093e-05
2	0	0	1	0	13.1497	-0.0728495	-0.073167	-0.22843	1	0.00019106	40	2.9984	1.67135e-05
2	0	0	1	0	13.1797	-0.0788464	-0.0791591	-0.225971	1	0.000184246	40	3.0284	1.78877e-05
2	0	0	1	0	13.2097	-0.0848433	-0.0851458	-0.223522	1	0.000177504	40	3.0584	1.90319e-05
2	0	0	1	0	13.2397	-0.0908403	-0.09115	-0.221195	1	0.000170835	40	3.0884	2.01619e-05
2	0	0	1	0	13.2697	-0.0968372	-0.0971261	-0.218887	1	0.000164235	40	3.1184	2.12596e-05
2	0	0	1	0	13.2997	-0.102834	-0.103129	-0.216591	1	0.000157704	40	3.1484	2.23368e-05
2	0	0	1	0	13.3296	-0.108831	-0.109132	-0.21437	1	0.000151261	40	3.1783	2.33946e-05
2	0	0	1	0	13.3596	-0.114828	-0.115118	-0.212197	1	0.000144863	40	3.2083	2.44277e-05
2	0	0	1	0	13.3896	-0.120825	-0.121112	-0.210109	1	0.00013853	40	3.2383	2.54468e-05
2	0	0	1	0	13.4196	-0.126822	-0.12712	-0.207967	1	0.00013226	40	3.2683	2.64367e-05
2	0	0	1	0	13.4496	-0.132819	-0.133125	-0.205948	1	0.000126051	40	3.2983	2.74168e-05
2	0	0	1	0	13.4796	-0.138816	-0.139113	-0.20398	1	0.000119903	40	3.3283	2.83764e-05
2	0	0	1	0	13.5096	-0.144813	-0.1451	-0.202001	1	0.000113814	40	3.3583	2.93103e-05
2	0	0	1	0	13.5395	-0.15081	-0.151113	-0.200125	1	0.000107802	40	3.3882	3.02416e-05
2	0	0	1	0	13.5695	-0.156807	-0.157112	-0.198245	1	0.000101827	40	3.4182	3.11467e-05
2	0	0	1	0	13.5995	-0.162804	-0.163098	-0.1964	1	9.59073e-05	40	3.4482	3.20323e-05
2	0	0	1	0	13.6295	-0.168801	-0.169125	-0.194645	1	9.0042e-05	40	3.4782	3.29193e-05
2	0	0	1	0	13.6595	-0.174798	-0.175111	-0.192903	1	8.42297e-05	40	3.5082	3.37794e-05
2	0	0	1	0	13.6895	-0.180794	-0.18112	-0.191217	1	7.84693e-05	40	3.5382	3.46331e-05
2	0	0	1	0	13.7194	-0.186791	-0.187104	-0.189558	1	7.27777e-05	40	3.5681	3.54669e-05
2	0	0	1	0	13.7494	-0.192788	-0.193086	-0.187933	1	6.71169e-05	40	3.5981	3.62873e-05
2	0	0	1	0	13.7794	-0.198785	-0.199107	-0.18632	1	6.1504e-05	40	3.6281	3.70977e-05
2	0	0	1	0	13.8094	-0.204782	-0.205102	-0.184759	1	5.59383e-05	40	3.6581	3.78944e-05
2	0	0	1	0	13.8394	-0.210779	-0.211099	-0.183257	1	5.04189e-05	40	3.6881	3.86854e-05
2	0	0	1	0	13.8694	-0.216776	-0.217081	-0.181758	1	4.49446e-05	40	3.7181	3.94563e-05
2	0	0	1	0	13.8994	-0.222773	-0.223087	-0.180327	1	3.95139e-05	40	3.7481	4.02285e-05
2	0	0	1	0	13.9293	-0.22877	-0.229083	-0.178883	1	3.41438e-05	40	3.778	4.0979e-05
2	0	0	1	0	13.9593	-0.234767	-0.235092	-0.177543	1	2.87974e-05	40	3.808	4.17389e-05
2	0	0	1	0	13.9893	-0.240764	-0.241088	-0.176191	1	2.3492e-05	40	3.838	4.24775e-05
2	0	0	1	0	14.0193	-0.246761	-0.247072	-0.174927	1	1.82258e-05	40	3.868	4.32197e-05
2	0	0	1	0	14.0493	-0.252758	-0.253065	-0.173628	1	1.29981e-05	40	3.898	4.39391e-05
2	0	0	1	0	14.0793	-0.258755	-0.259075	-0.17245	1	7.807e-06	40	3.928	4.46777e-05
2	0	0	1	0	14.1092	-0.264747	-0.265049	-0.171343	1	2.66853e-06	40	3.9579	4.54144e-05
2	0	0	1	0	14.1392	-0.270749	-0.27106	-0.170223	1	-2.45402e-06	40	3.9879	4.61408e-05
2	0	0	1	0	14.1692	-0.276746	-0.277065	-0.16915	1	-7.54423e-06	40	4.0179	4.68655e-05
2	0	0	1	0	14.1992	-0.282743	-0.283058	-0.168246	1	-1.26045e-05	40	4.0479	4.76234e-05
2	0	0	1	0	14.2292	-0.288739	-0.289053	-0.16731	1	-1.7637e-05	40	4.0779	4.83616e-05
2	0	0	1	0	14.2592	-0.294736	-0.295058	-0.16654	1	-2.26445e-05	40	4.1079	4.91388e-05
2	0	0	1	0	14.2854	-0.299984	-0.300286	-0.16582	1	-2.69986e-05	40	4.1341	4.97933e-05
2	0	0	1	1	14.3087	-0.295336	-0.295588	-0.160127	1	-3.07623e-05	40	4.1574	4.73317e-05
2	0	0	1	1	14.3387	-0.289339	-0.2896	-0.157503	1	-3.55249e-05	40	4.1874	4.5613e-05
2	0	0	1	1	14.3687	-0.283342	-0.283603	-0.155291	1	-4.02154e-05	40	4.2174	4.4041e-05
2	0	0	1	1	14.3987	-0.277345	-0.277604	-0.153351	1	-4.48442e-05	40	4.2474	4.2571e-05
2	0	0	1	1	14.4287	-0.271348	-0.271598	-0.151614	1	-4.94183e-05	40	4.2774	4.1178e-05
2	0	0	1	1	14.4587	-0.265351	-0.265592	-0.149995	1	-5.39421e-05	40	4.3074	3.98374e-05
2	0	0	1	1	14.4886	-0.259354	-0.259614	-0.148505	1	-5.84043e-05	40	4.3373	3.85539e-05
2	0	0	1	1	14.5186	-0.253358	-0.253613	-0.147131	1	-6.28383e-05	40	4.3673	3.73143e-05
2	0	0	1	1	14.5486	-0.247361	-0.247629	-0.145771	1	-6.72308e-05	40	4.3973	3.60972e-05
2	0	0	1	1	14.5786	-0.241364	-0.241623	-0.144488	1	-7.15843e-05	40	4.4273	3.49116e-05
2	0	0	1	1	14.6086	-0.235367	-0.235643	-0.143242	1	-7.58999e-05	40	4.4573	3.37539e-05
2	0	0	1	1	14.6386	-0.22937	-0.229662	-0.142026	1	-8.01794e-05	40	4.4873	3.26178e-05
2	0	0	1	1	14.6685	-0.223373	-0.223637	-0.140882	1	-8.44092e-05	40	4.5172	3.15066e-05
2	0	0	1	1	14.6985	-0.217376	-0.217644	-0.139747	1	-8.86186e-05	40	4.5472	3.04151e-05
2	0	0	1	1	14.7285	-0.211379	-0.211648	-0.138613	1	-9.27942e-05	40	4.5772	2.93372e-05
2	0	0	1	1	14.7585	-0.205382	-0.20565	-0.137556	1	-9.69369e-05	40	4.6072	2.82884e-05
2	0	0	1	1	14.7885	-0.199385	-0.199632	-0.13643	1	-0.000101047	40	4.6372	2.72357e-05
2	0	0	1	1	14.8185	-0.193388	-0.193648	-0.135391	1	-0.000105124	40	4.6672	2.62182e-05
2	0	0	1	1	14.8485	-0.187391	-0.187647	-0.134331	1	-0.00010917	40	4.6972	2.52068e-05
2	0	0	1	1	14.8784	-0.181394	-0.18164	-0.133308	1	-0.000113171	40	4.7271	2.42139e-05
2	0	0	1	1	14.9084	-0.175397	-0.175653	-0.132267	1	-0.000117154	40	4.7571	2.3233e-05
2	0	0	1	1	14.9384	-0.1694	-0.169648	-0.13126	1	-0.000121107	40	4.7871	2.2268e-05
2	0	0	1	1	14.9684	-0.163403	-0.163645	-0.130219	1	-0.000125029	40	4.8171	2.13097e-05
2	0	0	1	1	14.9984	-0.157406	-0.157677	-0.129206	1	-0.00012892	40	4.8471	2.03728e-05
2	0	0	1	1	15.0284	-0.151409	-0.151674	-0.12817	1	-0.000132781	40	4.8771	1.94401e-05
2	0	0	1	1	15.0583	-0.145412	-0.145673	-0.127197	1	-0.000136598	40	4.907	1.85292e-05
2	0	0	1	1	15.0883	-0.139416	-0.139641	-0.12618	1	-0.000140398	40	4.937	1.76199e-05
2	0	0	1	1	15.1183	-0.133419	-0.133651	-0.125153	1	-0.000144167	40	4.967	1.67269e-05
2	0	0	1	1	15.1483	-0.127422	-0.127661	-0.12412	1	-0.000147906	40	4.997	1.58453e-05
2	0	0	1	1	15.1783	-0.121425	-0.121674	-0.123135	1	-0.000151615	40	5.027	1.49823e-05
2	0	0	1	1	15.2083	-0.115428	-0.115676	-0.12206	1	-0.000155293	40	5.057	1.41193e-05
2	0	0	1	1	15.2383	-0.109431	-0.109679	-0.121071	1	-0.00015894	40	5.087	1.32789e-05
2	0	0	1	1	15.2682	-0.103434	-0.103688	-0.120013	1	-0.000162544	40	5.1169	1.24438e-05
2	0	0	1	1	15.2982	-0.0974369	-0.0976959	-0.118998	1	-0.000166129	40	5.1469	1.16256e-05
2	0	0	1	1	15.3282	-0.09144	-0.0916983	-0.117939	1	-0.000169682	40	5.1769	1.08148e-05
2	0	0	1	1	15.3582	-0.085443	-0.0856947	-0.116844	1	-0.000173204	40	5.2069	1.00129e-05
2	0	0	1	1	15.3882	-0.0794461	-0.079701	-0.1158	1	-0.000176694	40	5.2369	9.22939e-06
2	0	0	1	1	15.4182	-0.0734492	-0.0736959	-0.114736	1	-0.000180152	40	5.2669	8.45557e-06
2	0	0	1	1	15.4481	-0.0674522	-0.0677163	-0.113583	1	-0.000183566	40	5.2968	7.69143e-06
2	0	0	1	1	15.4781	-0.0614553	-0.061708	-0.11257	1	-0.000186958	40	5.3268	6.94645e-06
2	0	0	1	1	15.5081	-0.0554583	-0.0557208	-0.111428	1	-0.000190318	40	5.3568	6.20887e-06
2	0	0	1	1	15.5381	-0.0494614	-0.0497281	-0.110334	1	-0.000193643	40	5.3868	5.48671e-06
2	0	0	1	1	15.5681	-0.0434644	-0.0437285	-0.109148	1	-0.000196935	40	5.4168	4.77287e-06
2	0	0	1	1	15.5981	-0.0374675	-0.0377048	-0.107976	1	-0.000200191	40	5.4468	4.07121e-06
2	0	0	1	1	15.6281	-0.0314705	-0.0317148	-0.10677	1	-0.000203413	40	5.4768	3.38618e-06
2	0	0	1	1	15.658	-0.0254736	-0.0257353	-0.105572	1	-0.000206587	40	5.5067	2.71692e-06
2	0	0	1	1	15.688	-0.0194766	-0.0197487	-0.104363	1	-0.000209737	40	5.5367	2.06104e-06
2	0	0	1	1	15.718	-0.0134797	-0.0137325	-0.103133	1	-0.000212849	40	5.5667	1.41627e-06
2	0	0	1	1	15.748	-0.00748276	-0.00771888	-0.101839	1	-0.000215923	40	5.5967	7.8608e-07
2	0	0	1	1	15.778	-0.00148581	-0.00172877	-0.100521	1	-0.00021896	40	5.6267	1.73778e-07
2	0	0	1	1	15.808	0.00451113	0.00425283	-0.0992766	1	-0.000221958	40	5.6567	-4.22206e-07
2	0	0	1	1	15.838	0.0105262	0.0102801	-0.0978589	1	-0.000224915	40	5.6867	-1.006e-06
2	0	0	1	1	15.8679	0.016505	0.0162749	-0.0965593	1	-0.000227822	40	5.7166	-1.57149e-06
2	0	0	1	1	15.8979	0.022502	0.0222559	-0.095189	1	-0.000230698	40	5.7466	-2.11852e-06
2	0	0	1	1	15.9279	0.0284989	0.0282564	-0.0937613	1	-0.000233532	40	5.7766	-2.64936e-06
2	0	0	1	1	15.9579	0.0344958	0.0342581	-0.0923608	1	-0.000236324	40	5.8066	-3.1641e-06
2	0	0	1	1	15.9879	0.0404928	0.0402514	-0.0908825	1	-0.000239073	40	5.8366	-3.65815e-06
2	0	0	1	1	16.0179	0.0464897	0.0462253	-0.0894366	1	-0.000241778	40	5.8666	-4.13423e-06
2	0	0	1	1	16.0478	0.0524867	0.0522404	-0.0879514	1	-0.000244429	40	5.8965	-4.59462e-06
2	0	0	1	1	16.0778	0.0584836	0.0582353	-0.0864083	1	-0.000247044	40	5.9265	-5.03201e-06
2	0	0	1	1	16.1078	0.0644806	0.0642376	-0.0848268	1	-0.000249613	40	5.9565	-5.44908e-06
2	0	0	1	1	16.1378	0.0704775	0.0702237	-0.0832886	1	-0.000252136	40	5.9865	-5.84883e-06
2	0	0	1	1	16.1678	0.0764744	0.076206	-0.0816968	1	-0.000254611	40	6.0165	-6.22579e-06
2	0	0	1	1	16.1978	0.0824714	0.082205	-0.0801062	1	-0.000257039	40	6.0465	-6.58513e-06
2	0	0	1	1	16.2278	0.0884729	0.088231	-0.0783798	1	-0.000259417	40	6.0765	-6.91553e-06
2	0	0	1	1	16.2577	0.0944653	0.0942193	-0.0768431	1	-0.000261738	40	6.1064	-7.2401e-06
2	0	0	1	1	16.2877	0.100462	0.100203	-0.0751369	1	-0.000264017	40	6.1364	-7.52893e-06
2	0	0	1	1	16.3177	0.106459	0.106216	-0.0734841	1	-0.000266247	40	6.1664	-7.80515e-06
2	0	0	1	1	16.3477	0.112456	0.112204	-0.0717943	1	-0.000268426	40	6.1964	-8.05561e-06
2	0	0	1	1	16.3777	0.118453	0.118212	-0.0701156	1	-0.000270554	40	6.2264	-8.28849e-06
2	0	0	1	1	16.4077	0.12445	0.124193	-0.0683593	1	-0.000272631	40	6.2564	-8.48974e-06
2	0	0	1	1	16.4376	0.130447	0.130188	-0.0666287	1	-0.00027465	40	6.2863	-8.67427e-06
2	0	0	1	1	16.4676	0.136444	0.136178	-0.0649348	1	-0.000276623	40	6.3163	-8.84271e-06
2	0	0	1	1	16.4976	0.142441	0.142179	-0.0632303	1	-0.000278545	40	6.3463	-8.99002e-06
2	0	0	1	1	16.5276	0.148438	0.148191	-0.0614922	1	-0.000280416	40	6.3763	-9.11257e-06
2	0	0	1	1	16.5576	0.154435	0.154187	-0.0597973	1	-0.000282235	40	6.4063	-9.21998e-06
2	0	0	1	1	16.5876	0.160432	0.160177	-0.0580248	1	-0.000284002	40	6.4363	-9.29426e-06
2	0	0	1	1	16.6176	0.166429	0.166181	-0.0564014	1	-0.000285718	40	6.4663	-9.37282e-06
2	0	0	1	1	16.6475	0.172425	0.172173	-0.0547051	1	-0.000287377	40	6.4962	-9.41877e-06
2	0	0	1	1	16.6775	0.178422	0.178196	-0.0530551	1	-0.000288993	40	6.5262	-9.45422e-06
2	0	0	1	1	16.7075	0.184419	0.184153	-0.0514088	1	-0.000290559	40	6.5562	-9.46708e-06
2	0	0	1	1	16.7375	0.190416	0.190162	-0.0497983	1	-0.000292077	40	6.5862	-9.46975e-06
2	0	0	1	1	16.7675	0.196413	0.196171	-0.0482276	1	-0.000293547	40	6.6162	-9.46088e-06
2	0	0	1	1	16.7975	0.20241	0.202162	-0.0466966	1	-0.000294971	40	6.6462	-9.44026e-06
2	0	0	1	1	16.8274	0.208407	0.208186	-0.0451448	1	-0.000296343	40	6.6761	-9.39853e-06
2	0	0	1	1	16.8574	0.214404	0.214168	-0.0437084	1	-0.000297676	40	6.7061	-9.36094e-06
2	0	0	1	1	16.9174	0.226398	0.226164	-0.0408197	1	-0.00030024	41	6.7661	-9.23195e-06
2	0	0	1	1	16.9474	0.232395	0.232152	-0.0394423	1	-0.000301444	41	6.7961	-9.1566e-06
2	0	0	1	1	16.9774	0.238392	0.238144	-0.0381508	1	-0.000302608	41	6.8261	-9.08537e-06
2	0	0	1	1	17.0074	0.244389	0.244158	-0.0368351	1	-0.000303733	41	6.8561	-8.99359e-06
2	0	0	1	1	17.0373	0.250386	0.250153	-0.0355896	1	-0.000304815	41	6.886	-8.90285e-06
2	0	0	1	1	17.0673	0.256383	0.256134	-0.0343372	1	-0.000305865	41	6.916	-8.79493e-06
2	0	0	1	1	17.0973	0.26238	0.262133	-0.0331729	1	-0.000306877	41	6.946	-8.69572e-06
2	0	0	1	1	17.1273	0.268377	0.268135	-0.0319467	1	-0.000307854	41	6.976	-8.56604e-06
2	0	0	1	1	17.1573	0.274373	0.274134	-0.0307732	1	-0.000308795	41	7.006	-8.43599e-06
2	0	0	1	1	17.1873	0.28037	0.280129	-0.0296213	1	-0.000309702	41	7.036	-8.29777e-06
2	0	0	1	1	17.2172	0.286367	0.286117	-0.0284692	1	-0.000310571	41	7.0659	-8.14553e-06
2	0	0	1	1	17.2472	0.292364	0.292096	-0.0273126	1	-0.000311408	41	7.0959	-7.97791e-06
2	0	0	1	1	17.2772	0.298361	0.298111	-0.0261544	1	-0.00031221	41	7.1259	-7.79692e-06
2	0	0	1	1	17.3072	0.304358	0.304105	-0.0249434	1	-0.000312977	41	7.1559	-7.58541e-06
2	0	0	1	1	17.3372	0.310355	0.310113	-0.0237768	1	-0.000313708	41	7.1859	-7.37349e-06
2	0	0	1	1	17.3672	0.316352	0.316085	-0.0224919	1	-0.000314402	41	7.2159	-7.10937e-06
2	0	0	1	1	17.3972	0.322349	0.322087	-0.0211738	1	-0.000315057	41	7.2459	-6.81981e-06
2	0	0	1	1	17.4271	0.328346	0.328095	-0.0197884	1	-0.000315669	41	7.2758	-6.49249e-06
2	0	0	1	1	17.4571	0.334343	0.334097	-0.0183029	1	-0.000316241	41	7.3058	-6.11494e-06
2	0	0	1	1	17.4871	0.34034	0.34008	-0.0167508	1	-0.000316767	41	7.3358	-5.69661e-06
2	0	0	1	1	17.5171	0.346337	0.346099	-0.0150032	1	-0.000317242	41	7.3658	-5.19259e-06
2	0	0	1	1	17.5471	0.352334	0.352076	-0.0130959	1	-0.000317664	41	7.3958	-4.61074e-06
2	0	0	1	1	17.5771	0.358331	0.358077	-0.0109892	1	-0.000318026	41	7.4258	-3.93498e-06
2	0	0	1	1	17.607	0.364328	0.364096	-0.00867188	1	-0.000318321	41	7.4557	-3.1574e-06
2	0	0	1	1	17.637	0.370325	0.370072	-0.00606463	1	-0.000318542	41	7.4857	-2.24435e-06
2	0	0	1	1	17.667	0.376322	0.376062	-0.00311877	1	-0.00031868	41	7.5157	-1.17285e-06
2	0	0	1	1	17.697	0.382319	0.382067	0.000200579	1	-0.000318725	41	7.5457	7.66345e-08
2	1	0	1	1	17.727	0.388315	0.388055	0.00398812	1	-0.000318663	41	0.025	1.54761e-06
2	1	0	1	1	17.757	0.394312	0.394058	0.00830256	1	-0.000318479	41	0.055	3.27169e-06
2	1	0	1	1	17.787	0.400309	0.400044	0.0132207	1	-0.000318157	41	0.085	5.28884e-06
2	1	0	1	1	17.8169	0.406306	0.406028	0.0188341	1	-0.000317679	41	0.1149	7.64719e-06
2	1	0	1	1	17.8469	0.412303	0.412052	0.0252917	1	-0.000317018	41	0.1449	1.04215e-05
2	1	0	1	1	17.8769	0.4183	0.418029	0.0326851	1	-0.000316149	41	0.1749	1.36633e-05
2	1	0	1	1	17.9069	0.424297	0.424037	0.0411682	1	-0.000315043	41	0.2049	1.74569e-05
2	1	0	1	1	17.9369	0.430294	0.430001	0.0508981	1	-0.000313665	41	0.2349	2.18862e-05
2	1	0	1	1	17.9669	0.436291	0.435993	0.0622097	1	-0.00031197	41	0.2649	2.7123e-05
2	1	0	1	1	17.9948	0.441888	0.441584	0.0745118	1	-0.000310067	41	0.2928	3.29032e-05
2	1	0	0	1	17.9956	0.442038	0.441714	0.0751146	1	-0.000310007	41	0.2936	3.31792e-05