File: Python/Data/GoldElectrode/240322/Gold/240322-CVEIS-PostActivation-5mM_Fe2Fe3-1M_H2SO4-0000RPM-Ag_AgCl_BLF8-Au_RDE_02_PEIS_C15.mpt
EC-Lab ASCII FILE
Nb header lines : 66

Potentio Electrochemical Impedance Spectroscopy

Run on channel : 15 (SN 19485)
User :
Electrode connection : standard
Potential control : Ewe
Ewe ctrl range : min = -1.00 V, max = 1.00 V
Ewe,I filtering : <None>
Safety Limits :
	Do not start on E overload
Channel : Floating
Acquisition started on : 03/22/2024 10:39:57.841
Loaded Setting File :  C:\Data\mathias\GoldElectrode\240320-CVEIS_PostActivation-Fe2Fe3_5mM-HCl1M-0000RPM-Ag_AgCl_BLF8-Au_RDE.mps
Saved on :
	File : 240322-CVEIS-PostActivation-5mM_Fe2Fe3-1M_H2SO4-0000RPM-Ag_AgCl_BLF8-Au_RDE_02_PEIS_C15.mpr
	Directory : C:\Data\mathias\GoldElectrode\
	Host : 192.168.0.1
Device : VMP-300 (SN 0826)
Address : USB
EC-Lab for windows v11.52 (software)
Internet server v11.52 (firmware)
Command interpretor v11.52 (firmware)
Electrode material :
Initial state :
Electrolyte :
Comments :
Cable : special
Electrode surface area : 0.001 cm²
Characteristic mass : 0.001 g
Equivalent Weight : 0.000 g/eq.
Density : 0.000 g/cm3
Volume (V) : 0.001 cm³
Record EIS quality indicators
Cycle Definition : Charge/Discharge alternance
Mode                Single sine
E (V)               0.0000
vs.                 Eoc
tE (h:m:s)          0:00:0.0000
record              0
dI                  0.000
unit dI             mA
dt (s)              0.000
fi                  400.000
unit fi             kHz
ff                  100.000
unit ff             mHz
Nd                  10
Points              per decade
spacing             Logarithmic
Va (mV)             5.0
pw                  0.10
Na                  3
corr                0
E range min (V)     -1.000
E range max (V)     1.000
I Range             Auto
Bandwidth           8
nc cycles           2
goto Ns'            0
nr cycles           0
inc. cycle          1

freq/Hz	Re(Z)/Ohm	-Im(Z)/Ohm	|Z|/Ohm	Phase(Z)/deg	time/s	<Ewe>/V	<I>/mA	Cs/µF	Cp/µF	cycle number	I Range	|Ewe|/V	|I|/A	Ns	(Q-Qo)/mA.h	THD Ewe/%	NSD Ewe/%	NSR Ewe/%	|Ewe h2|/V	|Ewe h3|/V	|Ewe h4|/V	|Ewe h5|/V	|Ewe h6|/V	|Ewe h7|/V	THD I/%	NSD I/%	NSR I/%	|I h2|/A	|I h3|/A	|I h4|/A	|I h5|/A	|I h6|/A	|I h7|/A	Re(Y)/Ohm-1	Im(Y)/Ohm-1	|Y|/Ohm-1	Phase(Y)/deg	Re(C)/nF	Im(C)/nF	|C|/nF	Phase(C)/deg	Re(M)	Im(M)	|M|	Phase(M)/deg	Re(Permittivity)	Im(Permittivity)	|Permittivity|	Phase(Permittivity)/deg	Re(Resistivity)/Ohm.cm	Im(Resistivity)/Ohm.cm	|Resistivity|/Ohm.cm	Phase(Resistivity)/deg	Re(Conductivity)/mS/cm	Im(Conductivity)/mS/cm	|Conductivity|/mS/cm	Phase(Conductivity)/deg	Tan(Delta)	Loss Angle(Delta)/deg	dq/mA.h
399996	3.23296	0.233521	3.24138	-4.13138	142.804	0.441048	-0.0415807	1.70388	0.00884361	1	37	0.00455848	0.00140634	0	1.7478e-05	-1	-1	-1	0	0	0	0	0	0	-1	-1	-1	0	0	0	0	0	0	0.307709	0.0222262	0.30851	4.13138	8.84361	122.434	122.753	-85.8686	0.0000000E+000	0.0000000E+000	0.0000000E+000	85.8686	0.0000000E+000	0.0000000E+000	0.0000000E+000	-85.8686	0.0000000E+000	0.0000000E+000	0.0000000E+000	-4.13138	0.0000000E+000	0.0000000E+000	0.0000000E+000	4.13138	13.8444	85.8686	1.7478e-05
200434	2.84595	0.0752248	2.84694	-1.5141	146.245	0.441051	-0.053678	10.5557	0.00736973	1	37	0.00517801	0.0018188	0	-1.65738e-05	-1	-1	-1	0	0	0	0	0	0	-1	-1	-1	0	0	0	0	0	0	0.351131	0.00928118	0.351254	1.5141	7.36971	278.816	278.913	-88.4859	0.0000000E+000	0.0000000E+000	0.0000000E+000	88.4859	0.0000000E+000	0.0000000E+000	0.0000000E+000	-88.4859	0.0000000E+000	0.0000000E+000	0.0000000E+000	-1.5141	0.0000000E+000	0.0000000E+000	0.0000000E+000	1.5141	37.8326	88.4859	-1.25681e-05
100431	2.73986	0.130454	2.74296	-2.72598	149.689	0.441048	-0.059708	12.1478	0.0274771	1	37	0.00517736	0.00188751	0	-6.69884e-05	1.11672	0.50438	25.2837	2.23749e-05	1.8518e-05	2.0598e-05	2.06364e-05	2.14323e-05	2.5459e-05	0.473533	0.264145	9.30594	4.74859e-06	3.13234e-06	2.94959e-06	3.12376e-06	2.05652e-06	4.26013e-06	0.364157	0.0173387	0.364569	2.72598	27.4771	577.089	577.742	-87.274	0.0000000E+000	0.0000000E+000	0.0000000E+000	87.274	0.0000000E+000	0.0000000E+000	0.0000000E+000	-87.274	0.0000000E+000	0.0000000E+000	0.0000000E+000	-2.72598	0.0000000E+000	0.0000000E+000	0.0000000E+000	2.72598	21.0025	87.274	-1.95072e-05
50326.6	2.73184	0.235745	2.742	-4.93212	153.133	0.441058	-0.0587589	13.4147	0.0991585	1	37	0.00513058	0.00187111	0	-0.000121502	1.19023	0.443644	25.4199	3.39173e-05	2.17992e-05	9.58124e-06	1.62687e-05	1.36597e-05	3.24654e-05	0.580709	0.234848	9.37696	4.42416e-06	4.77132e-06	2.05378e-06	6.62862e-06	3.71401e-06	2.05913e-06	0.363347	0.0313551	0.364698	4.93212	99.1585	1149.06	1153.34	-85.0679	0.0000000E+000	0.0000000E+000	0.0000000E+000	85.0679	0.0000000E+000	0.0000000E+000	0.0000000E+000	-85.0679	0.0000000E+000	0.0000000E+000	0.0000000E+000	-4.93212	0.0000000E+000	0.0000000E+000	0.0000000E+000	4.93212	11.5882	85.0679	-1.84734e-05
25219	2.7683	0.453519	2.8052	-9.30388	156.577	0.44107	-0.0498068	13.9155	0.363714	1	37	0.00508832	0.00181389	0	-0.000173893	1.3106	0.739321	26.1317	2.72071e-05	2.97562e-05	2.44794e-05	2.98045e-05	2.1888e-05	2.20599e-05	0.571834	0.253844	9.6944	3.47142e-06	3.90928e-06	3.64668e-06	3.43531e-06	5.43259e-06	3.74829e-06	0.351791	0.0576325	0.356481	9.30388	363.714	2220.13	2249.72	-80.6961	0.0000000E+000	0.0000000E+000	0.0000000E+000	80.6961	0.0000000E+000	0.0000000E+000	0.0000000E+000	-80.6961	0.0000000E+000	0.0000000E+000	0.0000000E+000	-9.30388	0.0000000E+000	0.0000000E+000	0.0000000E+000	9.30388	6.10404	80.6961	-1.84374e-05
12637.3	2.90178	0.828993	3.01788	-15.9438	160.021	0.441079	-0.0509607	15.192	1.14634	1	37	0.00514099	0.00170351	0	-0.000220665	1.63967	1.20187	25.7088	4.25647e-05	3.15239e-05	2.78224e-05	2.33178e-05	2.23296e-05	3.90863e-05	0.463915	0.424265	10.383	1.23467e-06	2.92921e-06	4.01392e-06	3.42503e-06	2.64083e-06	3.58441e-06	0.318612	0.0910222	0.331359	15.9438	1146.34	4012.61	4173.14	-74.0562	0.0000000E+000	0.0000000E+000	0.0000000E+000	74.0562	0.0000000E+000	0.0000000E+000	0.0000000E+000	-74.0562	0.0000000E+000	0.0000000E+000	0.0000000E+000	-15.9438	0.0000000E+000	0.0000000E+000	0.0000000E+000	15.9438	3.50037	74.0562	-1.35799e-05
6332.63	3.11367	1.48089	3.4479	-25.4362	163.584	0.440932	-0.050998	16.9712	3.13077	1	37	0.00508216	0.00147399	0	-0.000272616	1.29449	0.845818	26.4237	1.81125e-05	1.94902e-05	3.49078e-05	2.657e-05	2.76574e-05	2.4419e-05	0.657644	0.360528	12.2128	4.11761e-06	2.75323e-06	3.437e-06	4.44878e-06	4.75705e-06	3.00506e-06	0.261917	0.12457	0.290032	25.4362	3130.77	6582.64	7289.23	-64.5638	0.0000000E+000	0.0000000E+000	0.0000000E+000	64.5638	0.0000000E+000	0.0000000E+000	0.0000000E+000	-64.5638	0.0000000E+000	0.0000000E+000	0.0000000E+000	-25.4362	0.0000000E+000	0.0000000E+000	0.0000000E+000	25.4362	2.10257	64.5638	-1.7956e-05
3171.96	3.67283	2.65409	4.53144	-35.8529	167.393	0.440959	-0.00286766	18.905	6.48541	1	38	0.00507782	0.00112058	0	-0.000292029	1.36055	0.855369	24.9312	1.30451e-05	3.92346e-05	2.56587e-05	2.30088e-05	2.71566e-05	2.9203e-05	0.223904	0.137834	2.69665	1.16331e-06	1.5265e-06	8.57534e-07	8.00944e-07	3.3522e-07	7.93404e-07	0.178867	0.129254	0.220681	35.8529	6485.41	8974.74	11072.8	-54.1471	0.0000000E+000	0.0000000E+000	0.0000000E+000	54.1471	0.0000000E+000	0.0000000E+000	0.0000000E+000	-54.1471	0.0000000E+000	0.0000000E+000	0.0000000E+000	-35.8529	0.0000000E+000	0.0000000E+000	0.0000000E+000	35.8529	1.38384	54.147	6.14246e-07
1589.49	5.01894	4.26316	6.58515	-40.345	170.713	0.440951	-0.00456948	23.4872	9.84376	1	38	0.00489419	0.000743216	0	-0.000296203	1.37473	1.03742	25.9647	2.66711e-05	3.15113e-05	2.22505e-05	3.03351e-05	1.79706e-05	1.71675e-05	0.368295	0.0804395	4.01312	2.02869e-06	1.11184e-06	7.64303e-07	9.20293e-07	5.48984e-07	3.92186e-07	0.115739	0.0983103	0.151857	40.345	9843.76	11588.9	15205.3	-49.655	0.0000000E+000	0.0000000E+000	0.0000000E+000	49.655	0.0000000E+000	0.0000000E+000	0.0000000E+000	-49.655	0.0000000E+000	0.0000000E+000	0.0000000E+000	-40.345	0.0000000E+000	0.0000000E+000	0.0000000E+000	40.345	1.17728	49.655	-1.49014e-06
796.787	7.59481	5.87085	9.59938	-37.7043	174.035	0.440951	-0.0049158	34.0233	12.726	1	38	0.00471273	0.000490941	0	-0.000301587	1.53934	0.804302	27.3916	3.34344e-05	1.58204e-05	2.33968e-05	2.90707e-05	4.33159e-05	6.16165e-06	0.480256	0.149663	6.19052	1.43157e-06	7.66777e-07	3.47186e-07	9.96768e-07	8.00243e-07	8.67489e-07	0.0824196	0.0637111	0.104173	37.7043	12726	16463	20808.2	-52.2957	0.0000000E+000	0.0000000E+000	0.0000000E+000	52.2957	0.0000000E+000	0.0000000E+000	0.0000000E+000	-52.2957	0.0000000E+000	0.0000000E+000	0.0000000E+000	-37.7043	0.0000000E+000	0.0000000E+000	0.0000000E+000	37.7043	1.29365	52.2957	-1.75159e-06
399.106	10.8303	6.81183	12.7944	-32.1682	177.359	0.440942	-0.00307622	58.542	16.5941	1	38	0.00463995	0.000362654	0	-0.000304397	2.14656	1.22001	27.7676	4.60805e-05	5.21843e-05	5.30738e-05	1.49738e-05	2.78098e-05	2.13567e-05	0.710188	0.371492	8.10901	1.70425e-06	1.14843e-06	6.51086e-07	8.92212e-07	3.97858e-07	5.20498e-07	0.0661608	0.0416124	0.0781591	32.1682	16594.1	26383.5	31168.2	-57.8318	0.0000000E+000	0.0000000E+000	0.0000000E+000	57.8318	0.0000000E+000	0.0000000E+000	0.0000000E+000	-57.8318	0.0000000E+000	0.0000000E+000	0.0000000E+000	-32.1682	0.0000000E+000	0.0000000E+000	0.0000000E+000	32.1682	1.58993	57.8318	-7.90772e-07
199.936	14.0768	7.25279	15.8354	-27.2588	180.671	0.440978	-0.00316559	109.755	23.0237	1	38	0.00461468	0.000291415	0	-0.000307461	1.47211	1.15512	28.1561	1.97831e-05	2.20994e-05	2.67038e-05	2.13668e-05	3.75297e-05	2.53734e-05	0.860802	0.428655	10.2297	2.07271e-06	3.41609e-07	5.56717e-07	8.09549e-07	5.98724e-07	5.51692e-07	0.0561366	0.0289232	0.0631496	27.2588	23023.7	44686.3	50268.8	-62.7412	0.0000000E+000	0.0000000E+000	0.0000000E+000	62.7412	0.0000000E+000	0.0000000E+000	0.0000000E+000	-62.7412	0.0000000E+000	0.0000000E+000	0.0000000E+000	-27.2588	0.0000000E+000	0.0000000E+000	0.0000000E+000	27.2588	1.94089	62.7412	-1.18752e-06
100.224	17.1125	7.87145	18.8361	-24.7016	183.987	0.440956	-0.00333875	201.74	35.2307	1	38	0.00460389	0.000244419	0	-0.000310205	1.62605	0.858845	28.0017	3.30755e-05	2.09726e-05	3.30446e-05	3.88438e-05	2.02444e-05	1.42744e-05	1.17555	0.334011	11.8826	1.88483e-06	7.90543e-07	5.42068e-07	1.6745e-06	4.8327e-07	6.21763e-07	0.0482318	0.0221858	0.0530897	24.7016	35230.7	76591.4	84305.6	-65.2984	0.0000000E+000	0.0000000E+000	0.0000000E+000	65.2984	0.0000000E+000	0.0000000E+000	0.0000000E+000	-65.2984	0.0000000E+000	0.0000000E+000	0.0000000E+000	-24.7016	0.0000000E+000	0.0000000E+000	0.0000000E+000	24.7016	2.17399	65.2984	-1.17367e-06
50.2089	20.4029	9.49598	22.5045	-24.9583	187.473	0.440963	-0.000169443	333.811	59.4347	1	39	0.00462795	0.000205646	0	-0.000311705	1.35227	0.824908	28.687	3.38777e-05	1.81402e-05	2.06889e-05	2.09639e-05	2.4984e-05	1.83969e-05	0.515121	0.167665	6.04887	8.86556e-07	2.47844e-07	2.34662e-07	1.77364e-07	2.79032e-07	2.38465e-07	0.0402859	0.01875	0.0444355	24.9583	59434.7	127701	140854	-65.0417	0.0000000E+000	0.0000000E+000	0.0000000E+000	65.0417	0.0000000E+000	0.0000000E+000	0.0000000E+000	-65.0417	0.0000000E+000	0.0000000E+000	0.0000000E+000	-24.9583	0.0000000E+000	0.0000000E+000	0.0000000E+000	24.9583	2.14859	65.0417	-1.32142e-07
25.1691	24.2198	11.8697	26.972	-26.1088	190.65	0.440938	-0.000281273	532.735	103.173	1	39	0.00459658	0.00017042	0	-0.000310764	1.64126	0.850094	28.9445	2.50845e-05	4.14206e-05	3.12606e-05	2.32686e-05	2.9203e-05	2.38092e-05	0.786579	0.224614	7.39326	1.07919e-06	3.5997e-07	2.6962e-07	3.72475e-07	3.51386e-07	3.44686e-07	0.0332923	0.0163161	0.0370755	26.1088	103173	210522	234444	-63.8912	0.0000000E+000	0.0000000E+000	0.0000000E+000	63.8912	0.0000000E+000	0.0000000E+000	0.0000000E+000	-63.8912	0.0000000E+000	0.0000000E+000	0.0000000E+000	-26.1088	0.0000000E+000	0.0000000E+000	0.0000000E+000	26.1088	2.04046	63.8912	4.46695e-07
12.6144	29.197	16.101	33.3422	-28.875	193.926	0.440956	-0.000251173	783.616	182.733	1	39	0.0046026	0.000138041	0	-0.000311028	0.602912	0.488793	20.1815	1.46566e-05	1.10571e-05	7.1826e-06	1.16438e-05	9.77476e-06	1.02277e-05	0.665216	0.177625	6.36494	7.51441e-07	2.3104e-07	2.99026e-07	2.87209e-07	1.50755e-07	1.02357e-07	0.0262632	0.0144831	0.029992	28.875	182733	331363	378408	-61.125	0.0000000E+000	0.0000000E+000	0.0000000E+000	61.125	0.0000000E+000	0.0000000E+000	0.0000000E+000	-61.125	0.0000000E+000	0.0000000E+000	0.0000000E+000	-28.875	0.0000000E+000	0.0000000E+000	0.0000000E+000	28.875	1.81337	61.125	-4.55434e-07
6.31569	36.0972	21.9413	42.2425	-31.2929	197.576	0.44096	-0.000336815	1148.51	309.858	1	39	0.00460073	0.000108912	0	-0.000311831	0.961875	0.59363	19.6908	1.13491e-05	1.66406e-05	2.19353e-05	1.55285e-05	1.56718e-05	1.87071e-05	0.63568	0.393689	7.85552	5.42175e-07	1.35097e-07	1.57726e-07	1.57162e-07	1.78041e-07	1.78233e-07	0.020229	0.012296	0.0236728	31.2929	309858	509769	596554	-58.7071	0.0000000E+000	0.0000000E+000	0.0000000E+000	58.7071	0.0000000E+000	0.0000000E+000	0.0000000E+000	-58.7071	0.0000000E+000	0.0000000E+000	0.0000000E+000	-31.2929	0.0000000E+000	0.0000000E+000	0.0000000E+000	31.2929	1.64517	58.7071	-1.06839e-06
3.16616	45.4272	30.7042	54.8304	-34.0547	203.419	0.440974	-0.000464744	1637.15	513.383	1	39	0.00460593	8.40032e-05	0	-0.000312197	0.744034	0.434175	12.1862	1.45373e-05	1.02132e-05	1.10447e-05	9.53103e-06	1.22851e-05	1.85303e-05	0.731925	0.361432	6.72072	4.91608e-07	1.45048e-07	1.20003e-07	2.33149e-07	1.07805e-07	1.25822e-07	0.0151103	0.010213	0.018238	34.0547	513383	759555	916781	-55.9453	0.0000000E+000	0.0000000E+000	0.0000000E+000	55.9453	0.0000000E+000	0.0000000E+000	0.0000000E+000	-55.9453	0.0000000E+000	0.0000000E+000	0.0000000E+000	-34.0547	0.0000000E+000	0.0000000E+000	0.0000000E+000	34.0547	1.47951	55.9453	1.16378e-06
1.5871	58.3238	42.7167	72.2937	-36.2193	214.697	0.440957	-0.000153883	2347.57	819.62	1	40	0.00459611	6.35755e-05	0	-0.000315128	0.684997	0.318815	12.238	1.05233e-05	1.31717e-05	9.47948e-06	1.0314e-05	1.81746e-05	8.68168e-06	0.783099	0.223248	1.17912	4.82751e-07	6.44109e-08	4.75957e-08	6.89974e-08	2.50514e-08	3.31382e-08	0.0111595	0.00817328	0.0138325	36.2193	819620	1.11908e+06	1.38712e+06	-53.7807	0.0000000E+000	0.0000000E+000	0.0000000E+000	53.7807	0.0000000E+000	0.0000000E+000	0.0000000E+000	-53.7807	0.0000000E+000	0.0000000E+000	0.0000000E+000	-36.2193	0.0000000E+000	0.0000000E+000	0.0000000E+000	36.2193	1.36536	53.7807	-2.69853e-06
0.79456	76.7724	60.0886	97.4918	-38.0498	234.37	0.440963	-0.000147193	3333.51	1266.34	1	40	0.00460061	4.71897e-05	0	-0.000312097	0.38949	0.290923	8.32292	6.22568e-06	6.17929e-06	7.77695e-06	5.60005e-06	6.51105e-06	8.55056e-06	0.792091	0.222415	1.20737	3.59655e-07	3.35659e-08	3.86593e-08	7.24164e-08	2.17373e-08	3.16431e-08	0.00807736	0.00632203	0.0102573	38.0498	1.26634e+06	1.61794e+06	2.05459e+06	-51.9502	0.0000000E+000	0.0000000E+000	0.0000000E+000	51.9502	0.0000000E+000	0.0000000E+000	0.0000000E+000	-51.9502	0.0000000E+000	0.0000000E+000	0.0000000E+000	-38.0498	0.0000000E+000	0.0000000E+000	0.0000000E+000	38.0498	1.27765	51.9502	4.03207e-06
0.398211	102.506	84.3303	132.737	-39.4438	272.498	0.440982	-0.000108617	4739.39	1912.97	1	40	0.00459786	3.4639e-05	0	-0.000315764	0.266265	0.212456	5.51996	5.39648e-06	3.43805e-06	1.87656e-06	3.43416e-06	6.83676e-06	6.1836e-06	0.73961	0.323542	1.27905	2.38698e-07	3.47937e-08	3.20083e-08	6.97597e-08	2.26577e-08	2.40233e-08	0.0058179	0.00478632	0.00753371	39.4438	1.91297e+06	2.32527e+06	3.01104e+06	-50.5562	0.0000000E+000	0.0000000E+000	0.0000000E+000	50.5562	0.0000000E+000	0.0000000E+000	0.0000000E+000	-50.5562	0.0000000E+000	0.0000000E+000	0.0000000E+000	-39.4438	0.0000000E+000	0.0000000E+000	0.0000000E+000	39.4438	1.21553	50.5562	2.6926e-06
0.199573	138.317	118.52	182.15	-40.5923	355.666	0.44098	-0.000142621	6728.62	2848.73	1	41	0.00459302	2.52156e-05	0	-0.000321696	0.308477	0.169853	5.25683	3.05022e-06	5.34777e-06	6.63207e-06	5.34485e-06	3.13946e-06	6.2388e-06	0.79906	0.132129	0.79978	1.97556e-07	1.03614e-08	8.53495e-09	3.54752e-08	5.98814e-09	7.35585e-09	0.00416887	0.00357218	0.00548998	40.5923	2.84872e+06	3.32457e+06	4.37812e+06	-49.4077	0.0000000E+000	0.0000000E+000	0.0000000E+000	49.4077	0.0000000E+000	0.0000000E+000	0.0000000E+000	-49.4077	0.0000000E+000	0.0000000E+000	0.0000000E+000	-40.5923	0.0000000E+000	0.0000000E+000	0.0000000E+000	40.5923	1.16704	49.4077	-6.56447e-06
0.0999518	188.965	167.138	252.275	-41.4925	504.722	0.440965	-0.000132288	9526.96	4181.72	1	41	0.00459337	1.82078e-05	0	-0.000322037	0.265158	0.223546	4.82383	4.29468e-06	3.3442e-06	5.06509e-06	6.24308e-06	5.39071e-06	3.51236e-06	0.82037	0.16719	0.942364	1.4564e-07	9.03308e-09	7.51853e-09	2.97459e-08	4.99042e-09	5.84364e-09	0.00296915	0.00262619	0.00396392	41.4925	4.18172e+06	4.72782e+06	6.31182e+06	-48.5075	0.0000000E+000	0.0000000E+000	0.0000000E+000	48.5075	0.0000000E+000	0.0000000E+000	0.0000000E+000	-48.5075	0.0000000E+000	0.0000000E+000	0.0000000E+000	-41.4925	0.0000000E+000	0.0000000E+000	0.0000000E+000	41.4925	1.13059	48.5075	3.95951e-06
252347	2.94872	0.0937717	2.95021	-1.82144	510.551	0.441047	-0.0450237	6.72588	0.00679497	2	37	0.00520736	0.00176508	0	-0.000421695	-1	-1	-1	0	0	0	0	0	0	-1	-1	-1	0	0	0	0	0	0	0.338788	0.0107737	0.338959	1.82144	6.79497	213.673	213.781	-88.1786	0.0000000E+000	0.0000000E+000	0.0000000E+000	88.1786	0.0000000E+000	0.0000000E+000	0.0000000E+000	-88.1786	0.0000000E+000	0.0000000E+000	0.0000000E+000	-1.82144	0.0000000E+000	0.0000000E+000	0.0000000E+000	1.82144	31.4457	88.1786	-1.59312e-05
126447	2.76306	0.111554	2.76532	-2.31196	513.995	0.44104	-0.0486715	11.283	0.0183614	2	37	0.00517229	0.00187042	0	-0.000469408	-1	-1	-1	0	0	0	0	0	0	-1	-1	-1	0	0	0	0	0	0	0.361328	0.014588	0.361622	2.31196	18.3614	454.791	455.161	-87.688	0.0000000E+000	0.0000000E+000	0.0000000E+000	87.688	0.0000000E+000	0.0000000E+000	0.0000000E+000	-87.688	0.0000000E+000	0.0000000E+000	0.0000000E+000	-2.31196	0.0000000E+000	0.0000000E+000	0.0000000E+000	2.31196	24.7689	87.688	-2.00648e-05
63362.9	2.74526	0.21086	2.75335	-4.3922	517.439	0.441077	-0.0538641	11.9122	0.0698648	2	37	0.00525663	0.00190918	0	-0.000518335	1.42854	1.32111	24.9396	1.48905e-05	3.25501e-05	2.02669e-05	2.95547e-05	3.29563e-05	3.74632e-05	0.575218	0.227659	9.2014	6.10106e-06	4.3236e-06	3.10258e-06	4.58557e-06	3.02305e-06	2.94654e-06	0.362128	0.0278146	0.363194	4.3922	69.8647	909.593	912.272	-85.6078	0.0000000E+000	0.0000000E+000	0.0000000E+000	85.6078	0.0000000E+000	0.0000000E+000	0.0000000E+000	-85.6078	0.0000000E+000	0.0000000E+000	0.0000000E+000	-4.3922	0.0000000E+000	0.0000000E+000	0.0000000E+000	4.3922	13.0193	85.6078	-1.59006e-05
31751	2.76717	0.420109	2.79888	-8.63265	520.883	0.441059	-0.0481504	11.9317	0.268816	2	37	0.00517951	0.00185056	0	-0.000571454	1.2044	0.601104	25.8116	3.02891e-05	2.7146e-05	2.62404e-05	1.74107e-05	2.00741e-05	2.48167e-05	0.604288	0.258045	9.52783	2.93831e-06	4.601e-06	5.90117e-06	3.47754e-06	4.63088e-06	3.02455e-06	0.353238	0.0536281	0.357285	8.63265	268.815	1770.64	1790.93	-81.3674	0.0000000E+000	0.0000000E+000	0.0000000E+000	81.3674	0.0000000E+000	0.0000000E+000	0.0000000E+000	-81.3674	0.0000000E+000	0.0000000E+000	0.0000000E+000	-8.63265	0.0000000E+000	0.0000000E+000	0.0000000E+000	8.63265	6.58681	81.3674	-1.52217e-05
15912.6	2.84127	0.743266	2.93688	-14.6599	524.327	0.441057	-0.0589077	13.4566	0.861888	2	37	0.00512951	0.00174659	0	-0.000623231	1.32543	0.690662	25.6698	3.17223e-05	1.54651e-05	1.80283e-05	2.57616e-05	2.47705e-05	2.61014e-05	0.620727	0.357518	10.0893	6.26152e-06	2.40485e-06	4.8863e-06	3.51711e-06	1.27715e-06	4.0489e-06	0.329413	0.0861734	0.340498	14.6599	861.888	3294.72	3405.59	-75.3401	0.0000000E+000	0.0000000E+000	0.0000000E+000	75.3401	0.0000000E+000	0.0000000E+000	0.0000000E+000	-75.3401	0.0000000E+000	0.0000000E+000	0.0000000E+000	-14.6599	0.0000000E+000	0.0000000E+000	0.0000000E+000	14.6599	3.82268	75.3401	-1.92665e-05
7967.67	2.9945	1.35015	3.2848	-24.2694	527.8	0.440933	-0.0522263	14.7948	2.49949	2	37	0.00509115	0.00154991	0	-0.000675633	1.58789	0.940572	26.3096	1.65285e-05	3.20095e-05	2.53113e-05	5.35827e-05	2.38303e-05	1.99089e-05	0.668529	0.375604	11.5531	4.81333e-06	3.84145e-06	5.21743e-06	4.12176e-06	1.8594e-06	3.71266e-06	0.277527	0.12513	0.304432	24.2694	2499.49	5543.64	6081.07	-65.7306	0.0000000E+000	0.0000000E+000	0.0000000E+000	65.7306	0.0000000E+000	0.0000000E+000	0.0000000E+000	-65.7306	0.0000000E+000	0.0000000E+000	0.0000000E+000	-24.2694	0.0000000E+000	0.0000000E+000	0.0000000E+000	24.2694	2.21791	65.7306	-2.06553e-05
3993.72	3.36241	2.52751	4.20644	-36.9321	531.556	0.440926	-0.00569035	15.767	5.69255	2	38	0.00538443	0.00128004	0	-0.000712769	1.26377	0.710681	23.9155	2.42569e-05	2.7903e-05	2.71295e-05	2.84641e-05	2.41362e-05	1.82442e-05	0.147236	0.0757881	2.32844	6.38464e-07	7.78268e-07	9.20487e-07	9.14276e-07	5.60794e-07	3.93663e-07	0.19003	0.142845	0.237731	36.9321	5692.55	7572.93	9473.88	-53.0679	0.0000000E+000	0.0000000E+000	0.0000000E+000	53.0679	0.0000000E+000	0.0000000E+000	0.0000000E+000	-53.0679	0.0000000E+000	0.0000000E+000	0.0000000E+000	-36.9321	0.0000000E+000	0.0000000E+000	0.0000000E+000	36.9321	1.33032	53.0679	-4.96262e-06
2001.92	4.35301	4.40788	6.19501	-45.3588	535.095	0.440948	-0.00491207	18.0361	9.13103	2	38	0.00487325	0.000786641	0	-0.000718633	1.03101	0.897674	25.7405	1.54669e-05	1.4525e-05	1.89552e-05	2.62123e-05	1.9083e-05	1.55626e-05	0.345654	0.137851	3.83852	2.03081e-06	6.8141e-07	6.27148e-07	9.51292e-07	8.46383e-07	4.1723e-07	0.113424	0.114854	0.16142	45.3588	9131.03	9017.37	12833.1	-44.6412	0.0000000E+000	0.0000000E+000	0.0000000E+000	44.6412	0.0000000E+000	0.0000000E+000	0.0000000E+000	-44.6412	0.0000000E+000	0.0000000E+000	0.0000000E+000	-45.3588	0.0000000E+000	0.0000000E+000	0.0000000E+000	45.3588	0.987552	44.6412	-1.4148e-06
1002.75	6.8248	6.97301	9.75709	-45.6154	538.417	0.440948	-0.0056401	22.7618	11.6254	2	38	0.00461019	0.000472497	0	-0.000723408	1.66678	0.768023	27.517	4.44988e-05	3.04922e-05	2.17402e-05	2.36717e-05	2.7618e-05	1.63259e-05	0.51371	0.172659	6.28092	8.96677e-07	8.06596e-07	3.76076e-07	1.6957e-06	7.93482e-07	7.19169e-07	0.0716885	0.0732453	0.10249	45.6154	11625.4	11378.3	16267	-44.3846	0.0000000E+000	0.0000000E+000	0.0000000E+000	44.3846	0.0000000E+000	0.0000000E+000	0.0000000E+000	-44.3846	0.0000000E+000	0.0000000E+000	0.0000000E+000	-45.6154	0.0000000E+000	0.0000000E+000	0.0000000E+000	45.6154	0.978746	44.3846	-1.73576e-06
502.588	11.0516	8.94863	14.2202	-38.9976	541.96	0.44099	-0.00238358	35.3876	14.0136	2	38	0.00495715	0.000348598	0	-0.000726308	1.43277	0.637441	25.4911	2.4946e-05	2.78756e-05	3.13514e-05	2.05471e-05	2.73859e-05	2.72448e-05	0.571499	0.19577	8.43196	8.84556e-07	5.76026e-07	1.04248e-06	5.79079e-07	7.66659e-07	6.77856e-07	0.0546525	0.044253	0.0703223	38.9976	14013.6	17306.9	22269	-51.0024	0.0000000E+000	0.0000000E+000	0.0000000E+000	51.0024	0.0000000E+000	0.0000000E+000	0.0000000E+000	-51.0024	0.0000000E+000	0.0000000E+000	0.0000000E+000	-38.9976	0.0000000E+000	0.0000000E+000	0.0000000E+000	38.9976	1.235	51.0024	-1.43752e-06
251.853	15.8165	9.43324	18.416	-30.8126	545.273	0.440996	-0.00229235	66.9902	17.577	2	38	0.00490793	0.000266504	0	-0.000728319	1.3026	0.74451	25.8455	1.60049e-05	3.06821e-05	1.54228e-05	1.88979e-05	3.30732e-05	2.86357e-05	0.727815	0.264114	11.3295	9.78939e-07	8.69801e-07	6.04815e-07	6.15798e-07	8.8878e-07	3.11181e-07	0.046636	0.0278146	0.0543007	30.8126	17577	29470.9	34314.5	-59.1874	0.0000000E+000	0.0000000E+000	0.0000000E+000	59.1874	0.0000000E+000	0.0000000E+000	0.0000000E+000	-59.1874	0.0000000E+000	0.0000000E+000	0.0000000E+000	-30.8126	0.0000000E+000	0.0000000E+000	0.0000000E+000	30.8126	1.67668	59.1874	-7.99268e-07
126.171	20.1033	9.4558	22.2161	-25.1904	548.589	0.440965	-0.00122732	133.402	24.167	2	38	0.00491946	0.000221437	0	-0.000729587	1.00711	0.629647	26.5374	2.77567e-05	2.19592e-05	8.32842e-06	1.31095e-05	1.0785e-05	2.57099e-05	0.89333	0.463728	13.416	1.56244e-06	4.06557e-07	4.6867e-07	6.26413e-07	4.54119e-07	5.45019e-07	0.0407316	0.0191585	0.0450124	25.1904	24167	51379.8	56779.6	-64.8096	0.0000000E+000	0.0000000E+000	0.0000000E+000	64.8096	0.0000000E+000	0.0000000E+000	0.0000000E+000	-64.8096	0.0000000E+000	0.0000000E+000	0.0000000E+000	-25.1904	0.0000000E+000	0.0000000E+000	0.0000000E+000	25.1904	2.12603	64.8096	-4.64401e-07
63.2394	23.785	10.2226	25.8888	-23.2576	552.111	0.440957	-0.000175035	246.191	38.3858	2	39	0.00493195	0.000190505	0	-0.000730308	1.11976	0.552174	26.6967	2.42073e-05	2.22677e-05	2.80446e-05	1.25337e-05	1.27656e-05	1.82722e-05	0.568536	0.168198	6.58647	9.11622e-07	2.13256e-07	2.98247e-07	2.21837e-07	1.4775e-07	2.7446e-07	0.0354879	0.0152524	0.0386268	23.2576	38385.7	89312.6	97212.2	-66.7424	0.0000000E+000	0.0000000E+000	0.0000000E+000	66.7424	0.0000000E+000	0.0000000E+000	0.0000000E+000	-66.7424	0.0000000E+000	0.0000000E+000	0.0000000E+000	-23.2576	0.0000000E+000	0.0000000E+000	0.0000000E+000	23.2576	2.32671	66.7424	-1.72791e-07
31.6723	27.6186	12.1406	30.1692	-23.7293	555.286	0.440997	-0.000517788	413.906	67.0274	2	39	0.00491502	0.000162915	0	-0.000730249	1.41481	0.608344	26.5537	4.00546e-05	2.15147e-05	3.28358e-05	2.70476e-05	2.53565e-05	9.73587e-06	0.597905	0.221918	7.48484	6.90316e-07	2.52971e-07	2.27781e-07	2.86615e-07	3.05623e-07	2.70646e-07	0.0303441	0.0133386	0.0331464	23.7293	67027.4	152481	166562	-66.2707	0.0000000E+000	0.0000000E+000	0.0000000E+000	66.2707	0.0000000E+000	0.0000000E+000	0.0000000E+000	-66.2707	0.0000000E+000	0.0000000E+000	0.0000000E+000	-23.7293	0.0000000E+000	0.0000000E+000	0.0000000E+000	23.7293	2.2749	66.2707	5.55103e-08
15.879	32.2927	15.238	35.7074	-25.2613	558.457	0.44097	-0.0001605	657.759	119.787	2	39	0.00489402	0.000137059	0	-0.000730027	1.47591	0.633964	26.6105	3.3262e-05	3.88163e-05	1.96607e-05	2.83752e-05	2.38965e-05	2.30939e-05	0.500269	0.256273	9.0001	3.74761e-07	3.21497e-07	2.97333e-07	1.85935e-07	1.19083e-07	2.0709e-07	0.0253273	0.0119513	0.0280054	25.2613	119787	253854	280697	-64.7387	0.0000000E+000	0.0000000E+000	0.0000000E+000	64.7387	0.0000000E+000	0.0000000E+000	0.0000000E+000	-64.7387	0.0000000E+000	0.0000000E+000	0.0000000E+000	-25.2613	0.0000000E+000	0.0000000E+000	0.0000000E+000	25.2613	2.11922	64.7387	3.6836e-07
7.95573	38.6254	20.1708	43.575	-27.5743	561.893	0.440979	-0.000287704	991.785	212.514	2	39	0.00490886	0.000112653	0	-0.000730487	0.743369	0.440715	16.9587	7.98864e-06	1.59935e-05	1.20885e-05	1.26226e-05	1.19001e-05	1.91908e-05	0.589506	0.35227	7.22777	4.59074e-07	2.01484e-07	9.40426e-08	1.95949e-07	1.11538e-07	2.98534e-07	0.0203422	0.010623	0.0229489	27.5743	212514	406947	459095	-62.4257	0.0000000E+000	0.0000000E+000	0.0000000E+000	62.4257	0.0000000E+000	0.0000000E+000	0.0000000E+000	-62.4257	0.0000000E+000	0.0000000E+000	0.0000000E+000	-27.5743	0.0000000E+000	0.0000000E+000	0.0000000E+000	27.5743	1.91492	62.4257	1.41523e-07
3.98597	46.5959	27.6456	54.1799	-30.6809	566.813	0.440968	-0.000165254	1444.31	376.042	2	39	0.00489668	9.03782e-05	0	-0.000731588	0.730687	0.453945	12.572	1.0255e-05	1.58885e-05	1.04878e-05	1.4237e-05	1.27371e-05	1.60149e-05	0.576258	0.219688	7.0452	3.65905e-07	2.11691e-07	1.56325e-07	1.53391e-07	7.98674e-08	1.54645e-07	0.0158735	0.00941781	0.018457	30.6809	376042	633808	736966	-59.3191	0.0000000E+000	0.0000000E+000	0.0000000E+000	59.3191	0.0000000E+000	0.0000000E+000	0.0000000E+000	-59.3191	0.0000000E+000	0.0000000E+000	0.0000000E+000	-30.6809	0.0000000E+000	0.0000000E+000	0.0000000E+000	30.6809	1.68547	59.3191	1.40198e-07
1.99783	58.2327	38.3657	69.735	-33.3782	576.189	0.44099	-0.000186268	2076.44	628.497	2	40	0.004906	7.0352e-05	0	-0.000733733	0.782116	0.257625	12.3344	1.55731e-05	1.22768e-05	1.24152e-05	1.89268e-05	1.02325e-05	1.36727e-05	0.691828	0.231855	1.12081	4.63756e-07	5.91033e-08	4.28816e-08	1.1106e-07	3.19178e-08	3.58801e-08	0.0119747	0.00788935	0.01434	33.3782	628497	953953	1.14238e+06	-56.6218	0.0000000E+000	0.0000000E+000	0.0000000E+000	56.6218	0.0000000E+000	0.0000000E+000	0.0000000E+000	-56.6218	0.0000000E+000	0.0000000E+000	0.0000000E+000	-33.3782	0.0000000E+000	0.0000000E+000	0.0000000E+000	33.3782	1.51783	56.6217	-1.57752e-06
1.00122	74.1383	53.7014	91.5442	-35.9173	592.055	0.440966	-0.000141535	2960.1	1018.63	2	40	0.00490009	5.3527e-05	0	-0.000734562	0.560345	0.170582	8.76673	1.2947e-05	9.52163e-06	9.14449e-06	1.06339e-05	1.01967e-05	1.13318e-05	0.787689	0.270027	1.15036	4.07205e-07	5.41718e-08	3.99557e-08	4.26188e-08	3.76472e-08	2.52215e-08	0.0088467	0.00640803	0.0109237	35.9173	1.01863e+06	1.40629e+06	1.73645e+06	-54.0827	0.0000000E+000	0.0000000E+000	0.0000000E+000	54.0827	0.0000000E+000	0.0000000E+000	0.0000000E+000	-54.0827	0.0000000E+000	0.0000000E+000	0.0000000E+000	-35.9173	0.0000000E+000	0.0000000E+000	0.0000000E+000	35.9173	1.38057	54.0827	-3.01386e-06
0.501541	96.4955	75.4089	122.466	-38.0067	622.55	0.440973	-0.000182535	4208.15	1595.53	2	40	0.00490278	4.00339e-05	0	-0.000735593	0.261775	0.113798	5.93636	3.52903e-06	3.82927e-06	5.53311e-06	5.51487e-06	2.69476e-06	6.45412e-06	0.788129	0.328183	1.1465	3.04431e-07	3.57598e-08	3.52563e-08	5.62424e-08	1.78318e-08	1.86269e-08	0.00643394	0.00502797	0.00816554	38.0067	1.59553e+06	2.0417e+06	2.59119e+06	-51.9933	0.0000000E+000	0.0000000E+000	0.0000000E+000	51.9933	0.0000000E+000	0.0000000E+000	0.0000000E+000	-51.9933	0.0000000E+000	0.0000000E+000	0.0000000E+000	-38.0067	0.0000000E+000	0.0000000E+000	0.0000000E+000	38.0067	1.27963	51.9933	-4.63682e-06
0.251222	128.218	105.883	166.286	-39.5499	690.459	0.440986	-8.17372e-05	5983.27	2425.92	2	41	0.00489763	2.9453e-05	0	-0.00073161	0.335039	0.159404	5.50826	4.34674e-06	5.64189e-06	3.43382e-06	7.04342e-06	6.06183e-06	9.05903e-06	0.822048	0.0756386	0.624168	2.38128e-07	8.10987e-09	8.48071e-09	4.08925e-08	5.19897e-09	5.00584e-09	0.00463701	0.00382925	0.00601374	39.5499	2.42592e+06	2.93766e+06	3.80985e+06	-50.4501	0.0000000E+000	0.0000000E+000	0.0000000E+000	50.4501	0.0000000E+000	0.0000000E+000	0.0000000E+000	-50.4501	0.0000000E+000	0.0000000E+000	0.0000000E+000	-39.5499	0.0000000E+000	0.0000000E+000	0.0000000E+000	39.5499	1.21095	50.4501	3.59213e-06
0.125939	173.504	149.093	228.762	-40.6727	809.021	0.440965	-7.49977e-05	8476.25	3600.39	2	41	0.00490568	2.14444e-05	0	-0.000746751	0.24096	0.154679	3.89765	4.29566e-06	4.08e-06	4.7572e-06	4.11894e-06	4.54002e-06	5.44341e-06	0.85683	0.179878	0.805617	1.76342e-07	1.86011e-08	1.35501e-08	3.81775e-08	9.10193e-09	1.06997e-08	0.00331542	0.00284897	0.00437135	40.6727	3.60038e+06	4.18987e+06	5.52429e+06	-49.3273	0.0000000E+000	0.0000000E+000	0.0000000E+000	49.3273	0.0000000E+000	0.0000000E+000	0.0000000E+000	-49.3273	0.0000000E+000	0.0000000E+000	0.0000000E+000	-40.6727	0.0000000E+000	0.0000000E+000	0.0000000E+000	40.6727	1.16373	49.3273	-6.02132e-06
317705	3.07196	0.133586	3.07487	-2.48997	874.799	0.441067	-0.0257797	3.75003	0.0070779	3	37	0.00510809	0.00166124	0	-0.000796547	-1	-1	-1	0	0	0	0	0	0	-1	-1	-1	0	0	0	0	0	0	0.32491	0.0141289	0.325217	2.48997	7.07789	162.764	162.918	-87.51	0.0000000E+000	0.0000000E+000	0.0000000E+000	87.51	0.0000000E+000	0.0000000E+000	0.0000000E+000	-87.51	0.0000000E+000	0.0000000E+000	0.0000000E+000	-2.48997	0.0000000E+000	0.0000000E+000	0.0000000E+000	2.48997	22.9961	87.51	-7.30699e-06
159201	2.81566	0.106605	2.81768	-2.16827	878.242	0.441058	-0.0326845	9.37772	0.0134237	3	37	0.00522563	0.00185459	0	-0.00083206	-1	-1	-1	0	0	0	0	0	0	-1	-1	-1	0	0	0	0	0	0	0.354648	0.0134275	0.354902	2.16827	13.4237	354.547	354.801	-87.8317	0.0000000E+000	0.0000000E+000	0.0000000E+000	87.8317	0.0000000E+000	0.0000000E+000	0.0000000E+000	-87.8317	0.0000000E+000	0.0000000E+000	0.0000000E+000	-2.16827	0.0000000E+000	0.0000000E+000	0.0000000E+000	2.16827	26.412	87.8317	-1.18489e-05
79767.3	2.74358	0.189962	2.75015	-3.96076	881.686	0.441063	-0.0324053	10.5034	0.0501128	3	37	0.00516505	0.0018781	0	-0.000859713	1.25189	1.3346	25.6476	3.18355e-05	2.84483e-05	2.23927e-05	2.13768e-05	2.70256e-05	1.93888e-05	0.471423	0.385441	9.22045	3.54569e-06	2.78268e-06	3.19486e-06	2.62828e-06	3.4003e-06	4.1301e-06	0.362748	0.0251162	0.363616	3.96076	50.1128	723.769	725.502	-86.0392	0.0000000E+000	0.0000000E+000	0.0000000E+000	86.0392	0.0000000E+000	0.0000000E+000	0.0000000E+000	-86.0392	0.0000000E+000	0.0000000E+000	0.0000000E+000	-3.96076	0.0000000E+000	0.0000000E+000	0.0000000E+000	3.96076	14.4428	86.0392	-7.43015e-06
39971.8	2.74813	0.353135	2.77073	-7.3224	885.131	0.441076	-0.0320331	11.2752	0.183156	3	37	0.00513756	0.00185423	0	-0.000892348	1.65793	0.643639	26.021	5.02242e-05	2.68127e-05	1.81988e-05	3.0797e-05	2.60793e-05	2.77165e-05	0.622244	0.30296	9.45427	7.57839e-06	2.00698e-06	6.23537e-06	3.11179e-06	3.73245e-06	1.57447e-06	0.357973	0.0459996	0.360916	7.3224	183.156	1425.33	1437.05	-82.6776	0.0000000E+000	0.0000000E+000	0.0000000E+000	82.6776	0.0000000E+000	0.0000000E+000	0.0000000E+000	-82.6776	0.0000000E+000	0.0000000E+000	0.0000000E+000	-7.3224	0.0000000E+000	0.0000000E+000	0.0000000E+000	7.3224	7.78208	82.6776	-1.14738e-05
20032.3	2.82884	0.634579	2.89915	-12.6435	888.576	0.44108	-0.0314003	12.52	0.599839	3	37	0.00513028	0.00176958	0	-0.000917238	1.20794	0.726806	25.7787	2.85797e-05	2.37404e-05	1.58887e-05	2.44721e-05	2.91085e-05	1.12546e-05	0.534332	0.335818	9.981	1.54041e-06	5.09456e-06	2.71296e-06	3.84875e-06	2.42458e-06	5.28486e-06	0.336565	0.0754997	0.344929	12.6435	599.839	2673.98	2740.43	-77.3565	0.0000000E+000	0.0000000E+000	0.0000000E+000	77.3565	0.0000000E+000	0.0000000E+000	0.0000000E+000	-77.3565	0.0000000E+000	0.0000000E+000	0.0000000E+000	-12.6435	0.0000000E+000	0.0000000E+000	0.0000000E+000	12.6435	4.45783	77.3565	-5.22408e-06
10039.3	2.93621	1.15637	3.15571	-21.496	892.02	0.441071	-0.0280689	13.7094	1.84084	3	37	0.00506481	0.00160497	0	-0.000947883	1.37844	0.792169	26.3386	2.72389e-05	2.37229e-05	1.70165e-05	2.32369e-05	3.82024e-05	2.55094e-05	0.605444	0.312582	10.9947	2.94443e-06	2.90075e-06	4.6553e-06	2.19174e-06	4.13954e-06	4.71199e-06	0.294844	0.116119	0.316886	21.496	1840.84	4674.2	5023.63	-68.504	0.0000000E+000	0.0000000E+000	0.0000000E+000	68.504	0.0000000E+000	0.0000000E+000	0.0000000E+000	-68.504	0.0000000E+000	0.0000000E+000	0.0000000E+000	-21.496	0.0000000E+000	0.0000000E+000	0.0000000E+000	21.496	2.53917	68.504	-8.47146e-06
5028.39	3.20099	2.13019	3.845	-33.643	895.556	0.440958	-0.0289436	14.8584	4.56055	3	37	0.00525513	0.00136674	0	-0.000975085	1.31767	0.828067	25.6221	2.91185e-05	2.42992e-05	2.8284e-05	3.64676e-05	2.17977e-05	1.4269e-05	0.689845	0.302952	13.0473	2.51979e-06	4.27566e-06	3.48612e-06	3.54752e-06	2.769e-06	4.50152e-06	0.216516	0.144087	0.260078	33.643	4560.54	6853.02	8231.79	-56.357	0.0000000E+000	0.0000000E+000	0.0000000E+000	56.357	0.0000000E+000	0.0000000E+000	0.0000000E+000	-56.357	0.0000000E+000	0.0000000E+000	0.0000000E+000	-33.643	0.0000000E+000	0.0000000E+000	0.0000000E+000	33.643	1.50267	56.357	-8.40607e-06
2519.19	3.93465	3.89093	5.53361	-44.6799	899.35	0.44096	-0.00369622	16.237	8.02779	3	38	0.00522396	0.000944041	0	-0.000981533	1.35089	0.589112	24.481	2.05064e-05	2.53229e-05	4.037e-05	1.51738e-05	2.86028e-05	2.19659e-05	0.265122	0.0968666	3.15547	1.81631e-06	8.9386e-07	3.79003e-07	7.43326e-07	9.37408e-07	5.69081e-07	0.128496	0.127068	0.180714	44.6799	8027.79	8117.98	11417	-45.3201	0.0000000E+000	0.0000000E+000	0.0000000E+000	45.3201	0.0000000E+000	0.0000000E+000	0.0000000E+000	-45.3201	0.0000000E+000	0.0000000E+000	0.0000000E+000	-44.6799	0.0000000E+000	0.0000000E+000	0.0000000E+000	44.6799	1.01124	45.3201	-9.59945e-07
1262.98	5.81259	6.52891	8.74144	-48.3218	902.669	0.440974	-0.00285278	19.3012	10.7671	3	38	0.00482518	0.000551989	0	-0.000984327	1.12995	1.29822	27.1063	1.97975e-05	2.69145e-05	1.94759e-05	1.61551e-05	2.2864e-05	1.62674e-05	0.404693	0.182081	5.43597	1.43469e-06	8.86324e-07	6.02624e-07	1.13453e-06	4.23946e-07	3.5497e-07	0.0760682	0.0854426	0.114398	48.3218	10767.1	9585.78	14415.9	-41.6782	0.0000000E+000	0.0000000E+000	0.0000000E+000	41.6782	0.0000000E+000	0.0000000E+000	0.0000000E+000	-41.6782	0.0000000E+000	0.0000000E+000	0.0000000E+000	-48.3218	0.0000000E+000	0.0000000E+000	0.0000000E+000	48.3218	0.890284	41.6782	-1.03058e-06
632.773	9.82939	9.2941	13.5277	-43.3966	905.99	0.440953	-0.00151592	27.0623	12.7742	3	38	0.0046857	0.00034638	0	-0.000986323	1.78295	0.569798	27.2873	2.70726e-05	5.38127e-05	2.59134e-05	3.04209e-05	2.52278e-05	1.7496e-05	0.693242	0.254465	8.72712	1.57952e-06	9.05248e-07	6.04331e-07	6.42269e-07	8.49534e-07	4.16715e-07	0.0537133	0.0507882	0.0739227	43.3966	12774.2	13510	18593	-46.6034	0.0000000E+000	0.0000000E+000	0.0000000E+000	46.6034	0.0000000E+000	0.0000000E+000	0.0000000E+000	-46.6034	0.0000000E+000	0.0000000E+000	0.0000000E+000	-43.3966	0.0000000E+000	0.0000000E+000	0.0000000E+000	43.3966	1.05759	46.6034	-1.52626e-07
316.927	15.2281	10.5853	18.5457	-34.8036	909.309	0.440992	-0.00040062	47.4416	15.4552	3	38	0.00463059	0.000249685	0	-0.000986928	1.48799	0.590333	28.062	3.53477e-05	3.31637e-05	2.47118e-05	1.5144e-05	1.80297e-05	2.32905e-05	0.729561	0.419182	11.9689	1.11524e-06	6.10349e-07	6.95564e-07	6.95068e-07	2.58468e-07	5.31948e-07	0.044275	0.0307761	0.0539208	34.8036	15455.2	22234.1	27078	-55.1964	0.0000000E+000	0.0000000E+000	0.0000000E+000	55.1964	0.0000000E+000	0.0000000E+000	0.0000000E+000	-55.1964	0.0000000E+000	0.0000000E+000	0.0000000E+000	-34.8036	0.0000000E+000	0.0000000E+000	0.0000000E+000	34.8036	1.43862	55.1964	-9.77947e-08
158.831	20.3035	10.3312	22.7808	-26.9688	912.628	0.440972	7.60339e-05	96.9916	19.948	3	38	0.00460479	0.000202135	0	-0.0009872	1.25829	0.751543	27.9453	1.92543e-05	1.90907e-05	1.85939e-05	2.66953e-05	2.1861e-05	2.40311e-05	1.05498	0.445356	14.8895	1.46274e-06	4.40828e-07	9.3331e-07	8.94905e-07	2.92804e-07	2.86839e-07	0.039123	0.0199074	0.0438966	26.9688	19948	39202.9	43986.2	-63.0312	0.0000000E+000	0.0000000E+000	0.0000000E+000	63.0312	0.0000000E+000	0.0000000E+000	0.0000000E+000	-63.0312	0.0000000E+000	0.0000000E+000	0.0000000E+000	-26.9688	0.0000000E+000	0.0000000E+000	0.0000000E+000	26.9688	1.96525	63.0312	2.40385e-08
79.6177	24.3738	10.8096	26.6632	-23.9169	916.166	0.44094	-0.000179696	184.928	30.3943	3	39	0.00461585	0.000173116	0	-0.000986663	1.54533	0.834297	28.091	2.9857e-05	1.993e-05	3.12241e-05	1.80276e-05	2.6281e-05	3.51406e-05	0.529164	0.264077	7.0198	5.07422e-07	2.37813e-07	3.02345e-07	2.85006e-07	3.39814e-07	4.48775e-07	0.0342844	0.0152048	0.0375048	23.9169	30394.3	68534.3	74971.8	-66.0831	0.0000000E+000	0.0000000E+000	0.0000000E+000	66.0831	0.0000000E+000	0.0000000E+000	0.0000000E+000	-66.0831	0.0000000E+000	0.0000000E+000	0.0000000E+000	-23.9169	0.0000000E+000	0.0000000E+000	0.0000000E+000	23.9169	2.25484	66.0831	2.21815e-07
39.8851	28.4598	11.7537	30.7914	-22.4402	919.382	0.440997	-0.000155095	339.497	49.468	3	39	0.00460088	0.000149421	0	-0.00098655	1.70773	0.708066	28.3341	1.64667e-05	3.15589e-05	2.45773e-05	4.91787e-05	2.70192e-05	1.98109e-05	0.58752	0.245219	8.23975	3.65475e-07	4.42703e-07	3.41145e-07	3.6514e-07	2.61822e-07	2.52466e-07	0.0300175	0.012397	0.0324766	22.4402	49468	119780	129593	-67.5598	0.0000000E+000	0.0000000E+000	0.0000000E+000	67.5598	0.0000000E+000	0.0000000E+000	0.0000000E+000	-67.5598	0.0000000E+000	0.0000000E+000	0.0000000E+000	-22.4402	0.0000000E+000	0.0000000E+000	0.0000000E+000	22.4402	2.42136	67.5598	2.6639e-07
19.9808	33.0264	14.4071	36.032	-23.5683	922.556	0.440966	8.71977e-05	552.877	88.3908	3	39	0.00459961	0.000127653	0	-0.000986229	2.14919	1.21472	28.8935	1.92793e-05	4.43225e-05	4.97899e-05	2.65352e-05	3.27763e-05	4.75753e-05	0.777239	0.433043	9.38203	6.28836e-07	4.88216e-07	2.32363e-07	2.85604e-07	2.35873e-07	3.22194e-07	0.025438	0.0110969	0.0277531	23.5683	88390.8	202624	221064	-66.4317	0.0000000E+000	0.0000000E+000	0.0000000E+000	66.4317	0.0000000E+000	0.0000000E+000	0.0000000E+000	-66.4317	0.0000000E+000	0.0000000E+000	0.0000000E+000	-23.5683	0.0000000E+000	0.0000000E+000	0.0000000E+000	23.5683	2.29236	66.4317	-2.16637e-07
10.016	38.968	18.6198	43.188	-25.5396	925.825	0.440958	7.52692e-05	853.391	158.626	3	39	0.00460727	0.00010668	0	-0.000986511	1.23185	0.647273	28.0606	2.29501e-05	1.2508e-05	1.57837e-05	2.35306e-05	3.10457e-05	1.91856e-05	0.824275	0.395507	11.458	6.08404e-07	2.61562e-07	1.84362e-07	3.16132e-07	2.19373e-07	2.3715e-07	0.0208921	0.00998276	0.0231546	25.5396	158626	331976	367927	-64.4604	0.0000000E+000	0.0000000E+000	0.0000000E+000	64.4604	0.0000000E+000	0.0000000E+000	0.0000000E+000	-64.4604	0.0000000E+000	0.0000000E+000	0.0000000E+000	-25.5396	0.0000000E+000	0.0000000E+000	0.0000000E+000	25.5396	2.09282	64.4604	-8.00083e-07
5.01766	46.4461	25.236	52.8592	-28.517	930.031	0.440961	-3.58108e-05	1256.89	286.482	3	39	0.00460159	8.70538e-05	0	-0.000985537	1.0303	0.449122	17.8542	1.62155e-05	1.84409e-05	1.80975e-05	2.66919e-05	1.11711e-05	1.44011e-05	0.735446	0.474728	8.64358	4.68793e-07	1.47563e-07	2.00902e-07	2.02646e-07	2.10338e-07	9.90356e-08	0.0166229	0.00903189	0.0189182	28.517	286482	527263	600065	-61.483	0.0000000E+000	0.0000000E+000	0.0000000E+000	61.483	0.0000000E+000	0.0000000E+000	0.0000000E+000	-61.483	0.0000000E+000	0.0000000E+000	0.0000000E+000	-28.517	0.0000000E+000	0.0000000E+000	0.0000000E+000	28.517	1.84047	61.483	3.29475e-07
2.51368	56.6867	34.5267	66.3737	-31.3447	937.904	0.440992	5.7837e-05	1833.82	496.219	3	40	0.00459854	6.92826e-05	0	-0.000984902	0.677908	0.405257	15.3309	1.82419e-05	7.64533e-06	9.99403e-06	1.21363e-05	1.02593e-05	6.53579e-06	0.495115	0.086499	1.25072	3.30468e-07	4.65854e-08	1.83014e-08	6.87617e-08	1.54577e-08	1.0782e-08	0.0128673	0.00783723	0.0150662	31.3447	496219	814703	953926	-58.6553	0.0000000E+000	0.0000000E+000	0.0000000E+000	58.6553	0.0000000E+000	0.0000000E+000	0.0000000E+000	-58.6553	0.0000000E+000	0.0000000E+000	0.0000000E+000	-31.3447	0.0000000E+000	0.0000000E+000	0.0000000E+000	31.3447	1.64182	58.6553	5.83967e-07
1.25968	70.8508	48.2371	85.7126	-34.2481	950.738	0.440969	-6.33128e-05	2619.27	829.569	3	40	0.00459338	5.35905e-05	0	-0.000985193	0.570591	0.311693	10.8477	6.13369e-06	6.18039e-06	9.53352e-06	1.68743e-05	8.95948e-06	9.40282e-06	0.635138	0.14042	1.2053	3.28208e-07	2.42033e-08	1.4933e-08	8.1049e-08	1.21729e-08	1.75962e-08	0.00964395	0.00656586	0.0116669	34.2481	829569	1.21847e+06	1.47406e+06	-55.7519	0.0000000E+000	0.0000000E+000	0.0000000E+000	55.7519	0.0000000E+000	0.0000000E+000	0.0000000E+000	-55.7519	0.0000000E+000	0.0000000E+000	0.0000000E+000	-34.2481	0.0000000E+000	0.0000000E+000	0.0000000E+000	34.2481	1.4688	55.7519	2.2275e-06
0.631645	91.0899	67.4707	113.356	-36.5275	975.194	0.440965	-8.74184e-05	3734.5	1323.03	3	40	0.00459753	4.05582e-05	0	-0.00098749	0.335706	0.145144	6.99687	3.39124e-06	4.94403e-06	7.61396e-06	6.382e-06	5.55894e-06	6.10484e-06	0.798692	0.381712	1.23698	2.9838e-07	5.54617e-08	4.68167e-08	8.29972e-08	2.88735e-08	2.97651e-08	0.00708889	0.00525078	0.00882174	36.5275	1.32303e+06	1.78618e+06	2.22281e+06	-53.4725	0.0000000E+000	0.0000000E+000	0.0000000E+000	53.4725	0.0000000E+000	0.0000000E+000	0.0000000E+000	-53.4725	0.0000000E+000	0.0000000E+000	0.0000000E+000	-36.5275	0.0000000E+000	0.0000000E+000	0.0000000E+000	36.5275	1.35007	53.4725	-3.67029e-06
0.316193	119.474	94.8342	152.537	-38.4412	1022.96	0.440958	-4.44593e-05	5307.66	2051.55	3	40	0.00459823	3.0145e-05	0	-0.000982973	0.267218	0.221117	5.2435	7.62259e-06	5.83197e-06	3.28059e-06	2.84485e-06	3.0225e-06	4.23005e-06	0.837149	0.265314	1.27881	2.42924e-07	3.66271e-08	1.92588e-08	4.74742e-08	1.48093e-08	1.43408e-08	0.00513479	0.0040758	0.00655577	38.4412	2.05154e+06	2.58458e+06	3.29983e+06	-51.5588	0.0000000E+000	0.0000000E+000	0.0000000E+000	51.5588	0.0000000E+000	0.0000000E+000	0.0000000E+000	-51.5588	0.0000000E+000	0.0000000E+000	0.0000000E+000	-38.4412	0.0000000E+000	0.0000000E+000	0.0000000E+000	38.4412	1.25982	51.5587	1.75154e-06
0.158419	159.727	133.513	208.179	-39.8916	1125.36	0.440944	-2.05215e-05	7524.73	3095.02	3	41	0.00459432	2.20691e-05	0	-0.000992701	0.268467	0.186144	4.23842	4.6013e-06	5.39541e-06	3.27078e-06	5.73465e-06	4.00516e-06	5.19817e-06	0.780846	0.295003	0.88611	1.66359e-07	1.73416e-08	1.56076e-08	2.71602e-08	1.30592e-08	7.61988e-09	0.00368558	0.0030807	0.00480356	39.8916	3.09502e+06	3.70271e+06	4.82589e+06	-50.1084	0.0000000E+000	0.0000000E+000	0.0000000E+000	50.1084	0.0000000E+000	0.0000000E+000	0.0000000E+000	-50.1084	0.0000000E+000	0.0000000E+000	0.0000000E+000	-39.8916	0.0000000E+000	0.0000000E+000	0.0000000E+000	39.8916	1.19634	50.1084	-4.50749e-07
0.0999518	195.564	167.299	257.36	-40.546	1235.56	0.44096	-1.56005e-05	9517.79	4022	3	41	0.00459304	1.78468e-05	0	-0.000982361	0.323859	0.185405	4.83049	5.60864e-06	8.4382e-06	5.67683e-06	4.75375e-06	4.36311e-06	3.55336e-06	0.830021	0.0956005	0.971667	1.44131e-07	5.86344e-09	9.12863e-09	2.9054e-08	9.07472e-09	6.2023e-09	0.00295261	0.00252588	0.00388561	40.546	4.022e+06	4.7015e+06	6.18713e+06	-49.454	0.0000000E+000	0.0000000E+000	0.0000000E+000	49.454	0.0000000E+000	0.0000000E+000	0.0000000E+000	-49.454	0.0000000E+000	0.0000000E+000	0.0000000E+000	-40.546	0.0000000E+000	0.0000000E+000	0.0000000E+000	40.546	1.16895	49.454	5.77853e-06