File: Python/Data/GoldElectrode/240322/Gold/240322-CVEIS-PostActivation-5mM_Fe2Fe3-1M_H2SO4-2000RPM-Ag_AgCl_BLF8-Au_RDE_01_CV_C15.mpt
EC-Lab ASCII FILE
Nb header lines : 60

Cyclic Voltammetry

Run on channel : 15 (SN 19485)
User :
Electrode connection : standard
Potential control : Ewe
Ewe ctrl range : min = -1.00 V, max = 1.00 V
Ewe,I filtering : <None>
Safety Limits :
	Do not start on E overload
Channel : Floating
Acquisition started on : 03/22/2024 12:00:59.571
Loaded Setting File :  C:\Data\mathias\GoldElectrode\240320-CVEIS_PostActivation-Fe2Fe3_5mM-HCl1M-0000RPM-Ag_AgCl_BLF8-Au_RDE.mps
Saved on :
	File : 240322-CVEIS-PostActivation-5mM_Fe2Fe3-1M_H2SO4-2000RPM-Ag_AgCl_BLF8-Au_RDE_01_CV_C15.mpr
	Directory : C:\Data\mathias\GoldElectrode\
	Host : 192.168.0.1
Device : VMP-300 (SN 0826)
Address : USB
EC-Lab for windows v11.52 (software)
Internet server v11.52 (firmware)
Command interpretor v11.52 (firmware)
Electrode material :
Initial state :
Electrolyte :
Comments :
Cable : special
Electrode surface area : 0.001 cm²
Characteristic mass : 0.001 g
Equivalent Weight : 0.000 g/eq.
Density : 0.000 g/cm3
Volume (V) : 0.001 cm³
Record EIS quality indicators
Cycle Definition : Charge/Discharge alternance
Ei (V)              0.000
vs.                 Eoc
dE/dt               20.000
dE/dt unit          mV/s
E1 (V)              0.700
vs.                 Ref
Step percent        50
N                   10
E range min (V)     -1.000
E range max (V)     1.000
I Range             Auto
I Range min         Unset
I Range max         Unset
I Range init        Unset
Bandwidth           8
E2 (V)              0.000
vs.                 Ref
nc cycles           1
Reverse Scan        1
Ef (V)              0.000
vs.                 Eoc

mode	ox/red	error	control changes	counter inc.	time/s	control/V	Ewe/V	<I>/mA	cycle number	(Q-Qo)/C	I Range	step time/s	P/W
2	1	0	0	0	0.000000000000000E+000	0.442167	0.441592	0.00753003	1	0.0000000E+000	42	0.000000000000000E+000	3.3252e-06
2	1	0	1	0	0.2687	0.447539	0.447186	0.0302866	1	5.12136e-06	41	0.2549	1.35438e-05
2	1	0	1	0	0.5186	0.452537	0.451944	0.0502961	1	1.5206e-05	41	0.5048	2.2731e-05
2	1	0	1	0	0.7684	0.457534	0.457059	0.0700687	1	3.02717e-05	41	0.7546	3.20255e-05
2	1	0	1	0	1.0183	0.462532	0.462337	0.0895157	1	5.0239e-05	41	1.0045	4.13865e-05
2	1	0	1	0	1.2682	0.46753	0.467357	0.1087	1	7.50255e-05	41	1.2544	5.08017e-05
2	1	0	1	0	1.5481	0.473127	0.472858	0.129494	1	0.000108401	40	1.5343	6.12323e-05
2	1	0	1	0	1.798	0.478125	0.477877	0.148091	1	0.000143167	40	1.7842	7.07693e-05
2	1	0	1	0	2.0478	0.483122	0.4828	0.166665	1	0.000182569	40	2.034	8.04657e-05
2	1	0	1	0	2.2977	0.48812	0.487746	0.18512	1	0.000226615	40	2.2839	9.02916e-05
2	1	0	1	0	2.5476	0.493118	0.492759	0.203615	1	0.000275247	40	2.5338	0.000100333
2	1	0	1	0	2.7975	0.498115	0.497891	0.222297	1	0.000328556	40	2.7837	0.00011068
2	1	0	1	0	3.0474	0.503113	0.50276	0.240744	1	0.0003865	40	3.0336	0.000121037
2	1	0	1	0	3.2972	0.50811	0.507869	0.258931	1	0.000448968	40	3.2834	0.000131503
2	1	0	1	0	3.5471	0.513108	0.512687	0.277368	1	0.000516112	40	3.5333	0.000142203
2	1	0	1	0	3.797	0.518106	0.517694	0.295141	1	0.00058776	40	3.7832	0.000152793
2	1	0	1	0	4.0469	0.523103	0.522954	0.312037	1	0.00066375	40	4.0331	0.000163181
2	1	0	1	0	4.2968	0.528101	0.527813	0.329062	1	0.000743989	40	4.283	0.000173683
2	1	0	1	0	4.5466	0.533097	0.532841	0.344782	1	0.000828291	40	4.5328	0.000183714
2	1	0	1	0	4.7965	0.538096	0.537566	0.359512	1	0.00091638	40	4.7827	0.000193262
2	1	0	1	0	5.0464	0.543094	0.542384	0.373902	1	0.00100812	40	5.0326	0.000202799
2	1	0	1	0	5.2963	0.548092	0.547734	0.387669	1	0.0011034	40	5.2825	0.00021234
2	1	0	1	0	5.5462	0.553089	0.552871	0.400196	1	0.00120197	40	5.5324	0.000221257
2	1	0	1	0	5.7961	0.558087	0.557831	0.410909	1	0.00130345	40	5.7823	0.000229218
2	1	0	1	0	6.046	0.563086	0.562786	0.422542	1	0.00140773	40	6.0322	0.000237801
2	1	0	1	0	6.2958	0.568082	0.567798	0.433248	1	0.00151472	40	6.282	0.000245997
2	1	0	1	0	6.5457	0.57308	0.572659	0.442879	1	0.00162424	40	6.5319	0.000253619
2	1	0	1	0	6.7956	0.578077	0.578012	0.451783	1	0.00173609	40	6.7818	0.000261136
2	1	0	1	0	7.0455	0.583075	0.5829	0.459707	1	0.00185014	40	7.0317	0.000267963
2	1	0	1	0	7.2954	0.588073	0.587919	0.467818	1	0.00196619	40	7.2816	0.000275039
2	1	0	1	0	7.5452	0.59307	0.592881	0.474438	1	0.00208408	40	7.5314	0.000281285
2	1	0	1	0	7.7951	0.598068	0.59764	0.480427	1	0.0022035	40	7.7813	0.000287122
2	1	0	1	0	8.045	0.603065	0.602853	0.48708	1	0.0023245	40	8.0312	0.000293638
2	1	0	1	0	8.2949	0.608063	0.607656	0.493078	1	0.00244711	40	8.2811	0.000299622
2	1	0	1	0	8.5448	0.613061	0.612678	0.498276	1	0.00257114	40	8.531	0.000305282
2	1	0	1	0	8.7946	0.618058	0.61773	0.501842	1	0.00269622	40	8.7808	0.000310003
2	1	0	1	0	9.0445	0.623056	0.622795	0.506565	1	0.00282228	40	9.0307	0.000315486
2	1	0	1	0	9.2944	0.628054	0.62771	0.511349	1	0.00294961	40	9.2806	0.000320978
2	1	0	1	0	9.5443	0.633051	0.632565	0.514464	1	0.00307792	40	9.5305	0.000325432
2	1	0	1	0	9.7942	0.638049	0.637636	0.518239	1	0.00320712	40	9.7804	0.000330448
2	1	0	1	0	10.044	0.643045	0.642805	0.521169	1	0.00333715	40	10.0302	0.00033501
2	1	0	1	0	10.2939	0.648044	0.647779	0.523146	1	0.00346786	40	10.2801	0.000338883
2	1	0	1	0	10.5438	0.653042	0.652695	0.525409	1	0.00359899	40	10.53	0.000342932
2	1	0	1	0	10.7937	0.65804	0.657889	0.530016	1	0.00373098	40	10.7799	0.000348692
2	1	0	1	0	11.0436	0.663037	0.662972	0.53177	1	0.00386378	40	11.0298	0.000352549
2	1	0	1	0	11.2935	0.668035	0.667876	0.533722	1	0.00399695	40	11.2797	0.00035646
2	1	0	1	0	11.5433	0.673032	0.672915	0.536201	1	0.00413075	40	11.5295	0.000360818
2	1	0	1	0	11.7932	0.67803	0.677537	0.537921	1	0.00426519	40	11.7794	0.000364461
2	1	0	1	0	12.0431	0.683028	0.682642	0.539054	1	0.00439971	40	12.0293	0.000367981
2	1	0	1	0	12.293	0.688025	0.687482	0.54086	1	0.00453478	40	12.2792	0.000371831
2	1	0	1	0	12.5429	0.693023	0.692524	0.542438	1	0.00467031	40	12.5291	0.000375651
2	1	0	1	0	12.7928	0.698021	0.697628	0.543656	1	0.00480616	40	12.779	0.000379269
2	1	0	1	0	13.0057	0.697721	0.697412	0.54357	1	0.00492183	40	12.9919	0.000379093
2	1	0	1	0	13.2556	0.692723	0.692339	0.542916	1	0.00505749	40	13.2418	0.000375882
2	1	0	1	0	13.5055	0.687725	0.687478	0.542073	1	0.00519294	40	13.4917	0.000372663
2	1	0	1	0	13.7554	0.682728	0.682459	0.540512	1	0.0053281	40	13.7416	0.000368877
2	1	0	1	0	14.0053	0.67773	0.677351	0.539678	1	0.00546291	40	13.9915	0.000365551
2	1	0	1	0	14.2552	0.672731	0.672436	0.538677	1	0.00559751	40	14.2414	0.000362226
2	1	0	1	0	14.505	0.667735	0.667581	0.537552	1	0.00573181	40	14.4912	0.00035886
2	1	0	1	0	14.7549	0.662737	0.662327	0.534714	1	0.0058655	40	14.7411	0.000354155
2	1	0	1	0	15.0048	0.65774	0.657427	0.532472	1	0.00599875	40	14.991	0.000350061
2	1	0	1	0	15.2547	0.652742	0.652434	0.531892	1	0.00613146	40	15.2409	0.000347024
2	1	0	1	0	15.5046	0.647744	0.647505	0.529371	1	0.00626385	40	15.4908	0.000342771
2	1	0	1	0	15.7544	0.642747	0.642403	0.527278	1	0.00639569	40	15.7406	0.000338725
2	1	0	1	0	16.0043	0.637749	0.637568	0.525062	1	0.00652702	40	15.9905	0.000334763
2	1	0	1	0	16.2542	0.632751	0.63241	0.522233	1	0.00665774	40	16.2404	0.000330265
2	1	0	1	0	16.5041	0.627754	0.627591	0.518894	1	0.00678765	40	16.4903	0.000325653
2	1	0	1	0	16.754	0.622756	0.622411	0.515635	1	0.00691675	40	16.7402	0.000320937
2	1	0	1	0	17.0038	0.617759	0.617444	0.51319	1	0.00704504	40	16.99	0.000316867
2	1	0	1	0	17.2537	0.612761	0.612488	0.509624	1	0.00717264	40	17.2399	0.000312139
2	1	0	1	0	17.5036	0.607763	0.607448	0.505503	1	0.00729934	40	17.4898	0.000307067
2	1	0	1	0	17.7535	0.602766	0.602328	0.50112	1	0.00742489	40	17.7397	0.000301838
2	1	0	1	0	18.0034	0.597768	0.597535	0.497987	1	0.00754955	40	17.9896	0.000297565
2	1	0	1	0	18.2532	0.592772	0.592476	0.493362	1	0.0076732	40	18.2394	0.000292305
2	1	0	1	0	18.5031	0.587773	0.587423	0.488533	1	0.00779577	40	18.4893	0.000286975
2	1	0	1	0	18.753	0.582775	0.58252	0.483737	1	0.00791711	40	18.7392	0.000281786
2	1	0	1	0	19.0029	0.577778	0.577484	0.477358	1	0.00803698	40	18.9891	0.000275666
2	1	0	1	0	19.2528	0.57278	0.572374	0.471883	1	0.00815551	40	19.239	0.000270093
2	1	0	1	0	19.5027	0.567782	0.567506	0.465914	1	0.00827253	40	19.4889	0.000264409
2	1	0	1	0	19.7526	0.562783	0.562671	0.460318	1	0.00838804	40	19.7388	0.000259008
2	1	0	1	0	20.0024	0.557787	0.557547	0.453353	1	0.008502	40	19.9886	0.000252766
2	1	0	1	0	20.2523	0.552789	0.552513	0.446132	1	0.00861427	40	20.2385	0.000246494
2	1	0	1	0	20.5022	0.547792	0.547409	0.43853	1	0.00872461	40	20.4884	0.000240056
2	1	0	1	0	20.7521	0.542794	0.542532	0.430262	1	0.00883297	40	20.7383	0.000233431
2	1	0	1	0	21.002	0.537796	0.537359	0.42079	1	0.00893916	40	20.9882	0.000226116
2	1	0	1	0	21.2518	0.532799	0.532485	0.411682	1	0.009043	40	21.238	0.000219214
2	1	0	1	0	21.5017	0.527801	0.52747	0.400835	1	0.0091444	40	21.4879	0.000211428
2	1	0	1	0	21.7516	0.522804	0.522586	0.389849	1	0.0092431	40	21.7378	0.00020373
2	1	0	1	0	22.0015	0.517806	0.517621	0.377166	1	0.00933882	40	21.9877	0.000195229
2	1	0	1	0	22.2514	0.512808	0.512563	0.363474	1	0.00943119	40	22.2376	0.000186303
2	1	0	1	0	22.5012	0.507811	0.507593	0.34861	1	0.00952002	40	22.4874	0.000176952
2	1	0	1	0	22.7511	0.502813	0.502557	0.331903	1	0.00960487	40	22.7373	0.0001668
2	1	0	1	0	23.001	0.497815	0.497521	0.313672	1	0.00968532	40	22.9872	0.000156058
2	1	0	1	0	23.2509	0.492818	0.492553	0.294504	1	0.00976111	40	23.2371	0.000145059
2	1	0	1	0	23.5008	0.48782	0.48756	0.272807	1	0.00983182	40	23.487	0.00013301
2	1	0	1	0	23.7506	0.482824	0.482374	0.249859	1	0.00989695	40	23.7368	0.000120525
2	1	0	1	0	24.0005	0.477825	0.477512	0.224557	1	0.00995608	40	23.9867	0.000107229
2	1	0	1	0	24.2504	0.472827	0.472618	0.198303	1	0.0100087	40	24.2366	9.37218e-05
2	1	0	1	0	24.5003	0.46783	0.467469	0.170332	1	0.0100547	40	24.4865	7.96249e-05
2	1	0	1	0	24.7502	0.462832	0.462524	0.1401	1	0.0100933	40	24.7364	6.47994e-05
2	1	0	1	0	25.0001	0.457834	0.457629	0.108846	1	0.0101242	40	24.9863	4.98109e-05
2	1	0	1	0	25.25	0.452835	0.452598	0.0766685	1	0.0101473	40	25.2362	3.47e-05
2	1	0	1	0	25.4998	0.447839	0.447563	0.0431492	1	0.0101621	40	25.486	1.9312e-05
2	1	0	1	0	25.7797	0.442242	0.442085	0.0046925	1	0.0101688	41	25.7659	2.07449e-06
2	0	0	1	0	26.0296	0.437244	0.436917	-0.0296092	1	0.0101656	41	0.1999	-1.29368e-05
2	0	0	1	0	26.2795	0.432246	0.431949	-0.0638189	1	0.0101539	41	0.4498	-2.75665e-05
2	0	0	1	0	26.5293	0.427249	0.426858	-0.0976404	1	0.0101337	41	0.6996	-4.16786e-05
2	0	0	1	0	26.8092	0.421651	0.42147	-0.133964	1	0.0101012	40	0.9795	-5.64618e-05
2	0	0	1	0	27.0591	0.416654	0.416266	-0.165781	1	0.0100635	40	1.2294	-6.90089e-05
2	0	0	1	0	27.309	0.411656	0.411481	-0.196575	1	0.0100181	40	1.4793	-8.0887e-05
2	0	0	1	0	27.5588	0.40666	0.406559	-0.226066	1	0.0099651	40	1.7291	-9.19091e-05
2	0	0	1	0	27.8087	0.401661	0.40149	-0.253574	1	0.00990498	40	1.979	-0.000101807
2	0	0	1	0	28.0586	0.396663	0.396404	-0.280072	1	0.00983811	40	2.2289	-0.000111022
2	0	0	1	0	28.3085	0.391666	0.391315	-0.305052	1	0.00976482	40	2.4788	-0.000119372
2	0	0	1	0	28.5584	0.386668	0.386332	-0.328463	1	0.00968549	40	2.7287	-0.000126896
2	0	0	1	0	28.8083	0.38167	0.381246	-0.350396	1	0.0096005	40	2.9786	-0.000133587
2	0	0	1	0	29.0581	0.376673	0.376364	-0.370519	1	0.00951026	40	3.2284	-0.00013945
2	0	0	1	0	29.308	0.371675	0.371358	-0.389738	1	0.00941505	40	3.4783	-0.000144732
2	0	0	1	0	29.5579	0.366677	0.366412	-0.408654	1	0.00931518	40	3.7282	-0.000149736
2	0	0	1	0	29.8078	0.36168	0.361432	-0.425963	1	0.00921072	40	3.9781	-0.000153957
2	0	0	1	0	30.0577	0.356682	0.356497	-0.442685	1	0.00910202	40	4.228	-0.000157816
2	0	0	1	0	30.3076	0.351684	0.351325	-0.458053	1	0.00898928	40	4.4779	-0.000160926
2	0	0	1	0	30.5574	0.346687	0.346193	-0.472872	1	0.0088729	40	4.7277	-0.000163705
2	0	0	1	0	30.8073	0.341689	0.341596	-0.487491	1	0.00875274	40	4.9776	-0.000166525
2	0	0	1	0	31.0572	0.336692	0.33643	-0.500402	1	0.00862917	40	5.2275	-0.00016835
2	0	0	1	0	31.3071	0.331694	0.33146	-0.513164	1	0.00850238	40	5.4774	-0.000170093
2	0	0	1	0	31.557	0.326696	0.326302	-0.525293	1	0.00837257	40	5.7273	-0.000171404
2	0	0	1	0	31.8068	0.321699	0.321302	-0.536501	1	0.0082398	40	5.9771	-0.000172379
2	0	0	1	0	32.0567	0.316701	0.316517	-0.547001	1	0.00810427	40	6.227	-0.000173135
2	0	0	1	0	32.3066	0.311703	0.31128	-0.558614	1	0.00796599	40	6.4769	-0.000173886
2	0	0	1	0	32.5565	0.306706	0.306285	-0.568282	1	0.00782512	40	6.7268	-0.000174057
2	0	0	1	0	32.8064	0.301708	0.30155	-0.578311	1	0.00768158	40	6.9767	-0.00017439
2	0	0	1	0	33.0562	0.296712	0.296643	-0.586352	1	0.00753604	40	7.2265	-0.000173937
2	0	0	1	0	33.3061	0.291713	0.291304	-0.594618	1	0.00738831	40	7.4764	-0.000173214
2	0	0	1	0	33.556	0.286715	0.286504	-0.603739	1	0.0072385	40	7.7263	-0.000172973
2	0	0	1	0	33.8059	0.281718	0.281393	-0.610972	1	0.0070866	40	7.9762	-0.000171923
2	0	0	1	0	34.0558	0.27672	0.276186	-0.617467	1	0.00693305	40	8.2261	-0.000170535
2	0	0	1	0	34.3057	0.271722	0.271408	-0.625365	1	0.00677765	40	8.476	-0.000169729
2	0	0	1	0	34.5555	0.266725	0.266507	-0.631114	1	0.00662068	40	8.7258	-0.000168196
2	0	0	1	0	34.8054	0.261727	0.261502	-0.637078	1	0.00646221	40	8.9757	-0.000166597
2	0	0	1	0	35.0553	0.256729	0.256652	-0.641603	1	0.00630227	40	9.2256	-0.000164669
2	0	0	1	0	35.3052	0.251732	0.251409	-0.647438	1	0.00614115	40	9.4755	-0.000162772
2	0	0	1	0	35.5551	0.246734	0.246523	-0.652668	1	0.0059786	40	9.7254	-0.000160898
2	0	0	1	0	35.805	0.241736	0.241404	-0.656925	1	0.00581484	40	9.9753	-0.000158584
2	0	0	1	0	36.0548	0.236739	0.236446	-0.660776	1	0.00565013	40	10.2251	-0.000156238
2	0	0	1	0	36.3047	0.231741	0.23162	-0.666094	1	0.00548431	40	10.475	-0.000154281
2	0	0	1	0	36.5546	0.226744	0.226615	-0.669586	1	0.00531739	40	10.7249	-0.000151738
2	0	0	1	0	36.8045	0.221746	0.221557	-0.673076	1	0.00514962	40	10.9748	-0.000149125
2	0	0	1	0	37.0544	0.216748	0.216617	-0.675926	1	0.0049809	40	11.2247	-0.000146417
2	0	0	1	0	37.3042	0.211751	0.21162	-0.678589	1	0.00481156	40	11.4745	-0.000143603
2	0	0	1	0	37.5541	0.206753	0.20655	-0.681	1	0.00464153	40	11.7244	-0.000140661
2	0	0	1	0	37.804	0.201755	0.201562	-0.685229	1	0.00447068	40	11.9743	-0.000138116
2	0	0	1	0	38.0539	0.196758	0.1966	-0.687264	1	0.00429911	40	12.2242	-0.000135116
2	0	0	1	0	38.3038	0.19176	0.191103	-0.688869	1	0.00412712	40	12.4741	-0.000131645
2	0	0	1	0	38.5536	0.186764	0.186461	-0.692489	1	0.00395447	40	12.7239	-0.000129122
2	0	0	1	0	38.8035	0.181765	0.181467	-0.694221	1	0.00378109	40	12.9738	-0.000125978
2	0	0	1	0	39.0534	0.176767	0.176574	-0.695217	1	0.00360741	40	13.2237	-0.000122758
2	0	0	1	0	39.3033	0.17177	0.171488	-0.697859	1	0.00343323	40	13.4736	-0.000119675
2	0	0	1	0	39.5532	0.166772	0.166478	-0.700474	1	0.0032585	40	13.7235	-0.000116614
2	0	0	1	0	39.8031	0.161774	0.161289	-0.701562	1	0.00308331	40	13.9734	-0.000113154
2	0	0	1	0	40.0529	0.156777	0.156417	-0.703296	1	0.00290779	40	14.2232	-0.000110007
2	0	0	1	0	40.3028	0.151779	0.151385	-0.703134	1	0.00273214	40	14.4731	-0.000106444
2	0	0	1	0	40.5527	0.146782	0.146513	-0.70566	1	0.00255602	40	14.723	-0.000103388
2	0	0	1	0	40.8026	0.141784	0.141668	-0.707082	1	0.00237944	40	14.9729	-0.000100171
2	0	0	1	0	41.0525	0.136786	0.13658	-0.708683	1	0.00220257	40	15.2228	-9.67922e-05
2	0	0	1	0	41.3024	0.131788	0.131366	-0.707619	1	0.00202549	40	15.4727	-9.29573e-05
2	0	0	1	0	41.5522	0.126791	0.126472	-0.710408	1	0.00184874	40	15.7225	-8.98468e-05
2	0	0	1	0	41.8021	0.121793	0.121389	-0.711439	1	0.00167108	40	15.9724	-8.63607e-05
2	0	0	1	0	42.052	0.116796	0.116626	-0.71169	1	0.00149318	40	16.2223	-8.30016e-05
2	0	0	1	0	42.3019	0.111798	0.111508	-0.712407	1	0.00131514	40	16.4722	-7.94393e-05
2	0	0	1	0	42.5518	0.1068	0.106432	-0.714351	1	0.00113694	40	16.7221	-7.60301e-05
2	0	0	1	0	42.8016	0.101803	0.101555	-0.715031	1	0.000958258	40	16.9719	-7.26151e-05
2	0	0	1	0	43.0515	0.0968052	0.0967113	-0.715105	1	0.000779459	40	17.2218	-6.91587e-05
2	0	0	1	0	43.3014	0.0918075	0.0915356	-0.715956	1	0.000600548	40	17.4717	-6.55354e-05
2	0	0	1	0	43.5513	0.0868099	0.0863757	-0.717308	1	0.000421382	40	17.7216	-6.1958e-05
2	0	0	1	0	43.8012	0.0818123	0.0814515	-0.715949	1	0.000242236	40	17.9715	-5.83151e-05
2	0	0	1	0	44.051	0.0768155	0.076659	-0.719505	1	6.29372e-05	40	18.2213	-5.51565e-05
2	0	0	1	0	44.3009	0.071817	0.0716112	-0.719335	1	-0.000116784	40	18.4712	-5.15124e-05
2	0	0	1	0	44.5508	0.0668194	0.0664874	-0.718813	1	-0.000296538	40	18.7211	-4.7792e-05
2	0	0	1	0	44.8007	0.0618217	0.0615004	-0.719372	1	-0.000476416	40	18.971	-4.42416e-05
2	0	0	1	0	45.0506	0.0568241	0.0565069	-0.720144	1	-0.000656386	40	19.2209	-4.06931e-05
2	0	0	1	0	45.3005	0.0518265	0.0515027	-0.719715	1	-0.000836164	40	19.4708	-3.70673e-05
2	0	0	1	0	45.5503	0.0468288	0.0467176	-0.72163	1	-0.00101625	40	19.7206	-3.37129e-05
2	0	0	1	0	45.8002	0.0418312	0.0416289	-0.721873	1	-0.00119669	40	19.9705	-3.00508e-05
2	0	0	1	0	46.0501	0.0368335	0.0367569	-0.722049	1	-0.00137701	40	20.2204	-2.65403e-05
2	0	0	1	0	46.3	0.0318359	0.0316472	-0.722589	1	-0.00155763	40	20.4703	-2.28679e-05
2	0	0	1	0	46.5499	0.0268383	0.0265569	-0.722558	1	-0.00173825	40	20.7202	-1.91889e-05
2	0	0	1	0	46.7998	0.0218393	0.0214877	-0.72413	1	-0.00191894	40	20.9701	-1.55599e-05
2	0	0	1	0	47.0496	0.016843	0.0165989	-0.723922	1	-0.00209982	40	21.2199	-1.20163e-05
2	0	0	1	0	47.2995	0.0118454	0.0116536	-0.724584	1	-0.00228079	40	21.4698	-8.44402e-06
2	0	0	1	0	47.5494	0.00684774	0.00647006	-0.724963	1	-0.00246199	40	21.7197	-4.69056e-06
2	0	0	1	0	47.7993	0.00185011	0.00160467	-0.725096	1	-0.00264307	40	21.9696	-1.16354e-06
2	0	0	1	1	47.9794	0.00175015	0.00154564	-0.72347	1	-0.00277355	40	22.1497	-1.11823e-06
2	0	0	1	1	48.2293	0.00674779	0.00657666	-0.724873	1	-0.00295454	40	22.3996	-4.76725e-06
2	0	0	1	1	48.4792	0.0117454	0.0116131	-0.722609	1	-0.00313534	40	22.6495	-8.39174e-06
2	0	0	1	1	48.7291	0.0167431	0.0166286	-0.722667	1	-0.00331573	40	22.8994	-1.2017e-05
2	0	0	1	1	48.979	0.0217411	0.021485	-0.721147	1	-0.00349591	40	23.1493	-1.54939e-05
2	0	0	1	1	49.2288	0.0267383	0.0265445	-0.721268	1	-0.00367604	40	23.3991	-1.91457e-05
2	0	0	1	1	49.4787	0.031736	0.0313998	-0.720058	1	-0.00385611	40	23.649	-2.26097e-05
2	0	0	1	1	49.7286	0.0367336	0.0367577	-0.721376	1	-0.0040364	40	23.8989	-2.65161e-05
2	0	0	1	1	49.9785	0.0417312	0.0415433	-0.71652	1	-0.00421614	40	24.1488	-2.97666e-05
2	0	0	1	1	50.2284	0.0467289	0.0466046	-0.718037	1	-0.00439558	40	24.3987	-3.34639e-05
2	0	0	1	1	50.4782	0.0517265	0.0514668	-0.718167	1	-0.00457496	40	24.6485	-3.69618e-05
2	0	0	1	1	50.7281	0.0567241	0.0566933	-0.717756	1	-0.00475435	40	24.8984	-4.0692e-05
2	0	0	1	1	50.978	0.0617218	0.0615176	-0.718238	1	-0.00493375	40	25.1483	-4.41843e-05
2	0	0	1	1	51.2279	0.0667194	0.0664084	-0.716376	1	-0.005113	40	25.3982	-4.75733e-05
2	0	0	1	1	51.4778	0.071717	0.071596	-0.715769	1	-0.0052919	40	25.6481	-5.12462e-05
2	0	0	1	1	51.7276	0.0767133	0.0764021	-0.714853	1	-0.00547045	40	25.8979	-5.46163e-05
2	0	0	1	1	51.9775	0.0817123	0.0816363	-0.7135	1	-0.00564887	40	26.1478	-5.82475e-05
2	0	0	1	1	52.2274	0.0867099	0.0864381	-0.712368	1	-0.00582712	40	26.3977	-6.15757e-05
2	0	0	1	1	52.4773	0.0917076	0.0914168	-0.710998	1	-0.00600503	40	26.6476	-6.49971e-05
2	0	0	1	1	52.7272	0.0967052	0.0964489	-0.709655	1	-0.00618262	40	26.8975	-6.84454e-05
2	0	0	1	1	52.9771	0.101703	0.10149	-0.708364	1	-0.00635971	40	27.1474	-7.1892e-05
2	0	0	1	1	53.2269	0.1067	0.106443	-0.70844	1	-0.00653655	40	27.3972	-7.54087e-05
2	0	0	1	1	53.4768	0.111698	0.111498	-0.705965	1	-0.00671322	40	27.6471	-7.87137e-05
2	0	0	1	1	53.7267	0.116696	0.116386	-0.703574	1	-0.00688933	40	27.897	-8.18865e-05
2	0	0	1	1	53.9766	0.121693	0.121519	-0.702459	1	-0.00706509	40	28.1469	-8.53621e-05
2	0	0	1	1	54.2265	0.126691	0.126467	-0.70112	1	-0.00724045	40	28.3968	-8.86683e-05
2	0	0	1	1	54.4764	0.13169	0.131555	-0.700054	1	-0.0074155	40	28.6467	-9.20958e-05
2	0	0	1	1	54.7262	0.136686	0.136386	-0.697761	1	-0.00759009	40	28.8965	-9.51648e-05
2	0	0	1	1	54.9761	0.141684	0.141294	-0.695834	1	-0.00776426	40	29.1464	-9.8317e-05
2	0	0	1	1	55.226	0.146682	0.146461	-0.694392	1	-0.00793789	40	29.3963	-0.000101701
2	0	0	1	1	55.4759	0.151679	0.151294	-0.693074	1	-0.00811121	40	29.6462	-0.000104858
2	0	0	1	1	55.7258	0.156677	0.156453	-0.690375	1	-0.00828398	40	29.8961	-0.000108011
2	0	0	1	1	55.9756	0.161674	0.161453	-0.687172	1	-0.00845591	40	30.1459	-0.000110946
2	0	0	1	1	56.2255	0.166672	0.166362	-0.684775	1	-0.00862735	40	30.3958	-0.000113921
2	0	0	1	1	56.4754	0.17167	0.171319	-0.68199	1	-0.00879818	40	30.6457	-0.000116838
2	0	0	1	1	56.7253	0.176667	0.176481	-0.67909	1	-0.00896808	40	30.8956	-0.000119847
2	0	0	1	1	56.9752	0.181665	0.181223	-0.677825	1	-0.00913764	40	31.1455	-0.000122837
2	0	0	1	1	57.225	0.186662	0.18634	-0.674087	1	-0.00930635	40	31.3953	-0.000125609
2	0	0	1	1	57.4749	0.19166	0.191534	-0.671229	1	-0.00947431	40	31.6452	-0.000128563
2	0	0	1	1	57.7248	0.196658	0.196256	-0.668014	1	-0.00964158	40	31.8951	-0.000131101
2	0	0	1	1	57.9747	0.201656	0.201529	-0.663073	1	-0.00980787	40	32.145	-0.000133628
2	0	0	1	1	58.2246	0.206653	0.206343	-0.659405	1	-0.00997281	40	32.3949	-0.000136064
2	0	0	1	1	58.4745	0.211651	0.211536	-0.655999	1	-0.0101372	40	32.6448	-0.000138768
2	0	0	1	1	58.7243	0.216648	0.216232	-0.652278	1	-0.0103005	40	32.8946	-0.000141043
2	0	0	1	1	58.9742	0.221646	0.221424	-0.646234	1	-0.0104628	40	33.1445	-0.000143092
2	0	0	1	1	59.2241	0.226644	0.22633	-0.642072	1	-0.0106238	40	33.3944	-0.00014532
2	0	0	1	1	59.474	0.231641	0.23128	-0.636926	1	-0.0107836	40	33.6443	-0.000147308
2	0	0	1	1	59.7239	0.236639	0.23649	-0.6336	1	-0.0109423	40	33.8942	-0.00014984
2	0	0	1	1	59.9738	0.241638	0.241349	-0.627684	1	-0.0110999	40	34.1441	-0.000151491
2	0	0	1	1	60.2236	0.246634	0.246437	-0.621705	1	-0.0112559	40	34.3939	-0.000153211
2	0	0	1	1	60.4735	0.251632	0.25142	-0.61617	1	-0.0114105	40	34.6438	-0.000154918
2	0	0	1	1	60.7234	0.25663	0.256405	-0.609598	1	-0.0115636	40	34.8937	-0.000156304
2	0	0	1	1	60.9733	0.261627	0.2615	-0.602344	1	-0.0117148	40	35.1436	-0.000157513
2	0	0	1	1	61.2232	0.266625	0.266518	-0.596408	1	-0.0118645	40	35.3935	-0.000158954
2	0	0	1	1	61.473	0.271622	0.271197	-0.588331	1	-0.0120124	40	35.6433	-0.000159554
2	0	0	1	1	61.7229	0.27662	0.276308	-0.579871	1	-0.0121583	40	35.8932	-0.000160223
2	0	0	1	1	61.9728	0.281618	0.281242	-0.571473	1	-0.0123021	40	36.1431	-0.000160722
2	0	0	1	1	62.2227	0.286615	0.286336	-0.562109	1	-0.0124436	40	36.393	-0.000160952
2	0	0	1	1	62.4726	0.291613	0.291298	-0.552744	1	-0.0125829	40	36.6429	-0.000161013
2	0	0	1	1	62.7224	0.29661	0.296334	-0.542568	1	-0.0127197	40	36.8927	-0.000160781
2	0	0	1	1	62.9723	0.301608	0.301511	-0.53213	1	-0.0128539	40	37.1426	-0.000160443
2	0	0	1	1	63.2222	0.306606	0.306322	-0.52034	1	-0.0129854	40	37.3925	-0.000159392
2	0	0	1	1	63.4721	0.311604	0.311273	-0.508673	1	-0.0131138	40	37.6424	-0.000158336
2	0	0	1	1	63.722	0.316601	0.316389	-0.496526	1	-0.0132394	40	37.8923	-0.000157095
2	0	0	1	1	63.9719	0.321599	0.321339	-0.482887	1	-0.0133617	40	38.1422	-0.00015517
2	0	0	1	1	64.2217	0.326596	0.326304	-0.469641	1	-0.0134807	40	38.392	-0.000153245
2	0	0	1	1	64.4716	0.331594	0.33146	-0.455422	1	-0.0135962	40	38.6419	-0.000150954
2	0	0	1	1	64.7215	0.336592	0.336121	-0.441198	1	-0.0137082	40	38.8918	-0.000148296
2	0	0	1	1	64.9714	0.341589	0.341455	-0.425957	1	-0.0138164	40	39.1417	-0.000145445
2	0	0	1	1	65.2213	0.346587	0.346318	-0.40985	1	-0.0139207	40	39.3916	-0.000141938
2	0	0	1	1	65.4712	0.351586	0.351363	-0.393347	1	-0.014021	40	39.6415	-0.000138208
2	0	0	1	1	65.721	0.356582	0.356196	-0.376619	1	-0.0141172	40	39.8913	-0.00013415
2	0	0	1	1	65.9709	0.36158	0.361415	-0.358324	1	-0.0142089	40	40.1412	-0.000129504
2	0	0	1	1	66.2208	0.366577	0.366301	-0.340259	1	-0.0142962	40	40.3911	-0.000124637
2	0	0	1	1	66.4707	0.371575	0.371238	-0.321315	1	-0.0143788	40	40.641	-0.000119284
2	0	0	1	1	66.7206	0.376573	0.376173	-0.302346	1	-0.0144566	40	40.8909	-0.000113734
2	0	0	1	1	66.9704	0.38157	0.381289	-0.282043	1	-0.0145295	40	41.1407	-0.00010754
2	0	0	1	1	67.2203	0.386568	0.38624	-0.26132	1	-0.0145973	40	41.3906	-0.000100932
2	0	0	1	1	67.4702	0.391566	0.391233	-0.239878	1	-0.0146598	40	41.6405	-9.38481e-05
2	0	0	1	1	67.7201	0.396563	0.396416	-0.21816	1	-0.0147169	40	41.8904	-8.64823e-05
2	0	0	1	1	67.97	0.401561	0.401293	-0.195473	1	-0.0147685	40	42.1403	-7.84419e-05
2	0	0	1	1	68.2198	0.406558	0.406284	-0.172311	1	-0.0148143	40	42.3901	-7.00071e-05
2	0	0	1	1	68.4697	0.411556	0.411179	-0.14816	1	-0.0148542	40	42.64	-6.09201e-05
2	0	0	1	1	68.7196	0.416554	0.416474	-0.123684	1	-0.0148881	40	42.8899	-5.15112e-05
2	0	0	1	1	68.9695	0.421551	0.421177	-0.0986114	1	-0.0149158	40	43.1398	-4.15329e-05
2	0	0	1	1	69.2194	0.426549	0.42625	-0.0727117	1	-0.0149371	40	43.3897	-3.09933e-05
2	0	0	1	1	69.4693	0.431547	0.431199	-0.0461496	1	-0.0149518	40	43.6396	-1.98996e-05
2	0	0	1	1	69.7491	0.437144	0.436741	-0.015334	1	-0.0149604	41	43.9194	-6.69697e-06
2	1	0	1	1	69.954	0.441242	0.440874	0.00715581	2	-0.0149612	41	0.0412	3.15481e-06
2	1	0	1	1	70.2039	0.44624	0.446047	0.0347414	2	-0.0149559	41	0.2911	1.54963e-05
2	1	0	1	1	70.4538	0.451237	0.451122	0.0626162	2	-0.0149437	41	0.541	2.82476e-05
2	1	0	1	1	70.7037	0.456235	0.455961	0.0904	2	-0.0149246	41	0.7909	4.12189e-05
2	1	0	1	1	70.9835	0.461832	0.461635	0.120466	2	-0.014895	40	1.0707	5.56111e-05
2	1	0	1	1	71.2334	0.46683	0.466509	0.147652	2	-0.0148613	40	1.3206	6.8881e-05
2	1	0	1	1	71.4833	0.471828	0.471641	0.173951	2	-0.014821	40	1.5705	8.20423e-05
2	1	0	1	1	71.7332	0.476825	0.476508	0.199548	2	-0.0147741	40	1.8204	9.50862e-05
2	1	0	1	1	71.9831	0.481823	0.481594	0.224153	2	-0.014721	40	2.0703	0.000107951
2	1	0	1	1	72.233	0.486822	0.486266	0.247856	2	-0.0146618	40	2.3202	0.000120524
2	1	0	1	1	72.4828	0.491818	0.491422	0.269934	2	-0.0145969	40	2.57	0.000132652
2	1	0	1	1	72.7327	0.496816	0.496643	0.29153	2	-0.0145266	40	2.8199	0.000144786
2	1	0	1	1	72.9826	0.501813	0.501511	0.310903	2	-0.0144511	40	3.0698	0.000155921
2	1	0	1	1	73.2325	0.506811	0.506451	0.329077	2	-0.0143709	40	3.3197	0.000166662
2	1	0	1	1	73.4824	0.511809	0.511521	0.346135	2	-0.0142862	40	3.5696	0.000177055
2	1	0	1	1	73.7322	0.516806	0.516543	0.362048	2	-0.0141976	40	3.8194	0.000187013
2	1	0	1	1	73.9821	0.521804	0.521498	0.376018	2	-0.0141051	40	4.0693	0.000196092
2	1	0	1	1	74.232	0.526802	0.526275	0.388835	2	-0.0140094	40	4.3192	0.000204634
2	1	0	1	1	74.4819	0.531799	0.531643	0.401457	2	-0.0139104	40	4.5691	0.000213432
2	1	0	1	1	74.7318	0.536797	0.536507	0.411978	2	-0.0138086	40	4.819	0.000221029
2	1	0	1	1	74.9816	0.541794	0.54144	0.421561	2	-0.0137043	40	5.0688	0.00022825
2	1	0	1	1	75.2315	0.546792	0.546692	0.430707	2	-0.0135977	40	5.3187	0.000235464
2	1	0	1	1	75.4814	0.55179	0.551493	0.43929	2	-0.0134887	40	5.5686	0.000242266
2	1	0	1	1	75.7313	0.556787	0.556482	0.446745	2	-0.0133779	40	5.8185	0.000248605
2	1	0	1	1	75.9812	0.561785	0.561472	0.453753	2	-0.0132652	40	6.0684	0.00025477
2	1	0	1	1	76.2311	0.566783	0.566486	0.460598	2	-0.0131507	40	6.3183	0.000260922
2	1	0	1	1	76.4809	0.57178	0.57142	0.466766	2	-0.0130347	40	6.5681	0.00026672
2	1	0	1	1	76.7308	0.576778	0.576381	0.473235	2	-0.0129171	40	6.818	0.000272764
2	1	0	1	1	76.9807	0.581776	0.581409	0.47798	2	-0.0127981	40	7.0679	0.000277902
2	1	0	1	1	77.2306	0.586773	0.586484	0.483321	2	-0.0126778	40	7.3178	0.00028346
2	1	0	1	1	77.4805	0.591771	0.591456	0.488762	2	-0.0125562	40	7.5677	0.000289082
2	1	0	1	1	77.7304	0.59677	0.596437	0.492992	2	-0.0124336	40	7.8176	0.000294039
2	1	0	1	1	77.9802	0.601766	0.601296	0.497137	2	-0.0123097	40	8.0674	0.000298926
2	1	0	1	1	78.2301	0.606764	0.60649	0.501217	2	-0.0121848	40	8.3173	0.000303983
2	1	0	1	1	78.48	0.611761	0.611587	0.505622	2	-0.0120588	40	8.5672	0.000309232
2	1	0	1	1	78.7299	0.616759	0.616405	0.508585	2	-0.0119319	40	8.8171	0.000313494
2	1	0	1	1	78.9798	0.621757	0.621122	0.512127	2	-0.0118042	40	9.067	0.000318093
2	1	0	1	1	79.2296	0.626754	0.626568	0.515564	2	-0.0116757	40	9.3168	0.000323036
2	1	0	1	1	79.4795	0.631752	0.631511	0.518445	2	-0.0115463	40	9.5667	0.000327404
2	1	0	1	1	79.7294	0.63675	0.636589	0.521826	2	-0.0114161	40	9.8166	0.000332188
2	1	0	1	1	79.9793	0.641747	0.641588	0.524338	2	-0.0112853	40	10.0665	0.000336409
2	1	0	1	1	80.2292	0.646745	0.646561	0.526934	2	-0.0111538	40	10.3164	0.000340695
2	1	0	1	1	80.479	0.651742	0.651443	0.528865	2	-0.0110217	40	10.5662	0.000344525
2	1	0	1	1	80.7289	0.65674	0.656406	0.530221	2	-0.0108893	40	10.8161	0.00034804
2	1	0	1	1	80.9788	0.661738	0.661494	0.531984	2	-0.0107564	40	11.066	0.000351905
2	1	0	1	1	81.2287	0.666735	0.666392	0.53515	2	-0.010623	40	11.3159	0.00035662
2	1	0	1	1	81.4786	0.671733	0.671477	0.535887	2	-0.0104891	40	11.5658	0.000359835
2	1	0	1	1	81.7285	0.676731	0.676481	0.537384	2	-0.0103548	40	11.8157	0.00036353
2	1	0	1	1	81.9783	0.681728	0.68138	0.538959	2	-0.0102203	40	12.0655	0.000367236
2	1	0	1	1	82.2282	0.686726	0.686361	0.540483	2	-0.0100852	40	12.3154	0.000370966
2	1	0	1	1	82.4781	0.691724	0.691391	0.542628	2	-0.00994978	40	12.5653	0.000375168
2	1	0	1	1	82.728	0.696721	0.696502	0.543332	2	-0.00981407	40	12.8152	0.000378431
2	1	0	1	1	82.956	0.69872	0.698355	0.543355	2	-0.00969004	40	13.0432	0.000379455
2	1	0	1	1	83.2058	0.693723	0.693472	0.543231	2	-0.00955432	40	13.293	0.000376716
2	1	0	1	1	83.4557	0.688725	0.688458	0.541995	2	-0.00941896	40	13.5429	0.000373141
2	1	0	1	1	83.7056	0.683727	0.683298	0.54064	2	-0.0092839	40	13.7928	0.000369419
2	1	0	1	1	83.9555	0.67873	0.678422	0.540157	2	-0.00914896	40	14.0427	0.000366454
2	1	0	1	1	84.2054	0.673732	0.673444	0.538455	2	-0.00901438	40	14.2926	0.000362619
2	1	0	1	1	84.4552	0.668736	0.668386	0.537342	2	-0.0088802	40	14.5424	0.000359152
2	1	0	1	1	84.7051	0.663737	0.663476	0.534992	2	-0.00874642	40	14.7923	0.000354954
2	1	0	1	1	84.955	0.658739	0.658435	0.533574	2	-0.00861308	40	15.0422	0.000351324
2	1	0	1	1	85.2049	0.653742	0.653358	0.532058	2	-0.00847999	40	15.2921	0.000347624
2	1	0	1	1	85.4548	0.648744	0.648403	0.530267	2	-0.00834748	40	15.542	0.000343827
2	1	0	1	1	85.7047	0.643746	0.64344	0.527909	2	-0.00821546	40	15.7919	0.000339678
2	1	0	1	1	85.9545	0.638749	0.638645	0.525769	2	-0.00808408	40	16.0417	0.00033578
2	1	0	1	1	86.2044	0.633751	0.633395	0.520719	2	-0.00795348	40	16.2916	0.000329821
2	1	0	1	1	86.4543	0.628753	0.628388	0.518376	2	-0.00782376	40	16.5415	0.000325742
2	1	0	1	1	86.7042	0.623756	0.623412	0.515583	2	-0.00769474	40	16.7914	0.00032142
2	1	0	1	1	86.9541	0.618758	0.618615	0.512823	2	-0.00756642	40	17.0413	0.00031724
2	1	0	1	1	87.204	0.61376	0.613499	0.509799	2	-0.00743878	40	17.2912	0.000312761
2	1	0	1	1	87.4538	0.608763	0.608463	0.506426	2	-0.007312	40	17.541	0.000308142
2	1	0	1	1	87.7037	0.603765	0.603542	0.502129	2	-0.00718619	40	17.7909	0.000303056
2	1	0	1	1	87.9536	0.598768	0.598454	0.498679	2	-0.00706138	40	18.0408	0.000298437
2	1	0	1	1	88.2035	0.59377	0.593538	0.49377	2	-0.00693751	40	18.2907	0.000293071
2	1	0	1	1	88.4534	0.588772	0.588607	0.489187	2	-0.00681482	40	18.5406	0.000287939
2	1	0	1	1	88.7032	0.583775	0.583417	0.484475	2	-0.00669334	40	18.7904	0.000282651
2	1	0	1	1	88.9531	0.578777	0.578652	0.479342	2	-0.00657303	40	19.0403	0.000277372
2	1	0	1	1	89.203	0.573779	0.573491	0.473654	2	-0.00645418	40	19.2902	0.000271637
2	1	0	1	1	89.4529	0.568782	0.568477	0.467106	2	-0.00633682	40	19.5401	0.000265539
2	1	0	1	1	89.7028	0.563784	0.563612	0.461496	2	-0.00622103	40	19.79	0.000260104
2	1	0	1	1	89.9526	0.558788	0.558458	0.454514	2	-0.00610686	40	20.0398	0.000253827
2	1	0	1	1	90.2025	0.553789	0.553681	0.447879	2	-0.00599424	40	20.2897	0.000247982
2	1	0	1	1	90.4524	0.548791	0.548433	0.440479	2	-0.00588336	40	20.5396	0.000241573
2	1	0	1	1	90.7023	0.543794	0.543513	0.432393	2	-0.00577449	40	20.7895	0.000235011
2	1	0	1	1	90.9522	0.538796	0.538524	0.423959	2	-0.00566769	40	21.0394	0.000228312
2	1	0	1	1	91.2021	0.533798	0.533404	0.414736	2	-0.00556311	40	21.2893	0.000221222
2	1	0	1	1	91.4519	0.528801	0.528513	0.404315	2	-0.00546104	40	21.5391	0.000213686
2	1	0	1	1	91.7018	0.523803	0.523503	0.393221	2	-0.00536157	40	21.789	0.000205852
2	1	0	1	1	91.9517	0.518805	0.518542	0.380724	2	-0.00526499	40	22.0389	0.000197421
2	1	0	1	1	92.2016	0.513808	0.513377	0.36749	2	-0.0051717	40	22.2888	0.000188661
2	1	0	1	1	92.4515	0.50881	0.508652	0.352497	2	-0.0050819	40	22.5387	0.000179298
2	1	0	1	1	92.7014	0.503812	0.503573	0.336258	2	-0.00499599	40	22.7886	0.000169331
2	1	0	1	1	92.9512	0.498815	0.498474	0.318887	2	-0.00491432	40	23.0384	0.000158957
2	1	0	1	1	93.2011	0.493817	0.493411	0.299178	2	-0.00483728	40	23.2883	0.000147618
2	1	0	1	1	93.451	0.48882	0.488508	0.278571	2	-0.00476525	40	23.5382	0.000136084
2	1	0	1	1	93.7009	0.483822	0.483321	0.255677	2	-0.00469868	40	23.7881	0.000123574
2	1	0	1	1	93.9508	0.478824	0.478444	0.230929	2	-0.00463807	40	24.038	0.000110487
2	1	0	1	1	94.2006	0.473827	0.473728	0.204699	2	-0.00458381	40	24.2878	9.69717e-05
2	1	0	1	1	94.4505	0.468829	0.468604	0.17664	2	-0.00453635	40	24.5377	8.2774e-05
2	1	0	1	1	94.7004	0.463831	0.463511	0.147152	2	-0.00449606	40	24.7876	6.82065e-05
2	1	0	1	1	94.9503	0.458834	0.458757	0.115858	2	-0.00446335	40	25.0375	5.31508e-05
2	1	0	1	1	95.2002	0.453836	0.453633	0.0834214	2	-0.00443859	40	25.2874	3.78427e-05
2	1	0	1	1	95.45	0.44884	0.448631	0.050224	2	-0.00442207	40	25.5372	2.2532e-05
2	1	0	1	1	95.7299	0.443241	0.443294	0.0115144	2	-0.00441347	41	25.8171	5.10428e-06
2	0	0	1	1	95.9798	0.438244	0.438132	-0.0228499	2	-0.00441493	41	0.1499	-1.00113e-05
2	0	0	1	1	96.2297	0.433246	0.432932	-0.0571716	2	-0.00442496	41	0.3998	-2.47514e-05
2	0	0	1	1	96.4796	0.428248	0.428209	-0.0911456	2	-0.00444353	41	0.6497	-3.90294e-05
2	0	0	1	1	96.7594	0.422651	0.422107	-0.127533	2	-0.0044742	40	0.9295	-5.38324e-05
2	0	0	1	1	97.0093	0.417653	0.417405	-0.159628	2	-0.0045103	40	1.1794	-6.66296e-05
2	0	0	1	1	97.2592	0.412656	0.41232	-0.190381	2	-0.00455423	40	1.4293	-7.84979e-05
2	0	0	1	1	97.5091	0.407658	0.407625	-0.219862	2	-0.00460567	40	1.6792	-8.96211e-05
2	0	0	1	1	97.759	0.40266	0.402355	-0.247925	2	-0.00466431	40	1.9291	-9.97538e-05
2	0	0	1	1	98.0088	0.397663	0.397404	-0.27446	2	-0.00472975	40	2.1789	-0.000109071
2	0	0	1	1	98.2587	0.392665	0.39271	-0.298996	2	-0.00480158	40	2.4288	-0.000117419
2	0	0	1	1	98.5086	0.387668	0.387408	-0.322647	2	-0.00487939	40	2.6787	-0.000124996
2	0	0	1	1	98.7585	0.38267	0.382178	-0.344604	2	-0.00496286	40	2.9286	-0.0001317
2	0	0	1	1	99.0084	0.377672	0.377401	-0.365362	2	-0.00505175	40	3.1785	-0.000137888
2	0	0	1	1	99.2582	0.372675	0.37256	-0.384653	2	-0.00514563	40	3.4283	-0.000143306
2	0	0	1	1	99.5081	0.367677	0.367353	-0.402639	2	-0.00524407	40	3.6782	-0.00014791
2	0	0	1	1	99.758	0.362679	0.362438	-0.421062	2	-0.00534714	40	3.9281	-0.000152609
2	0	0	1	1	100.008	0.357682	0.357508	-0.437451	2	-0.00545455	40	4.178	-0.000156392
2	0	0	1	1	100.258	0.352684	0.352381	-0.45293	2	-0.00556588	40	4.4279	-0.000159604
2	0	0	1	1	100.508	0.347686	0.347359	-0.46802	2	-0.00568106	40	4.6778	-0.000162571
2	0	0	1	1	100.757	0.342689	0.342564	-0.481506	2	-0.00579973	40	4.9276	-0.000164946
2	0	0	1	1	101.007	0.337691	0.337399	-0.495088	2	-0.00592195	40	5.1775	-0.000167042
2	0	0	1	1	101.257	0.332693	0.332321	-0.5084	2	-0.00604746	40	5.4274	-0.000168952
2	0	0	1	1	101.507	0.327696	0.327595	-0.521447	2	-0.00617621	40	5.6773	-0.000170823
2	0	0	1	1	101.757	0.322698	0.322522	-0.532499	2	-0.00630801	40	5.9272	-0.000171743
2	0	0	1	1	102.007	0.317699	0.317416	-0.542495	2	-0.00644248	40	6.1771	-0.000172197
2	0	0	1	1	102.257	0.312703	0.312511	-0.55462	2	-0.00657968	40	6.4269	-0.000173325
2	0	0	1	1	102.507	0.307705	0.307544	-0.564886	2	-0.00671976	40	6.6768	-0.000173727
2	0	0	1	1	102.757	0.302708	0.302596	-0.573874	2	-0.00686213	40	6.9267	-0.000173652
2	0	0	1	1	103.006	0.29771	0.297606	-0.582939	2	-0.00700671	40	7.1766	-0.000173486
2	0	0	1	1	103.256	0.292712	0.292538	-0.592054	2	-0.00715368	40	7.4265	-0.000173198
2	0	0	1	1	103.506	0.287715	0.287075	-0.59962	2	-0.00730269	40	7.6763	-0.000172136
2	0	0	1	1	103.756	0.282717	0.282171	-0.607224	2	-0.00745354	40	7.9262	-0.000171341
2	0	0	1	1	104.006	0.27772	0.277433	-0.614935	2	-0.00760634	40	8.1761	-0.000170603
2	0	0	1	1	104.256	0.272722	0.27264	-0.622029	2	-0.007761	40	8.426	-0.00016959
2	0	0	1	1	104.506	0.267724	0.26735	-0.62794	2	-0.00791718	40	8.6759	-0.00016788
2	0	0	1	1	104.756	0.262728	0.262655	-0.634638	2	-0.00807497	40	8.9257	-0.000166691
2	0	0	1	1	105.005	0.257729	0.257487	-0.639886	2	-0.00823436	40	9.1756	-0.000164762
2	0	0	1	1	105.255	0.252731	0.252261	-0.645392	2	-0.00839508	40	9.4255	-0.000162807
2	0	0	1	1	105.505	0.247734	0.247517	-0.650279	2	-0.00855714	40	9.6754	-0.000160955
2	0	0	1	1	105.755	0.242736	0.242506	-0.655755	2	-0.00872047	40	9.9253	-0.000159025
2	0	0	1	1	106.005	0.237738	0.237451	-0.659787	2	-0.00888487	40	10.1752	-0.000156667
2	0	0	1	1	106.255	0.232741	0.232586	-0.663492	2	-0.00905021	40	10.425	-0.000154319
2	0	0	1	1	106.505	0.227743	0.227394	-0.667789	2	-0.00921663	40	10.6749	-0.000151851
2	0	0	1	1	106.755	0.222746	0.222378	-0.670068	2	-0.00938396	40	10.9248	-0.000149008
2	0	0	1	1	107.005	0.217748	0.217466	-0.673641	2	-0.00955186	40	11.1747	-0.000146494
2	0	0	1	1	107.254	0.21275	0.21232	-0.677563	2	-0.00972071	40	11.4246	-0.00014386
2	0	0	1	1	107.504	0.207751	0.207541	-0.680709	2	-0.00989049	40	11.6745	-0.000141275
2	0	0	1	1	107.754	0.202755	0.202582	-0.683741	2	-0.010061	40	11.9243	-0.000138514
2	0	0	1	1	108.004	0.197757	0.197394	-0.685664	2	-0.0102322	40	12.1742	-0.000135346
2	0	0	1	1	108.254	0.19276	0.192467	-0.688682	2	-0.0104041	40	12.4241	-0.000132549
2	0	0	1	1	108.504	0.187762	0.187268	-0.690934	2	-0.0105764	40	12.674	-0.000129389
2	0	0	1	1	108.754	0.182764	0.182398	-0.692467	2	-0.0107494	40	12.9239	-0.000126305
2	0	0	1	1	109.004	0.177767	0.17761	-0.694815	2	-0.0109228	40	13.1737	-0.000123406
2	0	0	1	1	109.253	0.172769	0.172381	-0.69651	2	-0.0110967	40	13.4236	-0.000120065
2	0	0	1	1	109.503	0.167772	0.167616	-0.698276	2	-0.011271	40	13.6735	-0.000117042
2	0	0	1	1	109.753	0.162774	0.162626	-0.70006	2	-0.0114459	40	13.9234	-0.000113848
2	0	0	1	1	110.003	0.157776	0.157524	-0.699995	2	-0.0116209	40	14.1733	-0.000110266
2	0	0	1	1	110.253	0.152779	0.152189	-0.703216	2	-0.0117963	40	14.4231	-0.000107022
2	0	0	1	1	110.503	0.147781	0.147353	-0.704412	2	-0.0119723	40	14.673	-0.000103797
2	0	0	1	1	110.753	0.142783	0.142754	-0.706132	2	-0.0121486	40	14.9229	-0.000100803
2	0	0	1	1	111.003	0.137786	0.13756	-0.707534	2	-0.0123252	40	15.1728	-9.73285e-05
2	0	0	1	1	111.253	0.132788	0.132597	-0.70693	2	-0.012502	40	15.4227	-9.37366e-05
2	0	0	1	1	111.502	0.127791	0.127473	-0.710143	2	-0.0126791	40	15.6726	-9.05243e-05
2	0	0	1	1	111.752	0.122793	0.122476	-0.709739	2	-0.0128566	40	15.9224	-8.69263e-05
2	0	0	1	1	112.002	0.117795	0.117697	-0.711182	2	-0.0130341	40	16.1723	-8.37042e-05
2	0	0	1	1	112.252	0.112798	0.112658	-0.712424	2	-0.0132121	40	16.4222	-8.02604e-05
2	0	0	1	1	112.502	0.1078	0.107588	-0.713536	2	-0.0133903	40	16.6721	-7.67678e-05
2	0	0	1	1	112.752	0.102802	0.102541	-0.71419	2	-0.0135687	40	16.922	-7.32336e-05
2	0	0	1	1	113.002	0.0978029	0.0973986	-0.715148	2	-0.0137474	40	17.1719	-6.96544e-05
2	0	0	1	1	113.252	0.0928071	0.0927168	-0.715091	2	-0.0139261	40	17.4217	-6.6301e-05
2	0	0	1	1	113.501	0.0878094	0.0875569	-0.71609	2	-0.014105	40	17.6716	-6.26986e-05
2	0	0	1	1	113.751	0.0828118	0.0825048	-0.717034	2	-0.0142841	40	17.9215	-5.91587e-05
2	0	0	1	1	114.001	0.0778142	0.077579	-0.716478	2	-0.0144633	40	18.1714	-5.55837e-05
2	0	0	1	1	114.251	0.0728165	0.0726197	-0.716768	2	-0.0146425	40	18.4213	-5.20514e-05
2	0	0	1	1	114.501	0.0678189	0.0675732	-0.718647	2	-0.0148219	40	18.6711	-4.85613e-05
2	0	0	1	1	114.751	0.0628212	0.0626392	-0.720087	2	-0.0150016	40	18.921	-4.51057e-05
2	0	0	1	1	115.001	0.0578236	0.0575669	-0.720425	2	-0.0151815	40	19.1709	-4.14727e-05
2	0	0	1	1	115.251	0.052826	0.052623	-0.720821	2	-0.0153617	40	19.4208	-3.79317e-05
2	0	0	1	1	115.501	0.0478283	0.0474665	-0.721603	2	-0.0155418	40	19.6707	-3.4252e-05
2	0	0	1	1	115.75	0.0428307	0.0426202	-0.720788	2	-0.015722	40	19.9205	-3.07201e-05
2	0	0	1	1	116	0.0378331	0.0375645	-0.722004	2	-0.0159022	40	20.1704	-2.71218e-05
2	0	0	1	1	116.25	0.0328354	0.0325009	-0.722665	2	-0.0160827	40	20.4203	-2.34872e-05
2	0	0	1	1	116.5	0.0278378	0.0277071	-0.723366	2	-0.0162634	40	20.6702	-2.00424e-05
2	0	0	1	1	116.75	0.0228402	0.0226417	-0.722514	2	-0.0164441	40	20.9201	-1.63589e-05
2	0	0	1	1	117	0.0178443	0.0176197	-0.723527	2	-0.0166248	40	21.1699	-1.27483e-05
2	0	0	1	1	117.25	0.0128449	0.0126915	-0.724543	2	-0.0168058	40	21.4198	-9.19553e-06
2	0	0	1	1	117.5	0.00784727	0.00758907	-0.72364	2	-0.0169867	40	21.6697	-5.49175e-06
2	0	0	1	1	117.749	0.00284963	0.00238421	-0.724549	2	-0.0171678	40	21.9196	-1.72748e-06
2	0	0	1	0	117.93	0.000749735	0.000490738	-0.724211	2	-0.0172983	40	22.0997	-3.55398e-07
2	0	0	1	0	118.179	0.00574826	0.00555179	-0.722715	2	-0.0174792	40	22.3496	-4.01236e-06
2	0	0	1	0	118.429	0.0107459	0.0105542	-0.723597	2	-0.0176598	40	22.5995	-7.63699e-06
2	0	0	1	0	118.679	0.0157435	0.0155325	-0.722379	2	-0.0178405	40	22.8494	-1.12204e-05
2	0	0	1	0	118.929	0.0207412	0.0204472	-0.721214	2	-0.0180209	40	23.0993	-1.47468e-05
2	0	0	1	0	119.179	0.0257388	0.0253969	-0.721748	2	-0.0182011	40	23.3492	-1.83301e-05
2	0	0	1	0	119.429	0.0307364	0.0306643	-0.720732	2	-0.0183813	40	23.599	-2.21007e-05
2	0	0	1	0	119.679	0.0357341	0.0354943	-0.720276	2	-0.0185613	40	23.8489	-2.55657e-05
2	0	0	1	0	119.929	0.0407317	0.0405652	-0.719467	2	-0.0187412	40	24.0988	-2.91853e-05
2	0	0	1	0	120.179	0.0457293	0.0455587	-0.718867	2	-0.018921	40	24.3487	-3.27507e-05
2	0	0	1	0	120.428	0.050727	0.0505553	-0.717282	2	-0.0191003	40	24.5986	-3.62624e-05
2	0	0	1	0	120.678	0.0557259	0.0555584	-0.717427	2	-0.0192796	40	24.8485	-3.98591e-05
2	0	0	1	0	120.928	0.0607222	0.0605121	-0.716028	2	-0.0194585	40	25.0983	-4.33284e-05
2	0	0	1	0	121.178	0.0657199	0.0653522	-0.715689	2	-0.0196374	40	25.3482	-4.67719e-05
2	0	0	1	0	121.428	0.0707175	0.0706783	-0.715072	2	-0.0198161	40	25.5981	-5.05401e-05
2	0	0	1	0	121.678	0.0757151	0.0756027	-0.714081	2	-0.0199947	40	25.848	-5.39865e-05
2	0	0	1	0	121.928	0.0807128	0.0803548	-0.712724	2	-0.020173	40	26.0979	-5.72707e-05
2	0	0	1	0	122.178	0.0857104	0.0856042	-0.711903	2	-0.0203509	40	26.3477	-6.09419e-05
2	0	0	1	0	122.427	0.0907081	0.0904199	-0.711469	2	-0.0205289	40	26.5976	-6.4331e-05
2	0	0	1	0	122.677	0.0957057	0.0954816	-0.710001	2	-0.0207064	40	26.8475	-6.7792e-05
2	0	0	1	0	122.927	0.100703	0.100261	-0.707635	2	-0.0208834	40	27.0974	-7.09484e-05
2	0	0	1	0	123.177	0.105701	0.105491	-0.706848	2	-0.0210602	40	27.3473	-7.45658e-05
2	0	0	1	0	123.427	0.110698	0.11046	-0.703887	2	-0.0212363	40	27.5971	-7.77513e-05
2	0	0	1	0	123.677	0.115696	0.115488	-0.704293	2	-0.0214123	40	27.847	-8.13376e-05
2	0	0	1	0	123.927	0.120694	0.120498	-0.702401	2	-0.0215881	40	28.0969	-8.46379e-05
2	0	0	1	0	124.177	0.125691	0.125608	-0.701651	2	-0.0217636	40	28.3468	-8.81332e-05
2	0	0	1	0	124.427	0.130689	0.130476	-0.699811	2	-0.0219387	40	28.5967	-9.13088e-05
2	0	0	1	0	124.676	0.135687	0.135336	-0.697579	2	-0.0221133	40	28.8466	-9.44073e-05
2	0	0	1	0	124.926	0.140684	0.140492	-0.696336	2	-0.0222873	40	29.0964	-9.78299e-05
2	0	0	1	0	125.176	0.145682	0.145474	-0.695211	2	-0.0224611	40	29.3463	-0.000101135
2	0	0	1	0	125.426	0.15068	0.150522	-0.692434	2	-0.0226344	40	29.5962	-0.000104227
2	0	0	1	0	125.676	0.155677	0.155379	-0.689352	2	-0.022807	40	29.8461	-0.000107111
2	0	0	1	0	125.926	0.160675	0.160524	-0.687692	2	-0.0229791	40	30.096	-0.000110391
2	0	0	1	0	126.176	0.165674	0.165421	-0.684797	2	-0.0231506	40	30.3459	-0.00011328
2	0	0	1	0	126.426	0.17067	0.170414	-0.681505	2	-0.0233212	40	30.5957	-0.000116138
2	0	0	1	0	126.675	0.175668	0.175383	-0.67861	2	-0.023491	40	30.8456	-0.000119016
2	0	0	1	0	126.925	0.180665	0.180462	-0.676402	2	-0.0236603	40	31.0955	-0.000122065
2	0	0	1	0	127.175	0.185663	0.185443	-0.673892	2	-0.023829	40	31.3454	-0.000124969
2	0	0	1	0	127.425	0.190661	0.190339	-0.67063	2	-0.0239968	40	31.5953	-0.000127647
2	0	0	1	0	127.675	0.195658	0.195261	-0.667162	2	-0.0241639	40	31.8451	-0.000130271
2	0	0	1	0	127.925	0.200656	0.200439	-0.663534	2	-0.0243301	40	32.095	-0.000132998
2	0	0	1	0	128.175	0.205654	0.205207	-0.659837	2	-0.0244954	40	32.3449	-0.000135403
2	0	0	1	0	128.425	0.210651	0.210397	-0.656134	2	-0.0246597	40	32.5948	-0.000138048
2	0	0	1	0	128.675	0.215649	0.21523	-0.651841	2	-0.024823	40	32.8447	-0.000140295
2	0	0	1	0	128.924	0.220646	0.220559	-0.64806	2	-0.0249853	40	33.0945	-0.000142935
2	0	0	1	0	129.174	0.225644	0.2254	-0.642836	2	-0.0251466	40	33.3444	-0.000144895
2	0	0	1	0	129.424	0.230642	0.230422	-0.636818	2	-0.0253065	40	33.5943	-0.000146737
2	0	0	1	0	129.674	0.235639	0.235209	-0.632111	2	-0.0254649	40	33.8442	-0.000148678
2	0	0	1	0	129.924	0.240637	0.240436	-0.627482	2	-0.0256223	40	34.0941	-0.000150869
2	0	0	1	0	130.174	0.245633	0.245364	-0.619907	2	-0.0257781	40	34.3439	-0.000152103
2	0	0	1	0	130.424	0.250632	0.250581	-0.615056	2	-0.0259327	40	34.5938	-0.000154121
2	0	0	1	0	130.674	0.25563	0.255397	-0.609173	2	-0.0260857	40	34.8437	-0.000155581
2	0	0	1	0	130.923	0.260628	0.260467	-0.601222	2	-0.026237	40	35.0936	-0.000156599
2	0	0	1	0	131.173	0.265625	0.265333	-0.595882	2	-0.0263864	40	35.3435	-0.000158107
2	0	0	1	0	131.423	0.270623	0.270339	-0.588905	2	-0.0265343	40	35.5934	-0.000159204
2	0	0	1	0	131.673	0.275622	0.275525	-0.57847	2	-0.02668	40	35.8433	-0.000159383
2	0	0	1	0	131.923	0.280618	0.280371	-0.570662	2	-0.0268236	40	36.0931	-0.000159997
2	0	0	1	0	132.173	0.285616	0.285315	-0.56246	2	-0.0269651	40	36.343	-0.000160478
2	0	0	1	0	132.423	0.290613	0.290407	-0.55266	2	-0.0271044	40	36.5929	-0.000160496
2	0	0	1	0	132.673	0.295611	0.295361	-0.541065	2	-0.027241	40	36.8428	-0.00015981
2	0	0	1	0	132.923	0.300609	0.300091	-0.531606	2	-0.0273751	40	37.0927	-0.00015953
2	0	0	1	0	133.172	0.305606	0.30527	-0.520487	2	-0.0275065	40	37.3425	-0.000158889
2	0	0	1	0	133.422	0.310604	0.310385	-0.509067	2	-0.0276351	40	37.5924	-0.000158007
2	0	0	1	0	133.672	0.315602	0.315375	-0.496496	2	-0.0277606	40	37.8423	-0.000156583
2	0	0	1	0	133.922	0.320599	0.320271	-0.483978	2	-0.0278831	40	38.0922	-0.000155004
2	0	0	1	0	134.172	0.325597	0.32527	-0.470925	2	-0.0280023	40	38.3421	-0.000153178
2	0	0	1	0	134.422	0.330594	0.330374	-0.456639	2	-0.028118	40	38.5919	-0.000150862
2	0	0	1	0	134.672	0.335592	0.335528	-0.441883	2	-0.0282302	40	38.8418	-0.000148264
2	0	0	1	0	134.922	0.34059	0.340278	-0.426793	2	-0.0283387	40	39.0917	-0.000145228
2	0	0	1	0	135.171	0.345587	0.345216	-0.410878	2	-0.0284433	40	39.3416	-0.000141842
2	0	0	1	0	135.421	0.350585	0.350184	-0.394754	2	-0.0285439	40	39.5915	-0.000138237
2	0	0	1	0	135.671	0.355581	0.355179	-0.377585	2	-0.0286403	40	39.8413	-0.000134111
2	0	0	1	0	135.921	0.36058	0.360259	-0.360474	2	-0.0287324	40	40.0912	-0.000129864
2	0	0	1	0	136.171	0.365578	0.365227	-0.342242	2	-0.0288201	40	40.3411	-0.000124996
2	0	0	1	0	136.421	0.370576	0.370262	-0.323662	2	-0.0289033	40	40.591	-0.00011984
2	0	0	1	0	136.671	0.375573	0.375238	-0.304525	2	-0.0289817	40	40.8409	-0.000114269
2	0	0	1	0	136.921	0.380571	0.380234	-0.284453	2	-0.0290551	40	41.0908	-0.000108159
2	0	0	1	0	137.171	0.38557	0.385448	-0.26436	2	-0.0291236	40	41.3407	-0.000101897
2	0	0	1	0	137.42	0.390566	0.390378	-0.24312	2	-0.0291869	40	41.5905	-9.49089e-05
2	0	0	1	0	137.67	0.395564	0.395259	-0.221486	2	-0.0292448	40	41.8404	-8.75444e-05
2	0	0	1	0	137.92	0.400561	0.400417	-0.199295	2	-0.0292973	40	42.0903	-7.98011e-05
2	0	0	1	0	138.17	0.405559	0.405387	-0.176436	2	-0.0293441	40	42.3402	-7.15248e-05
2	0	0	1	0	138.42	0.410557	0.410193	-0.152741	2	-0.0293851	40	42.5901	-6.26533e-05
2	0	0	1	0	138.67	0.415554	0.415178	-0.12862	2	-0.0294202	40	42.8399	-5.34003e-05
2	0	0	1	0	138.92	0.420552	0.420199	-0.10361	2	-0.0294491	40	43.0898	-4.3537e-05
2	0	0	1	0	139.17	0.42555	0.425305	-0.0778155	2	-0.0294716	40	43.3397	-3.30954e-05
2	0	0	1	0	139.419	0.430547	0.430337	-0.051501	2	-0.0294876	40	43.5896	-2.21628e-05
2	0	0	1	0	139.699	0.436146	0.435839	-0.0208586	2	-0.0294977	41	43.8695	-9.09099e-06
2	1	0	0	0	139.912	0.440418	0.440069	0.00237539	2	-0.0294997	41	0.000000000000000E+000	1.04533e-06