File: Python/Data/GoldElectrode/240322/Gold/240322-CVEIS-Activation-5mM_Fe2Fe3-1M_H2SO4-0000RPM-Ag_AgCl_BLF8-Au_RDE_02_PEIS_C15.mpt
EC-Lab ASCII FILE
Nb header lines : 66

Potentio Electrochemical Impedance Spectroscopy

Run on channel : 15 (SN 19485)
User :
Electrode connection : standard
Potential control : Ewe
Ewe ctrl range : min = -2.50 V, max = 2.50 V
Ewe,I filtering : 50 kHz
Safety Limits :
	Do not start on E overload
Channel : Floating
Acquisition started on : 03/22/2024 10:02:07.151
Loaded Setting File :  C:\Data\mathias\GoldElectrode\240321-CVEIS-Activation-5mM_Fe2Fe3-1M_H2SO4-0000RPM-Ag_AgCl_BLF8-Au_RDE.mps
Saved on :
	File : 240322-CVEIS-Activation-5mM_Fe2Fe3-1M_H2SO4-0000RPM-Ag_AgCl_BLF8-Au_RDE_02_PEIS_C15.mpr
	Directory : C:\Data\mathias\GoldElectrode\
	Host : 192.168.0.1
Device : VMP-300 (SN 0826)
Address : USB
EC-Lab for windows v11.52 (software)
Internet server v11.52 (firmware)
Command interpretor v11.52 (firmware)
Electrode material :
Initial state :
Electrolyte :
Comments :
Cable : special
Electrode surface area : 0.001 cm²
Characteristic mass : 0.001 g
Equivalent Weight : 0.000 g/eq.
Density : 0.000 g/cm3
Volume (V) : 0.001 cm³
Record EIS quality indicators
Cycle Definition : Charge/Discharge alternance
Mode                Single sine
E (V)               0.0000
vs.                 Eoc
tE (h:m:s)          0:00:0.0000
record              0
dI                  0.000
unit dI             mA
dt (s)              0.000
fi                  100.000
unit fi             kHz
ff                  100.000
unit ff             Hz
Nd                  10
Points              per decade
spacing             Logarithmic
Va (mV)             5.0
pw                  0.10
Na                  2
corr                0
E range min (V)     -2.500
E range max (V)     2.500
I Range             Auto
Bandwidth           8
nc cycles           0
goto Ns'            0
nr cycles           0
inc. cycle          0

freq/Hz	Re(Z)/Ohm	-Im(Z)/Ohm	|Z|/Ohm	Phase(Z)/deg	time/s	<Ewe>/V	<I>/mA	Cs/µF	Cp/µF	cycle number	I Range	|Ewe|/V	|I|/A	Ns	(Q-Qo)/mA.h	THD Ewe/%	NSD Ewe/%	NSR Ewe/%	|Ewe h2|/V	|Ewe h3|/V	|Ewe h4|/V	|Ewe h5|/V	|Ewe h6|/V	|Ewe h7|/V	THD I/%	NSD I/%	NSR I/%	|I h2|/A	|I h3|/A	|I h4|/A	|I h5|/A	|I h6|/A	|I h7|/A	Re(Y)/Ohm-1	Im(Y)/Ohm-1	|Y|/Ohm-1	Phase(Y)/deg	Re(C)/nF	Im(C)/nF	|C|/nF	Phase(C)/deg	Re(M)	Im(M)	|M|	Phase(M)/deg	Re(Permittivity)	Im(Permittivity)	|Permittivity|	Phase(Permittivity)/deg	Re(Resistivity)/Ohm.cm	Im(Resistivity)/Ohm.cm	|Resistivity|/Ohm.cm	Phase(Resistivity)/deg	Re(Conductivity)/mS/cm	Im(Conductivity)/mS/cm	|Conductivity|/mS/cm	Phase(Conductivity)/deg	Tan(Delta)	Loss Angle(Delta)/deg	dq/mA.h
100004	2.87011	0.457477	2.90635	-9.05638	21.0577	0.44187	-0.202457	3.47884	0.0861944	1	37	0.00486676	0.00167453	0	-4.43347e-05	1.34983	0.719745	26.9784	2.29775e-05	2.98818e-05	3.30594e-05	6.69873e-06	2.18538e-05	2.9389e-05	0.542836	0.405119	10.3665	4.47724e-06	3.39753e-06	2.04207e-06	3.19524e-06	4.86896e-06	2.59746e-06	0.339785	0.0541595	0.344075	9.05638	86.1944	540.765	547.592	-80.9436	0.0000000E+000	0.0000000E+000	0.0000000E+000	80.9436	0.0000000E+000	0.0000000E+000	0.0000000E+000	-80.9436	0.0000000E+000	0.0000000E+000	0.0000000E+000	-9.05638	0.0000000E+000	0.0000000E+000	0.0000000E+000	9.05638	6.27379	80.9436	-4.43347e-05
79433.3	2.88218	0.573682	2.93872	-11.2573	21.8727	0.44189	-0.10927	3.49258	0.133098	1	37	0.00516168	0.00175644	0	-6.74724e-05	1.10523	1.08523	25.7488	1.66565e-05	2.62424e-05	2.24547e-05	1.73306e-05	2.36037e-05	2.39411e-05	0.432268	0.410621	9.87452	2.75431e-06	1.27588e-06	2.39534e-06	3.39753e-06	3.16535e-06	3.97024e-06	0.333738	0.0664286	0.340284	11.2573	133.098	668.687	681.804	-78.7427	0.0000000E+000	0.0000000E+000	0.0000000E+000	78.7427	0.0000000E+000	0.0000000E+000	0.0000000E+000	-78.7427	0.0000000E+000	0.0000000E+000	0.0000000E+000	-11.2573	0.0000000E+000	0.0000000E+000	0.0000000E+000	11.2573	5.024	78.7427	-2.31376e-05
63093.8	2.90915	0.6781	2.98713	-13.1209	22.6877	0.441878	-0.09935	3.71997	0.191698	1	37	0.00518045	0.00173426	0	-9.27137e-05	2.06176	0.714558	25.5015	8.63817e-05	1.44531e-05	2.01057e-05	3.05471e-05	3.28258e-05	2.03405e-05	0.457138	0.316514	10.2454	2.80641e-06	3.02966e-06	3.3633e-06	3.94638e-06	1.47486e-06	3.50172e-06	0.32603	0.0759951	0.334769	13.1209	191.699	822.414	844.46	-76.8791	0.0000000E+000	0.0000000E+000	0.0000000E+000	76.8791	0.0000000E+000	0.0000000E+000	0.0000000E+000	-76.8791	0.0000000E+000	0.0000000E+000	0.0000000E+000	-13.1209	0.0000000E+000	0.0000000E+000	0.0000000E+000	13.1209	4.29014	76.8791	-2.52414e-05
50122.5	2.93651	0.827586	3.0509	-15.7392	23.5027	0.441838	-0.104077	3.83685	0.282321	1	37	0.00518899	0.0017008	0	-0.000118484	1.52202	0.651661	25.4247	2.84176e-05	2.05475e-05	1.53834e-05	2.14207e-05	3.1814e-05	5.31847e-05	0.624705	0.322408	10.2932	2.94613e-06	2.04609e-06	7.17779e-06	2.90074e-06	4.26392e-06	2.55597e-06	0.315482	0.0889111	0.327772	15.7392	282.321	1001.76	1040.78	-74.2608	0.0000000E+000	0.0000000E+000	0.0000000E+000	74.2608	0.0000000E+000	0.0000000E+000	0.0000000E+000	-74.2608	0.0000000E+000	0.0000000E+000	0.0000000E+000	-15.7392	0.0000000E+000	0.0000000E+000	0.0000000E+000	15.7392	3.54829	74.2608	-2.57703e-05
39814.1	2.9886	1.00731	3.15379	-18.6264	24.3177	0.441855	-0.105324	3.96844	0.404838	1	37	0.00518389	0.0016437	0	-0.000143726	1.42481	0.765033	25.7698	3.93071e-05	2.26438e-05	3.1217e-05	8.35845e-06	2.70057e-05	2.7825e-05	0.561937	0.0681351	10.7037	3.05539e-06	2.3068e-06	1.61306e-06	3.34439e-06	4.76523e-06	4.48153e-06	0.30047	0.101274	0.317079	18.6264	404.838	1201.12	1267.51	-71.3735	0.0000000E+000	0.0000000E+000	0.0000000E+000	71.3735	0.0000000E+000	0.0000000E+000	0.0000000E+000	-71.3735	0.0000000E+000	0.0000000E+000	0.0000000E+000	-18.6264	0.0000000E+000	0.0000000E+000	0.0000000E+000	18.6264	2.96691	71.3735	-2.52423e-05
31621.1	3.04781	1.22445	3.28457	-21.8876	25.1327	0.441868	-0.101825	4.11058	0.571249	1	37	0.0051956	0.00158182	0	-0.000167583	1.742	0.345531	25.5373	5.79963e-05	1.85226e-05	4.60775e-05	2.82569e-05	1.23986e-05	2.02874e-05	0.659553	0.396409	11.2766	2.63686e-06	4.09144e-06	5.09393e-06	2.30996e-06	1.83665e-06	5.80346e-06	0.282508	0.113497	0.304454	21.8876	571.249	1421.91	1532.37	-68.1124	0.0000000E+000	0.0000000E+000	0.0000000E+000	68.1124	0.0000000E+000	0.0000000E+000	0.0000000E+000	-68.1124	0.0000000E+000	0.0000000E+000	0.0000000E+000	-21.8876	0.0000000E+000	0.0000000E+000	0.0000000E+000	21.8876	2.48913	68.1124	-2.38564e-05
25116.9	3.11219	1.49081	3.45083	-25.5955	25.9477	0.441886	-0.100634	4.25042	0.793286	1	37	0.00513446	0.00148789	0	-0.000190363	1.06907	0.79464	25.9742	1.77555e-05	2.61306e-05	3.06598e-05	2.36678e-05	8.11645e-06	1.945e-05	0.667663	0.332643	11.7949	4.54779e-06	1.95673e-06	4.45599e-06	4.38528e-06	4.4077e-06	2.00472e-06	0.261348	0.125192	0.289785	25.5955	793.286	1656.05	1836.24	-64.4045	0.0000000E+000	0.0000000E+000	0.0000000E+000	64.4045	0.0000000E+000	0.0000000E+000	0.0000000E+000	-64.4045	0.0000000E+000	0.0000000E+000	0.0000000E+000	-25.5955	0.0000000E+000	0.0000000E+000	0.0000000E+000	25.5955	2.08758	64.4045	-2.278e-05
19948.8	3.19228	1.82692	3.67808	-29.7822	26.7627	0.441841	-0.099685	4.36702	1.07741	1	37	0.00522223	0.00141983	0	-0.00021342	1.75849	0.943361	25.1527	1.44772e-05	1.42449e-05	6.89917e-05	1.8387e-05	3.63144e-05	3.00431e-05	0.491106	0.504175	12.7051	2.79312e-06	3.22557e-06	2.58651e-06	3.02886e-06	1.55207e-06	3.06344e-06	0.235971	0.135045	0.271881	29.7822	1077.41	1882.62	2169.12	-60.2178	0.0000000E+000	0.0000000E+000	0.0000000E+000	60.2178	0.0000000E+000	0.0000000E+000	0.0000000E+000	-60.2178	0.0000000E+000	0.0000000E+000	0.0000000E+000	-29.7822	0.0000000E+000	0.0000000E+000	0.0000000E+000	29.7822	1.74736	60.2178	-2.30574e-05
15847.7	3.27954	2.23277	3.96745	-34.2478	27.5777	0.44183	-0.0976378	4.4979	1.42454	1	37	0.00509845	0.00128507	0	-0.000236748	1.00248	0.925425	26.1112	2.86673e-05	1.56883e-05	2.07863e-05	1.63553e-05	1.51895e-05	2.06881e-05	0.907861	0.403574	13.7292	4.40689e-06	3.28343e-06	4.19987e-06	4.01635e-06	5.60531e-06	4.59734e-06	0.208348	0.141848	0.252051	34.2478	1424.54	2092.4	2531.3	-55.7522	0.0000000E+000	0.0000000E+000	0.0000000E+000	55.7522	0.0000000E+000	0.0000000E+000	0.0000000E+000	-55.7522	0.0000000E+000	0.0000000E+000	0.0000000E+000	-34.2478	0.0000000E+000	0.0000000E+000	0.0000000E+000	34.2478	1.46882	55.7522	-2.33276e-05
12590.9	3.38528	2.70865	4.33554	-38.6642	28.3927	0.441862	-0.0939342	4.66669	1.8215	1	37	0.00511217	0.00117913	0	-0.000256291	1.59114	1.68304	25.5135	3.05165e-05	2.64315e-05	2.28983e-05	4.7576e-05	9.54506e-06	3.77569e-05	1.03943	0.728119	14.9462	6.74603e-06	2.79583e-06	2.70486e-06	4.50766e-06	5.96723e-06	5.04911e-06	0.180098	0.144101	0.230652	38.6642	1821.5	2276.51	2915.54	-51.3358	0.0000000E+000	0.0000000E+000	0.0000000E+000	51.3358	0.0000000E+000	0.0000000E+000	0.0000000E+000	-51.3358	0.0000000E+000	0.0000000E+000	0.0000000E+000	-38.6642	0.0000000E+000	0.0000000E+000	0.0000000E+000	38.6642	1.2498	51.3358	-1.95432e-05
10002.2	3.50889	3.35155	4.85234	-43.6862	29.3747	0.441848	-0.00675911	4.74764	2.26499	1	38	0.00490439	0.00101073	0	-0.000262564	1.29108	0.83414	26.2814	2.57249e-05	2.44019e-05	2.37888e-05	2.08869e-05	1.23825e-05	3.64323e-05	0.190106	0.0870949	2.94453	3.90871e-07	6.20698e-07	5.8938e-07	1.22218e-06	7.70253e-07	3.10014e-07	0.149028	0.142345	0.206086	43.6862	2264.99	2371.32	3279.23	-46.3138	0.0000000E+000	0.0000000E+000	0.0000000E+000	46.3138	0.0000000E+000	0.0000000E+000	0.0000000E+000	-46.3138	0.0000000E+000	0.0000000E+000	0.0000000E+000	-43.6862	0.0000000E+000	0.0000000E+000	0.0000000E+000	43.6862	1.04695	46.3138	-6.27288e-06
7944	3.68367	4.10966	5.51894	-48.1287	30.2242	0.441728	-0.0069602	4.87501	2.70318	1	38	0.0052184	0.000945543	0	-0.000264033	0.968508	0.917851	24.7512	1.57459e-05	2.37952e-05	1.94165e-05	1.72476e-05	2.85472e-05	1.00084e-05	0.169446	0.0691235	3.11486	9.98105e-07	4.40883e-07	4.41287e-07	5.15072e-07	7.04498e-07	5.21776e-07	0.12094	0.134925	0.181194	48.1287	2703.18	2422.98	3630.16	-41.8713	0.0000000E+000	0.0000000E+000	0.0000000E+000	41.8713	0.0000000E+000	0.0000000E+000	0.0000000E+000	-41.8713	0.0000000E+000	0.0000000E+000	0.0000000E+000	-48.1287	0.0000000E+000	0.0000000E+000	0.0000000E+000	48.1287	0.896346	41.8713	-1.46927e-06
6307.74	3.88599	5.06086	6.38069	-52.4811	31.1228	0.441704	-0.00656175	4.98566	3.13643	1	38	0.00516132	0.000808896	0	-0.000265754	1.30329	1.22801	24.4889	1.87283e-05	4.41622e-05	2.16538e-05	9.04108e-06	2.51387e-05	1.4323e-05	0.279732	0.201591	3.63254	1.60069e-06	5.18896e-07	5.91911e-07	4.6888e-07	1.05813e-06	7.0648e-07	0.0954479	0.124305	0.156723	52.4811	3136.43	2408.31	3954.39	-37.5189	0.0000000E+000	0.0000000E+000	0.0000000E+000	37.5189	0.0000000E+000	0.0000000E+000	0.0000000E+000	-37.5189	0.0000000E+000	0.0000000E+000	0.0000000E+000	-52.4811	0.0000000E+000	0.0000000E+000	0.0000000E+000	52.4811	0.767851	37.5189	-1.72059e-06
5011.6	4.09856	6.17527	7.41163	-56.4276	31.8789	0.441734	-0.00674608	5.14265	3.57004	1	38	0.00515356	0.000695334	0	-0.000266953	1.22592	0.565497	25.1903	3.11718e-05	1.27197e-05	1.36586e-05	3.03475e-05	1.00673e-05	3.70796e-05	0.349729	0.0842382	4.30127	2.00502e-06	9.30618e-07	7.33819e-07	4.61063e-07	2.32507e-07	3.81648e-07	0.0746113	0.112416	0.134923	56.4276	3570.04	2369.45	4284.79	-33.5724	0.0000000E+000	0.0000000E+000	0.0000000E+000	33.5724	0.0000000E+000	0.0000000E+000	0.0000000E+000	-33.5724	0.0000000E+000	0.0000000E+000	0.0000000E+000	-56.4276	0.0000000E+000	0.0000000E+000	0.0000000E+000	56.4276	0.663705	33.5724	-1.19957e-06
3981.28	4.40637	7.62323	8.8051	-59.9713	32.6219	0.441728	-0.00634949	5.24395	3.93069	1	38	0.00496908	0.000564341	0	-0.00026806	2.08337	0.42177	26.5221	4.01397e-05	3.00136e-05	2.18764e-05	6.13379e-05	4.44747e-05	1.69201e-05	0.547167	0.167865	5.20385	2.7157e-06	1.00903e-06	4.86787e-07	6.86374e-07	3.3562e-07	4.82222e-07	0.0568345	0.0983265	0.113571	59.9713	3930.69	2272.01	4540.08	-30.0287	0.0000000E+000	0.0000000E+000	0.0000000E+000	30.0287	0.0000000E+000	0.0000000E+000	0.0000000E+000	-30.0287	0.0000000E+000	0.0000000E+000	0.0000000E+000	-59.9713	0.0000000E+000	0.0000000E+000	0.0000000E+000	59.9713	0.578018	30.0287	-1.10691e-06
3163.04	4.79643	9.26164	10.4299	-62.6212	33.3647	0.441767	-0.00674795	5.43285	4.2839	1	38	0.00470353	0.000450964	0	-0.000269396	1.35412	0.365401	27.2358	2.21185e-05	8.81687e-06	1.83822e-05	2.15128e-05	2.57763e-05	3.70767e-05	0.589955	0.188618	6.72633	2.13284e-06	9.27673e-07	4.64213e-07	6.78e-07	4.54369e-07	7.1819e-07	0.0440914	0.0851381	0.0958778	62.6212	4283.9	2218.55	4824.29	-27.3788	0.0000000E+000	0.0000000E+000	0.0000000E+000	27.3788	0.0000000E+000	0.0000000E+000	0.0000000E+000	-27.3788	0.0000000E+000	0.0000000E+000	0.0000000E+000	-62.6212	0.0000000E+000	0.0000000E+000	0.0000000E+000	62.6212	0.517881	27.3788	-1.33541e-06
2512.41	5.18422	11.4019	12.5252	-65.5497	34.1078	0.44173	-0.00608138	5.55586	4.60405	1	38	0.00452611	0.000361361	0	-0.00027052	1.3732	0.748475	28.7193	1.79959e-05	2.53966e-05	1.52543e-05	2.6684e-05	2.40997e-05	3.20595e-05	0.629825	0.314375	8.26958	1.75279e-06	6.92583e-07	1.00669e-06	4.44074e-07	5.66497e-07	2.0344e-07	0.0330458	0.0726793	0.0798392	65.5497	4604.05	2093.37	5057.62	-24.4503	0.0000000E+000	0.0000000E+000	0.0000000E+000	24.4503	0.0000000E+000	0.0000000E+000	0.0000000E+000	-24.4503	0.0000000E+000	0.0000000E+000	0.0000000E+000	-65.5497	0.0000000E+000	0.0000000E+000	0.0000000E+000	65.5497	0.454679	24.4503	-1.12422e-06
1995.64	5.74537	13.9773	15.1121	-67.655	35.0729	0.441722	-0.00632716	5.70576	4.88105	1	38	0.00487315	0.000322467	0	-0.000272591	1.32118	1.79577	26.0798	4.51531e-05	1.75398e-05	1.97001e-05	2.71524e-05	2.04986e-05	9.44427e-06	0.74514	0.716664	9.23359	1.7296e-06	1.29434e-06	4.38731e-07	5.27369e-07	7.17163e-07	2.33792e-07	0.0251576	0.0612034	0.0661722	67.655	4881.05	2006.35	5277.32	-22.345	0.0000000E+000	0.0000000E+000	0.0000000E+000	22.345	0.0000000E+000	0.0000000E+000	0.0000000E+000	-22.345	0.0000000E+000	0.0000000E+000	0.0000000E+000	-67.655	0.0000000E+000	0.0000000E+000	0.0000000E+000	67.655	0.411049	22.345	-2.07163e-06
1584.49	6.48712	17.1679	18.3526	-69.3003	35.817	0.441759	-0.00529751	5.85077	5.11976	1	38	0.00479724	0.000261392	0	-0.000273994	1.09799	0.572635	27.2421	1.68325e-05	2.76653e-05	2.88052e-05	9.64731e-06	1.77946e-05	1.59753e-05	0.937826	0.338546	11.223	1.96751e-06	1.02911e-06	5.58831e-07	6.14194e-07	3.48082e-07	3.80335e-07	0.0192599	0.0509706	0.0544881	69.3003	5119.76	1934.57	5473.08	-20.6997	0.0000000E+000	0.0000000E+000	0.0000000E+000	20.6997	0.0000000E+000	0.0000000E+000	0.0000000E+000	-20.6997	0.0000000E+000	0.0000000E+000	0.0000000E+000	-69.3003	0.0000000E+000	0.0000000E+000	0.0000000E+000	69.3003	0.377863	20.6997	-1.40293e-06
1258.79	7.35239	20.8751	22.132	-70.5973	36.5601	0.441764	-0.00590264	6.05673	5.38831	1	38	0.0046928	0.000212037	0	-0.000275203	1.01229	1.42178	27.3308	7.8015e-06	1.19063e-05	2.46682e-05	2.10291e-05	1.61546e-05	1.71388e-05	0.956127	0.346262	14.3191	1.09278e-06	7.34844e-07	8.31684e-07	6.49648e-07	3.95968e-07	4.53378e-07	0.0150102	0.0426173	0.0451834	70.5973	5388.31	1897.81	5712.75	-19.4027	0.0000000E+000	0.0000000E+000	0.0000000E+000	19.4027	0.0000000E+000	0.0000000E+000	0.0000000E+000	-19.4027	0.0000000E+000	0.0000000E+000	0.0000000E+000	-70.5973	0.0000000E+000	0.0000000E+000	0.0000000E+000	70.5973	0.352209	19.4027	-1.20898e-06
999.682	8.64649	25.6244	27.0439	-71.354	37.304	0.441736	-0.00579837	6.21305	5.57794	1	38	0.00467781	0.000172971	0	-0.00027653	1.40596	0.81789	27.0417	8.63303e-06	1.01513e-05	1.69709e-05	2.3717e-05	2.66022e-05	4.79137e-05	1.03954	0.320448	17.4515	1.07253e-06	2.50031e-07	5.95359e-07	7.94338e-07	4.19297e-07	8.14324e-07	0.0118223	0.0350361	0.0369769	71.354	5577.94	1882.18	5886.94	-18.646	0.0000000E+000	0.0000000E+000	0.0000000E+000	18.646	0.0000000E+000	0.0000000E+000	0.0000000E+000	-18.646	0.0000000E+000	0.0000000E+000	0.0000000E+000	-71.354	0.0000000E+000	0.0000000E+000	0.0000000E+000	71.354	0.337432	18.646	-1.32634e-06
794.239	10.1397	31.749	33.3289	-72.2881	38.3001	0.44171	0.00123585	6.31158	5.7274	1	39	0.00510094	0.000153049	0	-0.000276715	1.69259	1.32269	25.3109	4.85063e-05	3.59645e-05	1.66729e-05	3.49655e-05	1.69196e-05	3.16717e-05	0.936309	0.370734	7.72926	1.16462e-06	6.77455e-07	1.65852e-07	2.32461e-07	1.88686e-07	3.00662e-07	0.00912813	0.0285818	0.030004	72.2881	5727.41	1829.15	6012.4	-17.7119	0.0000000E+000	0.0000000E+000	0.0000000E+000	17.7119	0.0000000E+000	0.0000000E+000	0.0000000E+000	-17.7119	0.0000000E+000	0.0000000E+000	0.0000000E+000	-72.2881	0.0000000E+000	0.0000000E+000	0.0000000E+000	72.2881	0.319369	17.7119	-1.85592e-07
631.01	12.1808	38.509	40.3896	-72.4473	39.0416	0.441718	0.00114788	6.5497	5.95399	1	39	0.00490198	0.000121367	0	-0.000276537	1.47232	0.663602	26.9207	2.32208e-05	3.53542e-05	2.15401e-05	3.47692e-05	2.92198e-05	1.52684e-05	0.775064	0.293959	10.1143	6.63979e-07	3.61664e-07	3.21074e-07	3.76886e-07	2.07193e-07	8.50681e-08	0.00746685	0.0236061	0.0247589	72.4473	5953.99	1883.31	6244.75	-17.5527	0.0000000E+000	0.0000000E+000	0.0000000E+000	17.5527	0.0000000E+000	0.0000000E+000	0.0000000E+000	-17.5527	0.0000000E+000	0.0000000E+000	0.0000000E+000	-72.4473	0.0000000E+000	0.0000000E+000	0.0000000E+000	72.4473	0.31631	17.5527	1.77899e-07
501.122	14.2907	47.3377	49.4478	-73.2015	39.7845	0.441781	0.000754807	6.70918	6.14879	1	39	0.00480847	9.72434e-05	0	-0.00027639	1.66241	0.400974	28.1625	4.24705e-05	1.9141e-05	2.34694e-05	4.72658e-05	1.27625e-05	2.74605e-05	0.906461	0.406848	13.2438	5.41186e-07	2.19205e-07	2.59907e-07	5.28138e-07	8.31192e-08	2.31576e-07	0.00584469	0.0193604	0.0202234	73.2015	6148.79	1856.25	6422.88	-16.7985	0.0000000E+000	0.0000000E+000	0.0000000E+000	16.7985	0.0000000E+000	0.0000000E+000	0.0000000E+000	-16.7985	0.0000000E+000	0.0000000E+000	0.0000000E+000	-73.2015	0.0000000E+000	0.0000000E+000	0.0000000E+000	73.2015	0.301889	16.7985	1.47033e-07
398.089	17.4626	57.0669	59.679	-72.9858	40.5299	0.441711	0.00148821	7.00576	6.40593	1	39	0.00470996	7.89216e-05	0	-0.000276174	1.28701	1.05131	27.649	1.43909e-05	1.26399e-05	2.20222e-05	1.22777e-05	1.72001e-05	3.4454e-05	1.06543	0.392258	15.6082	4.43454e-07	2.8553e-07	4.18312e-08	4.3806e-07	2.29306e-07	3.86803e-07	0.00490306	0.0160229	0.0167563	72.9858	6405.93	1960.23	6699.13	-17.0142	0.0000000E+000	0.0000000E+000	0.0000000E+000	17.0142	0.0000000E+000	0.0000000E+000	0.0000000E+000	-17.0142	0.0000000E+000	0.0000000E+000	0.0000000E+000	-72.9858	0.0000000E+000	0.0000000E+000	0.0000000E+000	72.9858	0.306002	17.0142	2.16756e-07
316.316	21.7193	69.2792	72.604	-72.5936	41.2721	0.44176	0.000919752	7.26266	6.61274	1	39	0.00467033	6.43261e-05	0	-0.000275916	1.85811	0.750232	28.465	3.84618e-05	1.82716e-05	3.61683e-05	1.8318e-05	2.62053e-05	5.57081e-05	1.3109	0.494748	19.5994	5.88875e-07	1.99783e-07	2.94098e-07	2.37661e-07	3.44747e-07	2.27932e-07	0.00412026	0.0131426	0.0137733	72.5936	6612.74	2073.12	6930.09	-17.4064	0.0000000E+000	0.0000000E+000	0.0000000E+000	17.4064	0.0000000E+000	0.0000000E+000	0.0000000E+000	-17.4064	0.0000000E+000	0.0000000E+000	0.0000000E+000	-72.5936	0.0000000E+000	0.0000000E+000	0.0000000E+000	72.5936	0.313504	17.4064	2.5783e-07
251.206	27.449	83.9432	88.3171	-71.8925	42.015	0.441787	0.000783509	7.54752	6.81845	1	39	0.00464684	5.26153e-05	0	-0.000275779	1.4464	0.536535	27.8545	3.89125e-05	1.21537e-05	3.24513e-05	2.20377e-05	1.01133e-05	3.23959e-05	1.09798	0.68785	22.4338	3.43943e-07	1.92028e-07	1.45189e-07	2.53191e-07	1.12337e-07	2.34456e-07	0.00351914	0.0107621	0.0113228	71.8925	6818.45	2229.6	7173.73	-18.1075	0.0000000E+000	0.0000000E+000	0.0000000E+000	18.1075	0.0000000E+000	0.0000000E+000	0.0000000E+000	-18.1075	0.0000000E+000	0.0000000E+000	0.0000000E+000	-71.8925	0.0000000E+000	0.0000000E+000	0.0000000E+000	71.8925	0.326995	18.1075	1.36623e-07
199.553	33.6502	101.991	107.399	-71.7407	42.7604	0.44176	0.000787422	7.81983	7.05217	1	39	0.00462579	4.3071e-05	0	-0.000275559	1.79656	0.774757	28.4154	3.1878e-05	3.29101e-05	3.89443e-05	1.02141e-05	3.44402e-05	3.99251e-05	1.6701	0.641591	28.9722	2.74016e-07	4.68849e-07	2.88547e-07	2.04903e-07	1.5892e-07	2.38076e-07	0.00291733	0.00884223	0.00931106	71.7407	7052.17	2326.73	7426.09	-18.2593	0.0000000E+000	0.0000000E+000	0.0000000E+000	18.2593	0.0000000E+000	0.0000000E+000	0.0000000E+000	-18.2593	0.0000000E+000	0.0000000E+000	0.0000000E+000	-71.7407	0.0000000E+000	0.0000000E+000	0.0000000E+000	71.7407	0.329931	18.2593	2.19986e-07
158.529	41.21	123.428	130.126	-71.5369	43.5078	0.441752	0.000940626	8.13388	7.3181	1	39	0.00462666	3.55553e-05	0	-0.000275349	1.31945	0.742581	27.8209	3.55041e-05	2.52627e-05	1.8121e-05	1.4077e-05	2.28531e-05	2.09197e-05	1.64203	1.00315	35.2087	3.18684e-07	3.40795e-07	1.56199e-07	1.58889e-07	1.63708e-07	1.64522e-07	0.00243375	0.00728931	0.00768487	71.5369	7318.1	2443.36	7715.21	-18.4631	0.0000000E+000	0.0000000E+000	0.0000000E+000	18.4631	0.0000000E+000	0.0000000E+000	0.0000000E+000	-18.4631	0.0000000E+000	0.0000000E+000	0.0000000E+000	-71.5369	0.0000000E+000	0.0000000E+000	0.0000000E+000	71.5369	0.333879	18.4631	2.09701e-07
125.927	54.8062	147.398	157.257	-69.6037	44.2485	0.44176	0.000777544	8.57453	7.53306	1	39	0.00459918	2.92462e-05	0	-0.00027521	1.14101	0.86459	28.5061	3.73851e-05	1.97948e-05	1.26804e-05	1.73397e-05	1.52178e-05	1.38005e-05	2.91822	0.838136	42.6849	5.73799e-07	3.54475e-07	2.17245e-07	2.07261e-07	2.40439e-07	2.61451e-07	0.00221619	0.00596032	0.006359	69.6037	7533.06	2800.97	8036.94	-20.3963	0.0000000E+000	0.0000000E+000	0.0000000E+000	20.3963	0.0000000E+000	0.0000000E+000	0.0000000E+000	-20.3963	0.0000000E+000	0.0000000E+000	0.0000000E+000	-69.6037	0.0000000E+000	0.0000000E+000	0.0000000E+000	69.6037	0.371824	20.3963	1.39239e-07
99.9682	67.5247	176.284	188.774	-69.0409	44.98	0.441735	0.00112961	9.03123	7.87568	1	39	0.00460729	2.44064e-05	0	-0.000275039	1.19237	0.947145	28.2527	2.95975e-05	1.74888e-05	2.00717e-05	2.23546e-05	2.13263e-05	1.47504e-05	1.97209	1.33398	49.9755	3.0503e-07	4.94543e-08	1.07274e-07	1.56564e-07	2.10184e-07	1.72424e-07	0.00189487	0.00494686	0.00529735	69.0409	7875.67	3016.75	8433.68	-20.9591	0.0000000E+000	0.0000000E+000	0.0000000E+000	20.9591	0.0000000E+000	0.0000000E+000	0.0000000E+000	-20.9591	0.0000000E+000	0.0000000E+000	0.0000000E+000	-69.0409	0.0000000E+000	0.0000000E+000	0.0000000E+000	69.0409	0.383046	20.9591	1.71061e-07