File: Python/Data/GoldElectrode/240322/Gold/240322-CVEIS-PostActivation-5mM_Fe2Fe3-1M_H2SO4-0000RPM-Ag_AgCl_BLF8-Au_RDE_01_CV_C15.mpt
EC-Lab ASCII FILE
Nb header lines : 60

Cyclic Voltammetry

Run on channel : 15 (SN 19485)
User :
Electrode connection : standard
Potential control : Ewe
Ewe ctrl range : min = -1.00 V, max = 1.00 V
Ewe,I filtering : <None>
Safety Limits :
	Do not start on E overload
Channel : Floating
Acquisition started on : 03/22/2024 10:39:57.841
Loaded Setting File :  C:\Data\mathias\GoldElectrode\240320-CVEIS_PostActivation-Fe2Fe3_5mM-HCl1M-0000RPM-Ag_AgCl_BLF8-Au_RDE.mps
Saved on :
	File : 240322-CVEIS-PostActivation-5mM_Fe2Fe3-1M_H2SO4-0000RPM-Ag_AgCl_BLF8-Au_RDE_01_CV_C15.mpr
	Directory : C:\Data\mathias\GoldElectrode\
	Host : 192.168.0.1
Device : VMP-300 (SN 0826)
Address : USB
EC-Lab for windows v11.52 (software)
Internet server v11.52 (firmware)
Command interpretor v11.52 (firmware)
Electrode material :
Initial state :
Electrolyte :
Comments :
Cable : special
Electrode surface area : 0.001 cm²
Characteristic mass : 0.001 g
Equivalent Weight : 0.000 g/eq.
Density : 0.000 g/cm3
Volume (V) : 0.001 cm³
Record EIS quality indicators
Cycle Definition : Charge/Discharge alternance
Ei (V)              0.000
vs.                 Eoc
dE/dt               20.000
dE/dt unit          mV/s
E1 (V)              0.700
vs.                 Ref
Step percent        50
N                   10
E range min (V)     -1.000
E range max (V)     1.000
I Range             Auto
I Range min         Unset
I Range max         Unset
I Range init        Unset
Bandwidth           8
E2 (V)              0.000
vs.                 Ref
nc cycles           1
Reverse Scan        1
Ef (V)              0.000
vs.                 Eoc

mode	ox/red	error	control changes	counter inc.	time/s	control/V	Ewe/V	<I>/mA	cycle number	(Q-Qo)/C	I Range	step time/s	P/W
2	1	0	1	0	0.000000000000000E+000	0.443566	0.443234	0.0280555	1	0.0000000E+000	41	0.000000000000000E+000	1.24351e-05
2	1	0	1	0	0.2387	0.448339	0.448198	0.0591048	1	1.09792e-05	41	0.2249	2.64907e-05
2	1	0	1	0	0.4886	0.453336	0.45298	0.0780063	1	2.82835e-05	41	0.4748	3.53353e-05
2	1	0	1	0	0.7384	0.458334	0.457792	0.0910587	1	4.95117e-05	41	0.7246	4.16859e-05
2	1	0	1	0	0.9883	0.463332	0.463012	0.100152	1	7.34838e-05	41	0.9745	4.63715e-05
2	1	0	1	0	1.2382	0.468329	0.468037	0.106153	1	9.93296e-05	41	1.2244	4.96837e-05
2	1	0	1	0	1.5031	0.473627	0.473571	0.109193	1	0.000128005	41	1.4893	5.17107e-05
2	1	0	1	0	1.768	0.478924	0.478676	0.110766	1	0.000157343	40	1.7542	5.30209e-05
2	1	0	1	0	2.0178	0.483922	0.483704	0.11074	1	0.000185214	40	2.004	5.35653e-05
2	1	0	1	0	2.2677	0.48892	0.488673	0.109512	1	0.000212936	40	2.2539	5.35154e-05
2	1	0	1	0	2.5176	0.493917	0.493701	0.107421	1	0.000240256	40	2.5038	5.30337e-05
2	1	0	1	0	2.7675	0.498915	0.49878	0.104773	1	0.000267001	40	2.7537	5.22588e-05
2	1	0	1	0	3.0174	0.503912	0.50364	0.101813	1	0.000293055	40	3.0036	5.12773e-05
2	1	0	1	0	3.2672	0.50891	0.508515	0.0987623	1	0.000318334	40	3.2534	5.02221e-05
2	1	0	1	0	3.5171	0.513908	0.513508	0.0952174	1	0.00034282	40	3.5033	4.88949e-05
2	1	0	1	0	3.767	0.518905	0.518643	0.0919101	1	0.000366485	40	3.7532	4.76686e-05
2	1	0	1	0	4.0169	0.523903	0.523654	0.0886701	1	0.000389339	40	4.0031	4.64324e-05
2	1	0	1	0	4.2668	0.528901	0.52867	0.0854064	1	0.000411412	40	4.253	4.51518e-05
2	1	0	1	0	4.5167	0.533898	0.533471	0.0825085	1	0.000432727	40	4.5029	4.40159e-05
2	1	0	1	0	4.7665	0.538896	0.538671	0.0795714	1	0.000453318	40	4.7527	4.28628e-05
2	1	0	1	0	5.0164	0.543894	0.543534	0.0768088	1	0.000473234	40	5.0026	4.17481e-05
2	1	0	1	0	5.2663	0.548891	0.54861	0.0743519	1	0.000492509	40	5.2525	4.07902e-05
2	1	0	1	0	5.5162	0.553889	0.553504	0.071899	1	0.00051118	40	5.5024	3.97964e-05
2	1	0	1	0	5.7661	0.558886	0.558581	0.0697779	1	0.000529287	40	5.7523	3.89766e-05
2	1	0	1	0	6.016	0.563886	0.563578	0.0677407	1	0.000546875	40	6.0022	3.81772e-05
2	1	0	1	0	6.2658	0.568882	0.568618	0.0655656	1	0.00056397	40	6.252	3.72818e-05
2	1	0	1	0	6.5157	0.573879	0.573444	0.0639032	1	0.00058062	40	6.5019	3.66449e-05
2	1	0	1	0	6.7656	0.578877	0.578451	0.0622104	1	0.000596845	40	6.7518	3.59856e-05
2	1	0	1	0	7.0155	0.583875	0.583659	0.0607662	1	0.000612679	40	7.0017	3.54667e-05
2	1	0	1	0	7.2654	0.588872	0.588579	0.0589091	1	0.000628146	40	7.2516	3.46727e-05
2	1	0	1	0	7.5152	0.59387	0.593637	0.0577851	1	0.000643267	40	7.5014	3.43034e-05
2	1	0	1	0	7.7651	0.598868	0.598531	0.0565519	1	0.00065807	40	7.7513	3.38481e-05
2	1	0	1	0	8.015	0.603865	0.603634	0.0551539	1	0.000672575	40	8.0012	3.32928e-05
2	1	0	1	0	8.2649	0.608863	0.60871	0.0541235	1	0.000686801	40	8.2511	3.29455e-05
2	1	0	1	0	8.5148	0.61386	0.613423	0.0531807	1	0.000700767	40	8.501	3.26222e-05
2	1	0	1	0	8.7646	0.618858	0.618329	0.0521725	1	0.000714481	40	8.7508	3.22598e-05
2	1	0	1	0	9.0145	0.623856	0.623417	0.0511355	1	0.000727966	40	9.0007	3.18787e-05
2	1	0	1	0	9.2644	0.628853	0.628544	0.0501725	1	0.000741237	40	9.2506	3.15356e-05
2	1	0	1	0	9.5143	0.633851	0.633709	0.0493586	1	0.000754301	40	9.5005	3.1279e-05
2	1	0	1	0	9.7642	0.638849	0.638513	0.0487012	1	0.000767175	40	9.7504	3.10963e-05
2	1	0	1	0	10.014	0.643844	0.643579	0.0479494	1	0.000779856	40	10.0002	3.08592e-05
2	1	0	1	0	10.2639	0.648844	0.648481	0.0472833	1	0.000792372	40	10.2501	3.06623e-05
2	1	0	1	0	10.5138	0.653841	0.653667	0.0464976	1	0.000804721	40	10.5	3.0394e-05
2	1	0	1	0	10.7637	0.658839	0.6585	0.0460308	1	0.000816914	40	10.7499	3.03113e-05
2	1	0	1	0	11.0136	0.663837	0.663701	0.0455019	1	0.000828953	40	10.9998	3.01997e-05
2	1	0	1	0	11.2635	0.668834	0.668567	0.0449674	1	0.000840853	40	11.2497	3.00637e-05
2	1	0	1	0	11.5133	0.673832	0.673408	0.0443256	1	0.000852615	40	11.4995	2.98492e-05
2	1	0	1	0	11.7632	0.67883	0.678428	0.0438867	1	0.000864247	40	11.7494	2.9774e-05
2	1	0	1	0	12.0131	0.683827	0.683537	0.0435955	1	0.000875756	40	11.9993	2.97992e-05
2	1	0	1	0	12.263	0.688825	0.68851	0.0430082	1	0.000887148	40	12.2492	2.96115e-05
2	1	0	1	0	12.5129	0.693823	0.693393	0.0426708	1	0.000898427	40	12.4991	2.95877e-05
2	1	0	1	0	12.7927	0.69942	0.699262	0.0443825	1	0.000910937	41	12.7789	3.1035e-05
2	1	0	1	0	13.0107	0.696221	0.695932	0.0431214	1	0.000920405	41	12.9969	3.00096e-05
2	1	0	1	0	13.2606	0.691224	0.69111	0.0426296	1	0.000931111	41	13.2468	2.94618e-05
2	1	0	1	0	13.5104	0.686227	0.685742	0.0422171	1	0.000941703	41	13.4966	2.895e-05
2	1	0	1	0	13.7603	0.681229	0.680823	0.0418019	1	0.000952193	41	13.7465	2.84597e-05
2	1	0	1	0	14.0102	0.676231	0.675997	0.041416	1	0.000962586	41	13.9964	2.79971e-05
2	1	0	1	0	14.2601	0.671233	0.671043	0.0410549	1	0.000972885	41	14.2463	2.75496e-05
2	1	0	1	0	14.51	0.666236	0.665766	0.0406913	1	0.000983092	41	14.4962	2.70909e-05
2	1	0	1	0	14.7598	0.66124	0.660893	0.0403435	1	0.000993208	41	14.746	2.66627e-05
2	1	0	1	0	15.0097	0.65624	0.656021	0.0400104	1	0.00100324	41	14.9959	2.62477e-05
2	1	0	1	0	15.2596	0.651243	0.651024	0.039678	1	0.0010132	41	15.2458	2.58314e-05
2	1	0	1	0	15.5095	0.646245	0.645932	0.0393671	1	0.00102307	41	15.4957	2.54285e-05
2	1	0	1	0	15.7594	0.641247	0.641152	0.0390495	1	0.00103286	41	15.7456	2.50367e-05
2	1	0	1	0	16.0093	0.63625	0.636086	0.0387391	1	0.00104258	41	15.9955	2.46414e-05
2	1	0	1	0	16.2592	0.631251	0.631062	0.0384351	1	0.00105221	41	16.2454	2.42549e-05
2	1	0	1	0	16.509	0.626255	0.625947	0.0380937	1	0.00106177	41	16.4952	2.38446e-05
2	1	0	1	0	16.7589	0.621257	0.621029	0.0377971	1	0.00107125	41	16.7451	2.34731e-05
2	1	0	1	0	17.0088	0.616259	0.615972	0.0375049	1	0.00108065	41	16.995	2.31019e-05
2	1	0	1	0	17.2587	0.611262	0.61093	0.0371636	1	0.00108998	41	17.2449	2.27043e-05
2	1	0	1	0	17.5086	0.606264	0.60567	0.0368665	1	0.00109922	41	17.4948	2.2329e-05
2	1	0	1	0	17.7584	0.601266	0.60108	0.0364975	1	0.00110838	41	17.7446	2.19379e-05
2	1	0	1	0	18.0083	0.596269	0.595964	0.0361339	1	0.00111745	41	17.9945	2.15345e-05
2	1	0	1	0	18.2582	0.591271	0.590598	0.0357298	1	0.00112642	41	18.2444	2.11019e-05
2	1	0	1	0	18.5081	0.586273	0.585972	0.0353093	1	0.0011353	41	18.4943	2.06903e-05
2	1	0	1	0	18.758	0.581276	0.581064	0.0348364	1	0.00114406	41	18.7442	2.02422e-05
2	1	0	1	0	19.0078	0.576279	0.57592	0.034326	1	0.00115269	41	18.994	1.9769e-05
2	1	0	1	0	19.2577	0.571281	0.570955	0.0337269	1	0.0011612	41	19.2439	1.92566e-05
2	1	0	1	0	19.5076	0.566283	0.565977	0.0331005	1	0.00116955	41	19.4938	1.87341e-05
2	1	0	1	0	19.7575	0.561285	0.561046	0.0323494	1	0.00117772	41	19.7437	1.81495e-05
2	1	0	1	0	20.0074	0.556288	0.555877	0.0315163	1	0.00118569	41	19.9936	1.75192e-05
2	1	0	1	0	20.2572	0.551292	0.551088	0.0304543	1	0.00119343	41	20.2434	1.6783e-05
2	1	0	1	0	20.5071	0.546292	0.545853	0.0293386	1	0.0012009	41	20.4933	1.60146e-05
2	1	0	1	0	20.757	0.541295	0.540898	0.0279459	1	0.00120805	41	20.7432	1.51159e-05
2	1	0	1	0	21.0069	0.536297	0.535963	0.0263467	1	0.00121483	41	20.9931	1.41209e-05
2	1	0	1	0	21.2568	0.531299	0.531263	0.0244014	1	0.00122117	41	21.243	1.29636e-05
2	1	0	1	0	21.5067	0.526302	0.525992	0.0221567	1	0.001227	41	21.4929	1.16542e-05
2	1	0	1	0	21.7566	0.521303	0.521162	0.0195111	1	0.00123221	41	21.7428	1.01685e-05
2	1	0	1	0	22.0064	0.516307	0.515965	0.0163796	1	0.0012367	41	21.9926	8.45132e-06
2	1	0	1	0	22.2563	0.511309	0.510855	0.0127005	1	0.00124035	41	22.2425	6.48812e-06
2	1	0	1	0	22.5062	0.506311	0.506176	0.00835278	1	0.00124299	41	22.4924	4.22798e-06
2	1	0	1	0	22.7561	0.501314	0.501442	0.00330032	1	0.00124445	41	22.7423	1.65492e-06
2	0	0	1	0	23.0359	0.495716	0.495356	-0.00339394	1	0.00124449	42	0.0999	-1.68121e-06
2	0	0	1	0	23.2858	0.490719	0.49031	-0.0103287	1	0.0012428	42	0.3498	-5.06425e-06
2	0	0	1	0	23.5657	0.485121	0.484468	-0.0192667	1	0.00123871	41	0.6297	-9.33412e-06
2	0	0	1	0	23.8156	0.480124	0.479883	-0.0283347	1	0.00123278	41	0.8796	-1.35974e-05
2	0	0	1	0	24.0654	0.475128	0.474947	-0.0386482	1	0.00122442	41	1.1294	-1.83559e-05
2	0	0	1	0	24.3153	0.470128	0.46986	-0.0498317	1	0.00121338	41	1.3793	-2.34139e-05
2	0	0	1	0	24.5652	0.465131	0.46484	-0.0621317	1	0.0011994	41	1.6292	-2.88813e-05
2	0	0	1	0	24.8151	0.460133	0.459938	-0.0751003	1	0.00118226	41	1.8791	-3.45415e-05
2	0	0	1	0	25.065	0.455136	0.45493	-0.0886951	1	0.00116177	41	2.129	-4.035e-05
2	0	0	1	0	25.3149	0.450138	0.449875	-0.102665	1	0.00113785	41	2.3789	-4.61864e-05
2	0	0	1	0	25.5947	0.444541	0.444189	-0.117388	1	0.00110701	40	2.6587	-5.21423e-05
2	0	0	1	0	25.8446	0.439543	0.439258	-0.130849	1	0.00107584	40	2.9086	-5.74765e-05
2	0	0	1	0	26.0945	0.434545	0.434227	-0.142969	1	0.00104146	40	3.1585	-6.2081e-05
2	0	0	1	0	26.3444	0.429548	0.429181	-0.153958	1	0.00100418	40	3.4084	-6.60758e-05
2	0	0	1	0	26.5943	0.42455	0.424209	-0.163421	1	0.000964353	40	3.6583	-6.93247e-05
2	0	0	1	0	26.8441	0.419552	0.419424	-0.170826	1	0.00092245	40	3.9081	-7.16487e-05
2	0	0	1	0	27.094	0.414555	0.414242	-0.176218	1	0.000878919	40	4.158	-7.2997e-05
2	0	0	1	0	27.3439	0.409557	0.409102	-0.179839	1	0.000834245	40	4.4079	-7.35724e-05
2	0	0	1	0	27.5938	0.404559	0.404379	-0.181583	1	0.000788926	40	4.6578	-7.34283e-05
2	0	0	1	0	27.8437	0.399562	0.399196	-0.181551	1	0.0007434	40	4.9077	-7.24743e-05
2	0	0	1	0	28.0936	0.394563	0.394136	-0.179961	1	0.000698051	40	5.1576	-7.09291e-05
2	0	0	1	0	28.3434	0.389567	0.389219	-0.177536	1	0.000653219	40	5.4074	-6.91003e-05
2	0	0	1	0	28.5933	0.384569	0.384271	-0.174015	1	0.000609125	40	5.6573	-6.68688e-05
2	0	0	1	0	28.8432	0.379571	0.3794	-0.169755	1	0.000565987	40	5.9072	-6.44049e-05
2	0	0	1	0	29.0931	0.374574	0.374375	-0.165163	1	0.00052394	40	6.1571	-6.18327e-05
2	0	0	1	0	29.343	0.369576	0.369221	-0.160236	1	0.000483076	40	6.407	-5.91626e-05
2	0	0	1	0	29.5928	0.364578	0.364153	-0.155335	1	0.000443452	40	6.6568	-5.65658e-05
2	0	0	1	0	29.8427	0.359581	0.359051	-0.150213	1	0.000405054	40	6.9067	-5.39342e-05
2	0	0	1	0	30.0926	0.354583	0.354342	-0.145304	1	0.000367896	40	7.1566	-5.14872e-05
2	0	0	1	0	30.3425	0.349585	0.349247	-0.140519	1	0.000331942	40	7.4065	-4.90758e-05
2	0	0	1	0	30.5924	0.344588	0.344156	-0.136039	1	0.000297161	40	7.6564	-4.68186e-05
2	0	0	1	0	30.8422	0.339591	0.339364	-0.1317	1	0.000263529	40	7.9062	-4.46943e-05
2	0	0	1	0	31.0921	0.334593	0.3344	-0.127458	1	0.000230957	40	8.1561	-4.26219e-05
2	0	0	1	0	31.342	0.329595	0.329274	-0.123616	1	0.000199394	40	8.406	-4.07037e-05
2	0	0	1	0	31.5919	0.324597	0.324421	-0.11985	1	0.0001688	40	8.6559	-3.88817e-05
2	0	0	1	0	31.8418	0.3196	0.319361	-0.116306	1	0.000139123	40	8.9058	-3.71437e-05
2	0	0	1	0	32.0917	0.314602	0.314347	-0.113043	1	0.000110307	40	9.1557	-3.55346e-05
2	0	0	1	0	32.3415	0.309604	0.309407	-0.110023	1	8.23173e-05	40	9.4055	-3.40419e-05
2	0	0	1	0	32.5914	0.304607	0.304346	-0.106965	1	5.50813e-05	40	9.6554	-3.25542e-05
2	0	0	1	0	32.8413	0.299609	0.299251	-0.104357	1	2.85706e-05	40	9.9053	-3.12288e-05
2	0	0	1	0	33.0912	0.294612	0.294472	-0.101603	1	2.73595e-06	40	10.1552	-2.99193e-05
2	0	0	1	0	33.3411	0.289614	0.289355	-0.099178	1	-2.24557e-05	40	10.4051	-2.86977e-05
2	0	0	1	0	33.591	0.284615	0.284371	-0.0967958	1	-4.70437e-05	40	10.655	-2.75259e-05
2	0	0	1	0	33.8408	0.279619	0.279261	-0.0946724	1	-7.10531e-05	40	10.9048	-2.64383e-05
2	0	0	1	0	34.0907	0.274621	0.274526	-0.0925729	1	-9.45273e-05	40	11.1547	-2.54136e-05
2	0	0	1	0	34.3406	0.269623	0.269277	-0.0905575	1	-0.000117494	40	11.4046	-2.43851e-05
2	0	0	1	0	34.5905	0.264626	0.264468	-0.0886817	1	-0.000139988	40	11.6545	-2.34535e-05
2	0	0	1	0	34.8404	0.259628	0.259561	-0.0870917	1	-0.000162031	40	11.9044	-2.26056e-05
2	0	0	1	0	35.0902	0.25463	0.254391	-0.0853133	1	-0.000183637	40	12.1542	-2.17029e-05
2	0	0	1	0	35.3401	0.249633	0.249338	-0.0838646	1	-0.000204841	40	12.4041	-2.09106e-05
2	0	0	1	0	35.59	0.244635	0.244428	-0.0822708	1	-0.000225658	40	12.654	-2.01093e-05
2	0	0	1	0	35.8399	0.239638	0.239307	-0.0807631	1	-0.000246115	40	12.9039	-1.93271e-05
2	0	0	1	0	36.0898	0.23464	0.234285	-0.0794973	1	-0.00026622	40	13.1538	-1.8625e-05
2	0	0	1	0	36.3396	0.229643	0.229276	-0.0779782	1	-0.000285983	40	13.4036	-1.78786e-05
2	0	0	1	0	36.5895	0.224645	0.224281	-0.0769048	1	-0.000305441	40	13.6535	-1.72483e-05
2	0	0	1	0	36.8394	0.219647	0.219295	-0.0757562	1	-0.000324597	40	13.9034	-1.6613e-05
2	0	0	1	0	37.0893	0.214649	0.214298	-0.0746781	1	-0.000343466	40	14.1533	-1.60034e-05
2	0	0	1	0	37.3392	0.209652	0.209369	-0.0735558	1	-0.000362062	40	14.4032	-1.54003e-05
2	0	0	1	0	37.5891	0.204654	0.20439	-0.0726189	1	-0.000380399	40	14.6531	-1.48426e-05
2	0	0	1	0	37.8389	0.199656	0.199238	-0.0716159	1	-0.000398476	40	14.9029	-1.42686e-05
2	0	0	1	0	38.0888	0.194659	0.194311	-0.0707	1	-0.000416328	40	15.1528	-1.37378e-05
2	0	0	1	0	38.3387	0.189661	0.189288	-0.0697346	1	-0.000433946	40	15.4027	-1.32e-05
2	0	0	1	0	38.5886	0.184664	0.184404	-0.0689435	1	-0.000451343	40	15.6526	-1.27134e-05
2	0	0	1	0	38.8385	0.179666	0.179386	-0.0680496	1	-0.000468529	40	15.9025	-1.22071e-05
2	0	0	1	0	39.0884	0.174667	0.174383	-0.0672685	1	-0.000485515	40	16.1524	-1.17305e-05
2	0	0	1	0	39.3382	0.169671	0.169291	-0.0665126	1	-0.000502296	40	16.4022	-1.126e-05
2	0	0	1	0	39.5881	0.164673	0.164426	-0.0657555	1	-0.000518896	40	16.6521	-1.08119e-05
2	0	0	1	0	39.838	0.159675	0.159344	-0.0649806	1	-0.000535317	40	16.902	-1.03543e-05
2	0	0	1	0	40.0879	0.154678	0.154525	-0.0644248	1	-0.000551568	40	17.1519	-9.95522e-06
2	0	0	1	0	40.3378	0.14968	0.149437	-0.063712	1	-0.000567652	40	17.4018	-9.52091e-06
2	0	0	1	0	40.5876	0.144682	0.144521	-0.0631047	1	-0.000583569	40	17.6516	-9.11993e-06
2	0	0	1	0	40.8375	0.139685	0.139558	-0.0625435	1	-0.000599335	40	17.9015	-8.72847e-06
2	0	0	1	0	41.0874	0.134687	0.134421	-0.0619692	1	-0.00061496	40	18.1514	-8.32994e-06
2	0	0	1	0	41.3373	0.12969	0.129429	-0.0613884	1	-0.00063044	40	18.4013	-7.94544e-06
2	0	0	1	0	41.5872	0.124692	0.124456	-0.0607799	1	-0.000645783	40	18.6512	-7.5644e-06
2	0	0	1	0	41.837	0.119694	0.119417	-0.0602298	1	-0.000660984	40	18.901	-7.19244e-06
2	0	0	1	0	42.0869	0.114697	0.114343	-0.0598132	1	-0.000676063	40	19.1509	-6.8392e-06
2	0	0	1	0	42.3368	0.109699	0.109327	-0.059367	1	-0.000691021	40	19.4008	-6.49044e-06
2	0	0	1	0	42.5867	0.104701	0.104441	-0.0589362	1	-0.000705862	40	19.6507	-6.15534e-06
2	0	0	1	0	42.8366	0.0997038	0.0994889	-0.0583925	1	-0.000720593	40	19.9006	-5.8094e-06
2	0	0	1	0	43.0864	0.0947079	0.0944513	-0.0579822	1	-0.000735206	40	20.1504	-5.4765e-06
2	0	0	1	0	43.3363	0.0897085	0.0895177	-0.057629	1	-0.000749718	40	20.4003	-5.15881e-06
2	0	0	1	0	43.5862	0.0847109	0.0844399	-0.0571053	1	-0.000764127	40	20.6502	-4.82196e-06
2	0	0	1	0	43.8361	0.0797133	0.0793245	-0.0565719	1	-0.000778431	40	20.9001	-4.48753e-06
2	0	0	1	0	44.086	0.0747156	0.0744267	-0.0563058	1	-0.000792643	40	21.15	-4.19065e-06
2	0	0	1	0	44.3359	0.069718	0.0695789	-0.0560442	1	-0.000806767	40	21.3999	-3.8995e-06
2	0	0	1	0	44.5858	0.0647186	0.0644897	-0.0556805	1	-0.000820797	40	21.6498	-3.59082e-06
2	0	0	1	0	44.8356	0.0597227	0.0594877	-0.0551488	1	-0.000834736	40	21.8996	-3.28067e-06
2	0	0	1	0	45.0855	0.0547251	0.0541746	-0.0549529	1	-0.000848593	40	22.1495	-2.97705e-06
2	0	0	1	0	45.3354	0.0497274	0.049654	-0.0545927	1	-0.000862368	40	22.3994	-2.71074e-06
2	0	0	1	0	45.5853	0.0447298	0.0444306	-0.0540912	1	-0.000876063	40	22.6493	-2.4033e-06
2	0	0	1	0	45.8352	0.0397317	0.0396818	-0.0541211	1	-0.000889674	40	22.8992	-2.14762e-06
2	0	0	1	0	46.085	0.0347345	0.034215	-0.053831	1	-0.000903203	40	23.149	-1.84183e-06
2	0	0	1	0	46.3349	0.0297369	0.0293961	-0.0532551	1	-0.000916659	40	23.3989	-1.56549e-06
2	0	0	1	0	46.5848	0.0247393	0.0245829	-0.0531331	1	-0.00093004	40	23.6488	-1.30616e-06
2	0	0	1	0	46.8347	0.0197416	0.0195315	-0.0526844	1	-0.000943348	40	23.8987	-1.02901e-06
2	0	0	1	0	47.0846	0.014744	0.0144925	-0.0525797	1	-0.000956586	40	24.1486	-7.6201e-07
2	0	0	1	0	47.3344	0.00974637	0.00950193	-0.0521824	1	-0.000969746	40	24.3984	-4.95834e-07
2	0	0	1	0	47.5843	0.00474874	0.00441871	-0.051864	1	-0.000982843	40	24.6483	-2.29172e-07
2	0	0	1	0	47.8204	2.59706e-05	-0.000354523	-0.0513037	1	-0.00099515	40	24.8844	1.81884e-08
2	0	0	1	1	48.0344	0.00424897	0.00389079	-0.0512943	1	-0.00100607	40	25.0984	-1.99575e-07
2	0	0	1	1	48.2843	0.00924661	0.00932342	-0.0508625	1	-0.00101873	40	25.3483	-4.74213e-07
2	0	0	1	1	48.5342	0.0142456	0.0139358	-0.050461	1	-0.0010313	40	25.5982	-7.03214e-07
2	0	0	1	1	48.784	0.0192419	0.0192374	-0.050278	1	-0.00104379	40	25.848	-9.67217e-07
2	0	0	1	1	49.0339	0.0242395	0.023879	-0.0498309	1	-0.00105621	40	26.0979	-1.18991e-06
2	0	0	1	1	49.2838	0.0292371	0.0290404	-0.0497962	1	-0.00106856	40	26.3478	-1.4461e-06
2	0	0	1	1	49.5337	0.0342348	0.0338873	-0.049265	1	-0.00108083	40	26.5977	-1.66946e-06
2	0	0	1	1	49.7836	0.0392324	0.0390361	-0.0491228	1	-0.00109305	40	26.8476	-1.91757e-06
2	0	0	1	1	50.0334	0.04423	0.0442058	-0.0489469	1	-0.0011052	40	27.0974	-2.16374e-06
2	0	0	1	1	50.2833	0.0492277	0.0489517	-0.0485306	1	-0.00111728	40	27.3473	-2.37565e-06
2	0	0	1	1	50.5332	0.0542253	0.0540051	-0.0483706	1	-0.00112932	40	27.5972	-2.61226e-06
2	0	0	1	1	50.7831	0.059223	0.0590229	-0.0481791	1	-0.0011413	40	27.8471	-2.84367e-06
2	0	0	1	1	51.033	0.0642206	0.0638394	-0.0479661	1	-0.00115322	40	28.097	-3.06213e-06
2	0	0	1	1	51.2828	0.0692178	0.0689977	-0.0476637	1	-0.00116509	40	28.3468	-3.28869e-06
2	0	0	1	1	51.5327	0.0742159	0.0740232	-0.047556	1	-0.00117691	40	28.5967	-3.52025e-06
2	0	0	1	1	51.7826	0.0792135	0.0789983	-0.0472391	1	-0.00118867	40	28.8466	-3.73181e-06
2	0	0	1	1	52.0325	0.0842111	0.0839787	-0.0470348	1	-0.00120039	40	29.0965	-3.94992e-06
2	0	0	1	1	52.2824	0.0892088	0.0889434	-0.0469159	1	-0.00121205	40	29.3464	-4.17286e-06
2	0	0	1	1	52.5323	0.0942064	0.0939682	-0.0467169	1	-0.00122367	40	29.5963	-4.38991e-06
2	0	0	1	1	52.7821	0.099204	0.0990002	-0.0465598	1	-0.00123523	40	29.8461	-4.60943e-06
2	0	0	1	1	53.032	0.104202	0.103802	-0.0463363	1	-0.00124675	40	30.096	-4.80979e-06
2	0	0	1	1	53.2819	0.109199	0.108903	-0.046019	1	-0.00125823	40	30.3459	-5.01162e-06
2	0	0	1	1	53.5318	0.114197	0.113951	-0.0460518	1	-0.00126967	40	30.5958	-5.24765e-06
2	0	0	1	1	53.7817	0.119195	0.119081	-0.0458121	1	-0.00128106	40	30.8457	-5.45536e-06
2	0	0	1	1	54.0316	0.124194	0.123928	-0.0456429	1	-0.00129241	40	31.0956	-5.65641e-06
2	0	0	1	1	54.2814	0.12919	0.128899	-0.0455371	1	-0.00130372	40	31.3454	-5.86968e-06
2	0	0	1	1	54.5313	0.134187	0.133848	-0.0454208	1	-0.00131499	40	31.5953	-6.07948e-06
2	0	0	1	1	54.8112	0.139785	0.139625	-0.0448921	1	-0.00132755	41	31.8752	-6.26807e-06
2	0	0	1	1	55.0611	0.144782	0.144565	-0.0447286	1	-0.00133874	41	32.1251	-6.4662e-06
2	0	0	1	1	55.3109	0.14978	0.149552	-0.0445942	1	-0.00134989	41	32.3749	-6.66917e-06
2	0	0	1	1	55.5608	0.154778	0.154661	-0.044429	1	-0.00136101	41	32.6248	-6.87146e-06
2	0	0	1	1	55.8107	0.159775	0.159652	-0.0443042	1	-0.0013721	41	32.8747	-7.07327e-06
2	0	0	1	1	56.0606	0.164773	0.164525	-0.0441492	1	-0.00138314	41	33.1246	-7.26364e-06
2	0	0	1	1	56.3105	0.169771	0.16972	-0.0440357	1	-0.00139415	41	33.3745	-7.47375e-06
2	0	0	1	1	56.5604	0.174769	0.174577	-0.04386	1	-0.00140513	41	33.6244	-7.65696e-06
2	0	0	1	1	56.8102	0.179766	0.179417	-0.0437628	1	-0.00141607	41	33.8742	-7.85178e-06
2	0	0	1	1	57.0601	0.184764	0.184567	-0.0436179	1	-0.00142699	41	34.1241	-8.05041e-06
2	0	0	1	1	57.31	0.189761	0.189501	-0.0435043	1	-0.00143787	41	34.374	-8.24411e-06
2	0	0	1	1	57.5599	0.194759	0.194564	-0.043358	1	-0.00144871	41	34.6239	-8.43591e-06
2	0	0	1	1	57.8098	0.199756	0.1993	-0.0432264	1	-0.00145953	41	34.8738	-8.61501e-06
2	0	0	1	1	58.0596	0.204754	0.204464	-0.0430839	1	-0.00147031	41	35.1236	-8.8091e-06
2	0	0	1	1	58.3095	0.209752	0.209591	-0.0429712	1	-0.00148106	41	35.3735	-9.00635e-06
2	0	0	1	1	58.5594	0.214749	0.214592	-0.0428496	1	-0.00149178	41	35.6234	-9.1952e-06
2	0	0	1	1	58.8093	0.219747	0.21947	-0.0427272	1	-0.00150247	41	35.8733	-9.37732e-06
2	0	0	1	1	59.0592	0.224745	0.2246	-0.0426092	1	-0.00151312	41	36.1232	-9.57003e-06
2	0	0	1	1	59.309	0.229741	0.229558	-0.0424669	1	-0.00152374	41	36.373	-9.74863e-06
2	0	0	1	1	59.5589	0.23474	0.234594	-0.0422867	1	-0.00153433	41	36.6229	-9.92018e-06
2	0	0	1	1	59.8088	0.239738	0.239619	-0.0421503	1	-0.00154488	41	36.8728	-1.01e-05
2	0	0	1	1	60.0587	0.244735	0.244612	-0.042002	1	-0.00155539	41	37.1227	-1.02742e-05
2	0	0	1	1	60.3086	0.249733	0.249586	-0.0418498	1	-0.00156586	41	37.3726	-1.04451e-05
2	0	0	1	1	60.5585	0.25473	0.254417	-0.0416693	1	-0.00157628	41	37.6225	-1.06014e-05
2	0	0	1	1	60.8083	0.259728	0.259639	-0.0414751	1	-0.00158666	41	37.8723	-1.07686e-05
2	0	0	1	1	61.0582	0.264726	0.264507	-0.0412727	1	-0.00159699	41	38.1222	-1.09169e-05
2	0	0	1	1	61.3081	0.269723	0.269334	-0.0410232	1	-0.00160727	41	38.3721	-1.10489e-05
2	0	0	1	1	61.558	0.274721	0.274297	-0.0407543	1	-0.00161748	41	38.622	-1.11788e-05
2	0	0	1	1	61.8079	0.279719	0.279463	-0.0405001	1	-0.00162763	41	38.8719	-1.13183e-05
2	0	0	1	1	62.0578	0.284718	0.284628	-0.0401586	1	-0.0016377	41	39.1218	-1.14302e-05
2	0	0	1	1	62.3076	0.289714	0.289284	-0.0397763	1	-0.00164768	41	39.3716	-1.15067e-05
2	0	0	1	1	62.5575	0.294711	0.294465	-0.039318	1	-0.00165756	41	39.6215	-1.15778e-05
2	0	0	1	1	62.8074	0.299709	0.299423	-0.0387957	1	-0.00166732	41	39.8714	-1.16163e-05
2	0	0	1	1	63.0573	0.304707	0.304586	-0.0381777	1	-0.00167694	41	40.1213	-1.16284e-05
2	0	0	1	1	63.3072	0.309704	0.309554	-0.0374617	1	-0.00168639	41	40.3712	-1.15964e-05
2	0	0	1	1	63.557	0.314702	0.314298	-0.0365659	1	-0.00169564	41	40.621	-1.14926e-05
2	0	0	1	1	63.8069	0.3197	0.319596	-0.0356002	1	-0.00170465	41	40.8709	-1.13777e-05
2	0	0	1	1	64.0568	0.324697	0.324511	-0.0343634	1	-0.0017134	41	41.1208	-1.11513e-05
2	0	0	1	1	64.3067	0.329695	0.329625	-0.0329337	1	-0.0017218	41	41.3707	-1.08558e-05
2	0	0	1	1	64.5566	0.334693	0.334425	-0.031225	1	-0.00172982	41	41.6206	-1.04424e-05
2	0	0	1	1	64.8064	0.33969	0.339556	-0.0292	1	-0.00173737	41	41.8704	-9.91505e-06
2	0	0	1	1	65.0563	0.344688	0.344459	-0.026746	1	-0.00174436	41	42.1203	-9.21288e-06
2	0	0	1	1	65.3062	0.349685	0.349194	-0.0238913	1	-0.0017507	41	42.3702	-8.34268e-06
2	0	0	1	1	65.5561	0.354683	0.354256	-0.0204759	1	-0.00175624	41	42.6201	-7.2537e-06
2	0	0	1	1	65.806	0.359681	0.359464	-0.0164875	1	-0.00176087	41	42.87	-5.92665e-06
2	0	0	1	1	66.0559	0.364678	0.36454	-0.0118184	1	-0.00176441	41	43.1199	-4.30827e-06
2	0	0	1	1	66.3057	0.369676	0.369391	-0.00621866	1	-0.00176666	41	43.3697	-2.29712e-06
2	1	0	1	1	66.5856	0.375273	0.375015	0.000910804	1	-0.00176747	42	0.000000000000000E+000	3.41565e-07
2	1	0	1	1	66.8355	0.380271	0.379856	0.0085043	1	-0.00176631	42	0.2499	3.23041e-06
2	1	0	1	1	67.1154	0.385868	0.385753	0.0181097	1	-0.00176266	41	0.5298	6.98589e-06
2	1	0	1	1	67.3652	0.390866	0.390712	0.0277893	1	-0.00175693	41	0.7796	1.08576e-05
2	1	0	1	1	67.6151	0.395864	0.395747	0.0386765	1	-0.00174862	41	1.0295	1.53061e-05
2	1	0	1	1	67.865	0.400861	0.400806	0.050645	1	-0.00173747	41	1.2794	2.02988e-05
2	1	0	1	1	68.1149	0.405859	0.405478	0.0635567	1	-0.00172322	41	1.5293	2.57709e-05
2	1	0	1	1	68.3648	0.410857	0.410593	0.0770665	1	-0.00170565	41	1.7792	3.1643e-05
2	1	0	1	1	68.6146	0.415854	0.415697	0.091023	1	-0.00168464	41	2.029	3.7838e-05
2	1	0	1	1	68.8645	0.420852	0.420552	0.105286	1	-0.00166011	41	2.2789	4.42781e-05
2	1	0	1	1	69.1444	0.426449	0.426163	0.119926	1	-0.00162856	40	2.5588	5.11079e-05
2	1	0	1	1	69.3943	0.431447	0.431303	0.132974	1	-0.0015968	40	2.8087	5.7352e-05
2	1	0	1	1	69.6442	0.436444	0.43624	0.14474	1	-0.00156197	40	3.0586	6.31416e-05
2	1	0	1	1	69.8828	0.441217	0.441523	0.154363	1	-0.00152613	40	3.2972	6.81548e-05
2	1	0	1	1	70.0989	0.44554	0.445184	0.161813	2	-0.00149183	40	3.5133	7.20367e-05
2	1	0	1	1	70.3488	0.450538	0.450233	0.168557	2	-0.00145041	40	3.7632	7.58898e-05
2	1	0	1	1	70.5987	0.455535	0.455265	0.173112	2	-0.00140757	40	4.0131	7.88119e-05
2	1	0	1	1	70.8486	0.460533	0.46017	0.175619	2	-0.00136386	40	4.263	8.08144e-05
2	1	0	1	1	71.0985	0.465531	0.465405	0.176405	2	-0.00131973	40	4.5129	8.20998e-05
2	1	0	1	1	71.3484	0.470529	0.470297	0.175228	2	-0.00127563	40	4.7628	8.24093e-05
2	1	0	1	1	71.5982	0.475526	0.475288	0.173267	2	-0.00123196	40	5.0126	8.23516e-05
2	1	0	1	1	71.8481	0.480524	0.480178	0.169605	2	-0.00118899	40	5.2625	8.14405e-05
2	1	0	1	1	72.098	0.485521	0.485227	0.165287	2	-0.00114699	40	5.5124	8.02019e-05
2	1	0	1	1	72.3479	0.490519	0.490279	0.160461	2	-0.00110612	40	5.7623	7.86708e-05
2	1	0	1	1	72.5978	0.495516	0.495282	0.155211	2	-0.00106651	40	6.0122	7.68731e-05
2	1	0	1	1	72.8476	0.500514	0.500304	0.14974	2	-0.00102824	40	6.262	7.49156e-05
2	1	0	1	1	73.0975	0.505512	0.505158	0.144316	2	-0.000991322	40	6.5119	7.29025e-05
2	1	0	1	1	73.3474	0.510509	0.510275	0.138824	2	-0.000955749	40	6.7618	7.08386e-05
2	1	0	1	1	73.5973	0.515507	0.515258	0.133424	2	-0.000921511	40	7.0117	6.87478e-05
2	1	0	1	1	73.8472	0.520505	0.520385	0.128271	2	-0.000888565	40	7.2616	6.67504e-05
2	1	0	1	1	74.097	0.5255	0.525239	0.123426	2	-0.000856867	40	7.5114	6.48283e-05
2	1	0	1	1	74.3469	0.5305	0.530156	0.118786	2	-0.000826339	40	7.7613	6.29751e-05
2	1	0	1	1	74.5968	0.535498	0.535144	0.114306	2	-0.000796928	40	8.0112	6.11703e-05
2	1	0	1	1	74.8467	0.540495	0.540269	0.110138	2	-0.000768571	40	8.2611	5.95044e-05
2	1	0	1	1	75.0966	0.545493	0.545131	0.106107	2	-0.000741204	40	8.511	5.78422e-05
2	1	0	1	1	75.3465	0.55049	0.550104	0.102367	2	-0.000714759	40	8.7609	5.63127e-05
2	1	0	1	1	75.5963	0.555488	0.55526	0.09897	2	-0.000689193	40	9.0107	5.49541e-05
2	1	0	1	1	75.8462	0.560486	0.56017	0.0958771	2	-0.000664427	40	9.2606	5.37075e-05
2	1	0	1	1	76.0961	0.565483	0.56506	0.0927003	2	-0.000640423	40	9.5105	5.23813e-05
2	1	0	1	1	76.346	0.570481	0.570203	0.0897754	2	-0.000617133	40	9.7604	5.11902e-05
2	1	0	1	1	76.5959	0.575479	0.575237	0.0874682	2	-0.00059451	40	10.0103	5.0315e-05
2	1	0	1	1	76.8458	0.580477	0.580118	0.0845897	2	-0.000572511	40	10.2602	4.9072e-05
2	1	0	1	1	77.0956	0.585474	0.585191	0.0824164	2	-0.000551111	40	10.51	4.82294e-05
2	1	0	1	1	77.3455	0.590471	0.590193	0.0802044	2	-0.000530252	40	10.7599	4.7336e-05
2	1	0	1	1	77.5954	0.595469	0.595041	0.0780946	2	-0.000509907	40	11.0098	4.64695e-05
2	1	0	1	1	77.8453	0.600467	0.600083	0.0761109	2	-0.000490056	40	11.2597	4.56729e-05
2	1	0	1	1	78.0952	0.605464	0.605356	0.0741964	2	-0.000470666	40	11.5096	4.49152e-05
2	1	0	1	1	78.345	0.610462	0.61006	0.0727645	2	-0.000451714	40	11.7594	4.43907e-05
2	1	0	1	1	78.5949	0.61546	0.61526	0.0712303	2	-0.000433166	40	12.0093	4.38252e-05
2	1	0	1	1	78.8448	0.620457	0.620161	0.0698096	2	-0.000414999	40	12.2592	4.32932e-05
2	1	0	1	1	79.0947	0.625455	0.625282	0.0678782	2	-0.000397202	40	12.5091	4.2443e-05
2	1	0	1	1	79.3446	0.630453	0.63004	0.0667955	2	-0.000379753	40	12.759	4.20838e-05
2	1	0	1	1	79.5944	0.635448	0.635371	0.0653712	2	-0.000362641	40	13.0088	4.1535e-05
2	1	0	1	1	79.8443	0.640448	0.640283	0.0641446	2	-0.000345832	40	13.2587	4.10707e-05
2	1	0	1	1	80.0942	0.645445	0.645164	0.0632074	2	-0.000329326	40	13.5086	4.07791e-05
2	1	0	1	1	80.3441	0.650443	0.650154	0.0620226	2	-0.000313105	40	13.7585	4.03243e-05
2	1	0	1	1	80.594	0.655441	0.654915	0.060797	2	-0.000297156	40	14.0084	3.98169e-05
2	1	0	1	1	80.8439	0.660438	0.660008	0.0601057	2	-0.000281464	40	14.2583	3.96702e-05
2	1	0	1	1	81.0937	0.665436	0.664926	0.0588926	2	-0.000266027	40	14.5081	3.91592e-05
2	1	0	1	1	81.3436	0.670434	0.670058	0.0581642	2	-0.000250826	40	14.758	3.89734e-05
2	1	0	1	1	81.5935	0.675431	0.675094	0.0571188	2	-0.00023585	40	15.0079	3.85606e-05
2	1	0	1	1	81.8434	0.680429	0.680376	0.0564344	2	-0.000221097	40	15.2578	3.83966e-05
2	1	0	1	1	82.0933	0.685427	0.685198	0.0557291	2	-0.000206552	40	15.5077	3.81855e-05
2	1	0	1	1	82.3432	0.690425	0.690131	0.054715	2	-0.000192216	40	15.7576	3.77605e-05
2	1	0	1	1	82.593	0.695422	0.695101	0.0539987	2	-0.000178078	40	16.0074	3.75346e-05
2	1	0	0	1	82.8222	0.699995	0.69951	0.0547625	2	-0.000165274	40	16.2366	3.83069e-05
2	1	0	1	1	83.0609	0.695222	0.694952	0.0558459	2	-0.000152317	40	16.4753	3.88102e-05
2	1	0	1	1	83.3107	0.690224	0.689818	0.0553615	2	-0.000138953	40	16.7251	3.81894e-05
2	1	0	1	1	83.5606	0.685227	0.685032	0.0546206	2	-0.000125766	40	16.975	3.74169e-05
2	1	0	1	1	83.8105	0.680229	0.679819	0.0540892	2	-0.000112755	40	17.2249	3.67709e-05
2	1	0	1	1	84.0604	0.675231	0.674966	0.0534117	2	-9.99087e-05	40	17.4748	3.60511e-05
2	1	0	1	1	84.3103	0.670234	0.669996	0.052881	2	-8.72233e-05	40	17.7247	3.54301e-05
2	1	0	1	1	84.5602	0.665235	0.665034	0.0525375	2	-7.4693e-05	40	17.9746	3.49392e-05
2	1	0	1	1	84.81	0.660238	0.660119	0.0518549	2	-6.23126e-05	40	18.2244	3.42304e-05
2	1	0	1	1	85.0599	0.655241	0.655109	0.0511748	2	-5.00812e-05	40	18.4743	3.35251e-05
2	1	0	1	1	85.3098	0.650243	0.649924	0.0506138	2	-3.7983e-05	40	18.7242	3.28951e-05
2	1	0	1	1	85.5597	0.645246	0.64493	0.0499945	2	-2.60231e-05	40	18.9741	3.2243e-05
2	1	0	1	1	85.8096	0.640248	0.640015	0.0496412	2	-1.4203e-05	40	19.224	3.17711e-05
2	1	0	1	1	86.0594	0.63525	0.635034	0.0489178	2	-2.52078e-06	40	19.4738	3.10645e-05
2	1	0	1	1	86.3093	0.630253	0.629887	0.0483326	2	9.04151e-06	40	19.7237	3.0444e-05
2	1	0	1	1	86.5592	0.625255	0.625108	0.0480334	2	2.04748e-05	40	19.9736	3.00261e-05
2	1	0	1	1	86.8091	0.620257	0.619899	0.0474704	2	3.17824e-05	40	20.2235	2.94268e-05
2	1	0	1	1	87.089	0.61466	0.614368	0.0444294	2	4.43055e-05	41	20.5034	2.7296e-05
2	1	0	1	1	87.3388	0.609662	0.60937	0.0439164	2	5.53353e-05	41	20.7532	2.67614e-05
2	1	0	1	1	87.5887	0.604665	0.604339	0.0434109	2	6.62417e-05	41	21.0031	2.62349e-05
2	1	0	1	1	87.8386	0.599667	0.599614	0.0428731	2	7.70187e-05	41	21.253	2.57073e-05
2	1	0	1	1	88.0885	0.59467	0.594212	0.0423431	2	8.76628e-05	41	21.5029	2.51608e-05
2	1	0	1	1	88.3384	0.589672	0.589386	0.0417775	2	9.81684e-05	41	21.7528	2.46231e-05
2	1	0	1	1	88.5882	0.584675	0.584567	0.0411929	2	0.000108528	41	22.0026	2.408e-05
2	1	0	1	1	88.8381	0.579677	0.579354	0.0405378	2	0.000118735	41	22.2525	2.34858e-05
2	1	0	1	1	89.088	0.574679	0.574391	0.0398793	2	0.00012878	41	22.5024	2.29063e-05
2	1	0	1	1	89.3379	0.569681	0.569423	0.0390995	2	0.000138646	41	22.7523	2.22641e-05
2	1	0	1	1	89.5878	0.564684	0.564258	0.0383182	2	0.000148318	41	23.0022	2.16213e-05
2	1	0	1	1	89.8377	0.559686	0.559302	0.0373927	2	0.000157771	41	23.2521	2.09138e-05
2	1	0	1	1	90.0875	0.554688	0.554201	0.0363545	2	0.000166978	41	23.5019	2.01477e-05
2	1	0	1	1	90.3374	0.549691	0.549396	0.0351561	2	0.000175912	41	23.7518	1.93146e-05
2	1	0	1	1	90.5873	0.544693	0.544285	0.0338072	2	0.000184527	41	24.0017	1.84007e-05
2	1	0	1	1	90.8372	0.539696	0.539431	0.0322285	2	0.000192779	41	24.2516	1.73851e-05
2	1	0	1	1	91.0871	0.534698	0.534214	0.0304165	2	0.000200608	41	24.5015	1.62489e-05
2	1	0	1	1	91.337	0.529698	0.529392	0.0282919	2	0.000207945	41	24.7514	1.49775e-05
2	1	0	1	1	91.5868	0.524703	0.524072	0.0258164	2	0.000214702	41	25.0012	1.35296e-05
2	1	0	1	1	91.8367	0.519705	0.51954	0.0229018	2	0.000220789	41	25.2511	1.18984e-05
2	1	0	1	1	92.0866	0.514707	0.514392	0.0194522	2	0.000226084	41	25.501	1.0006e-05
2	1	0	1	1	92.3365	0.50971	0.509396	0.0154594	2	0.000230452	41	25.7509	7.87494e-06
2	1	0	1	1	92.5864	0.504712	0.504454	0.0107734	2	0.000233732	41	26.0008	5.43468e-06
2	1	0	1	1	92.8362	0.499714	0.499664	0.00529637	2	0.000235747	41	26.2506	2.6464e-06
2	0	0	1	1	93.1161	0.494117	0.493802	-0.00183786	2	0.000236271	42	0.05	-9.07541e-07
2	0	0	1	1	93.366	0.489119	0.488781	-0.00923494	2	0.000234905	42	0.2999	-4.51386e-06
2	0	0	1	1	93.6458	0.483523	0.48326	-0.0187599	2	0.000231038	41	0.5797	-9.0659e-06
2	0	0	1	1	93.8957	0.478524	0.478502	-0.0284277	2	0.000225156	41	0.8296	-1.36027e-05
2	0	0	1	1	94.1456	0.473527	0.473217	-0.0392996	2	0.000216705	41	1.0795	-1.85972e-05
2	0	0	1	1	94.3955	0.468529	0.468318	-0.0509634	2	0.000205443	41	1.3294	-2.38671e-05
2	0	0	1	1	94.6454	0.463532	0.463216	-0.0638303	2	0.000191103	41	1.5793	-2.95672e-05
2	0	0	1	1	94.8953	0.458534	0.458231	-0.0773389	2	0.000173475	41	1.8292	-3.54391e-05
2	0	0	1	1	95.1451	0.453536	0.453352	-0.0913512	2	0.000152409	41	2.079	-4.14142e-05
2	0	0	1	1	95.395	0.448539	0.448105	-0.105515	2	0.000127802	41	2.3289	-4.72816e-05
2	0	0	1	1	95.6749	0.442941	0.442741	-0.120645	2	9.61433e-05	40	2.6088	-5.34144e-05
2	0	0	1	1	95.9248	0.437944	0.437592	-0.133717	2	6.42331e-05	40	2.8587	-5.85136e-05
2	0	0	1	1	96.1747	0.432946	0.432864	-0.145758	2	2.91824e-05	40	3.1086	-6.30936e-05
2	0	0	1	1	96.4245	0.427948	0.42766	-0.156198	2	-8.69108e-06	40	3.3584	-6.67998e-05
2	0	0	1	1	96.6744	0.422951	0.422724	-0.165044	2	-4.89887e-05	40	3.6083	-6.9768e-05
2	0	0	1	1	96.9243	0.417953	0.417587	-0.171826	2	-9.12332e-05	40	3.8582	-7.17521e-05
2	0	0	1	1	97.1742	0.412955	0.412615	-0.176574	2	-0.000134915	40	4.1081	-7.28572e-05
2	0	0	1	1	97.4241	0.407958	0.407734	-0.179317	2	-0.000179541	40	4.358	-7.31134e-05
2	0	0	1	1	97.674	0.402959	0.402606	-0.180274	2	-0.000224636	40	4.6079	-7.25794e-05
2	0	0	1	1	97.9238	0.397963	0.397632	-0.179576	2	-0.000269736	40	4.8577	-7.14052e-05
2	0	0	1	1	98.1737	0.392965	0.392732	-0.177491	2	-0.000314503	40	5.1076	-6.97066e-05
2	0	0	1	1	98.4236	0.387967	0.387859	-0.174289	2	-0.000358617	40	5.3575	-6.75993e-05
2	0	0	1	1	98.6735	0.38297	0.382664	-0.170418	2	-0.000401839	40	5.6074	-6.52129e-05
2	0	0	1	1	98.9234	0.377972	0.377847	-0.165715	2	-0.000444007	40	5.8573	-6.26149e-05
2	0	0	1	1	99.1732	0.372974	0.372689	-0.160817	2	-0.00048498	40	6.1071	-5.99348e-05
2	0	0	1	1	99.4231	0.367977	0.36769	-0.155681	2	-0.00052473	40	6.357	-5.72422e-05
2	0	0	1	1	99.673	0.362979	0.362665	-0.15064	2	-0.000563203	40	6.6069	-5.46317e-05
2	0	0	1	1	99.9229	0.357982	0.358002	-0.145478	2	-0.000600402	40	6.8568	-5.20813e-05
2	0	0	1	1	100.173	0.352984	0.352806	-0.140471	2	-0.000636351	40	7.1067	-4.95591e-05
2	0	0	1	1	100.423	0.347987	0.34761	-0.135718	2	-0.000671073	40	7.3565	-4.7177e-05
2	0	0	1	1	100.672	0.342989	0.342818	-0.131139	2	-0.000704639	40	7.6064	-4.49568e-05
2	0	0	1	1	100.922	0.337991	0.337679	-0.126883	2	-0.000737095	40	7.8563	-4.28458e-05
2	0	0	1	1	101.172	0.332993	0.33252	-0.12272	2	-0.000768499	40	8.1062	-4.08067e-05
2	0	0	1	1	101.422	0.327996	0.327762	-0.118913	2	-0.000798909	40	8.3561	-3.89752e-05
2	0	0	1	1	101.672	0.323	0.322792	-0.115323	2	-0.000828369	40	8.6059	-3.72254e-05
2	0	0	1	1	101.922	0.318	0.317841	-0.111986	2	-0.000856959	40	8.8558	-3.55937e-05
2	0	0	1	1	102.172	0.313003	0.312646	-0.108694	2	-0.000884723	40	9.1057	-3.39828e-05
2	0	0	1	1	102.422	0.308005	0.307711	-0.105744	2	-0.000911704	40	9.3556	-3.25386e-05
2	0	0	1	1	102.672	0.303008	0.302849	-0.10301	2	-0.000937956	40	9.6055	-3.11965e-05
2	0	0	1	1	102.921	0.29801	0.297666	-0.100399	2	-0.000963521	40	9.8554	-2.98853e-05
2	0	0	1	1	103.171	0.29301	0.29281	-0.097944	2	-0.000988443	40	10.1053	-2.8679e-05
2	0	0	1	1	103.421	0.288015	0.287805	-0.0956438	2	-0.00101275	40	10.3551	-2.75268e-05
2	0	0	1	1	103.671	0.283017	0.282925	-0.0936022	2	-0.00103648	40	10.605	-2.64824e-05
2	0	0	1	1	103.921	0.278019	0.277686	-0.0913192	2	-0.00105969	40	10.8549	-2.53581e-05
2	0	0	1	1	104.171	0.273022	0.27274	-0.0894751	2	-0.00108238	40	11.1048	-2.44035e-05
2	0	0	1	1	104.421	0.268024	0.267786	-0.0876218	2	-0.0011046	40	11.3547	-2.34639e-05
2	0	0	1	1	104.671	0.263026	0.262892	-0.0860547	2	-0.00112637	40	11.6045	-2.26231e-05
2	0	0	1	1	104.92	0.258029	0.257909	-0.0842736	2	-0.00114772	40	11.8544	-2.17349e-05
2	0	0	1	1	105.17	0.253031	0.252989	-0.0828208	2	-0.00116866	40	12.1043	-2.09527e-05
2	0	0	1	1	105.42	0.248034	0.247691	-0.0812199	2	-0.00118923	40	12.3542	-2.01174e-05
2	0	0	1	1	105.67	0.243036	0.24291	-0.0798511	2	-0.00120942	40	12.6041	-1.93967e-05
2	0	0	1	1	105.92	0.238038	0.237846	-0.0784983	2	-0.00122927	40	12.8539	-1.86705e-05
2	0	0	1	1	106.17	0.233041	0.232954	-0.0771877	2	-0.0012488	40	13.1038	-1.79812e-05
2	0	0	1	1	106.42	0.228043	0.227851	-0.0759908	2	-0.00126802	40	13.3537	-1.73146e-05
2	0	0	1	1	106.67	0.223045	0.222746	-0.0748696	2	-0.00128694	40	13.6036	-1.66769e-05
2	0	0	1	1	106.92	0.218048	0.217742	-0.0737211	2	-0.00130559	40	13.8535	-1.60522e-05
2	0	0	1	1	107.169	0.213052	0.212806	-0.072751	2	-0.00132395	40	14.1033	-1.54819e-05
2	0	0	1	1	107.419	0.208053	0.207748	-0.0717199	2	-0.00134207	40	14.3532	-1.48997e-05
2	0	0	1	1	107.669	0.203055	0.202851	-0.0706874	2	-0.00135994	40	14.6031	-1.4339e-05
2	0	0	1	1	107.919	0.198057	0.197762	-0.0699575	2	-0.00137758	40	14.853	-1.38349e-05
2	0	0	1	1	108.169	0.19306	0.192764	-0.0689067	2	-0.00139499	40	15.1029	-1.32827e-05
2	0	0	1	1	108.419	0.188062	0.187762	-0.0679923	2	-0.00141219	40	15.3528	-1.27664e-05
2	0	0	1	1	108.669	0.183064	0.182615	-0.0672384	2	-0.00142917	40	15.6026	-1.22787e-05
2	0	0	1	1	108.919	0.178067	0.177777	-0.0665867	2	-0.00144597	40	15.8525	-1.18376e-05
2	0	0	1	1	109.168	0.173069	0.173079	-0.065742	2	-0.00146257	40	16.1024	-1.13786e-05
2	0	0	1	1	109.418	0.168071	0.167775	-0.0651537	2	-0.001479	40	16.3523	-1.09312e-05
2	0	0	1	1	109.668	0.163074	0.162748	-0.0644849	2	-0.00149525	40	16.6022	-1.04948e-05
2	0	0	1	1	109.918	0.158076	0.158093	-0.0638321	2	-0.00151133	40	16.8521	-1.00914e-05
2	0	0	1	1	110.168	0.153079	0.152726	-0.0631104	2	-0.00152724	40	17.1019	-9.63857e-06
2	0	0	1	1	110.418	0.148081	0.147708	-0.0624172	2	-0.00154301	40	17.3518	-9.21952e-06
2	0	0	1	1	110.668	0.143083	0.142837	-0.0620092	2	-0.00155863	40	17.6017	-8.8572e-06
2	0	0	1	1	110.918	0.138086	0.137733	-0.0612527	2	-0.0015741	40	17.8516	-8.43653e-06
2	0	0	1	1	111.168	0.133088	0.132719	-0.0607434	2	-0.00158944	40	18.1015	-8.06181e-06
2	0	0	1	1	111.417	0.12809	0.128029	-0.0603704	2	-0.00160463	40	18.3513	-7.72916e-06
2	0	0	1	1	111.667	0.123093	0.122729	-0.0597622	2	-0.00161971	40	18.6012	-7.33455e-06
2	0	0	1	1	111.917	0.118095	0.117745	-0.059314	2	-0.00163466	40	18.8511	-6.98394e-06
2	0	0	1	1	112.167	0.113097	0.112675	-0.0587527	2	-0.00164949	40	19.101	-6.61995e-06
2	0	0	1	1	112.417	0.1081	0.108018	-0.0583516	2	-0.00166421	40	19.3509	-6.30305e-06
2	0	0	1	1	112.667	0.103104	0.10288	-0.0579173	2	-0.00167881	40	19.6007	-5.95854e-06
2	0	0	1	1	112.917	0.0981045	0.0977626	-0.0574285	2	-0.0016933	40	19.8506	-5.61436e-06
2	0	0	1	1	113.167	0.0931069	0.0928993	-0.0569763	2	-0.0017077	40	20.1005	-5.29306e-06
2	0	0	1	1	113.416	0.0881093	0.087638	-0.0566308	2	-0.00172199	40	20.3504	-4.96301e-06
2	0	0	1	1	113.666	0.0831116	0.0827699	-0.0563335	2	-0.00173619	40	20.6003	-4.66272e-06
2	0	0	1	1	113.916	0.078114	0.0778407	-0.0558722	2	-0.00175029	40	20.8502	-4.34913e-06
2	0	0	1	1	114.166	0.0731164	0.0728001	-0.0555417	2	-0.0017643	40	21.1	-4.04344e-06
2	0	0	1	1	114.416	0.0681187	0.0679873	-0.0552461	2	-0.00177823	40	21.3499	-3.75603e-06
2	0	0	1	1	114.666	0.0631211	0.0629343	-0.0548361	2	-0.00179207	40	21.5998	-3.45107e-06
2	0	0	1	1	114.916	0.0581235	0.0578599	-0.0546791	2	-0.00180582	40	21.8497	-3.16373e-06
2	0	0	1	1	115.166	0.0531258	0.0527459	-0.0543468	2	-0.0018195	40	22.0996	-2.86657e-06
2	0	0	1	1	115.416	0.0481278	0.0475816	-0.0538552	2	-0.0018331	40	22.3495	-2.56252e-06
2	0	0	1	1	115.665	0.0431306	0.0428222	-0.0536765	2	-0.00184662	40	22.5993	-2.29855e-06
2	0	0	1	1	115.915	0.0381329	0.037635	-0.0532285	2	-0.00186006	40	22.8492	-2.00325e-06
2	0	0	1	1	116.165	0.0331353	0.0328885	-0.0529492	2	-0.00187343	40	23.0991	-1.74142e-06
2	0	0	1	1	116.415	0.0281377	0.0278929	-0.052625	2	-0.00188673	40	23.349	-1.46786e-06
2	0	0	1	1	116.665	0.02314	0.0229891	-0.0524717	2	-0.00189995	40	23.5989	-1.20628e-06
2	0	0	1	1	116.915	0.0181424	0.0178291	-0.052188	2	-0.0019131	40	23.8487	-9.30465e-07
2	0	0	1	1	117.165	0.0131448	0.0128887	-0.0518427	2	-0.00192619	40	24.0986	-6.68183e-07
2	0	0	1	1	117.415	0.00814713	0.00789974	-0.0516385	2	-0.00193921	40	24.3485	-4.07931e-07
2	0	0	1	1	117.664	0.00314949	0.00295266	-0.0514989	2	-0.00195216	40	24.5984	-1.52059e-07
2	0	0	1	0	117.86	0.000750628	0.000622753	-0.0512056	2	-0.00196221	40	24.7936	-3.18885e-08
2	0	0	1	0	118.11	0.0057496	0.00545209	-0.0506871	2	-0.00197482	40	25.0435	-2.7635e-07
2	0	0	1	0	118.359	0.0107459	0.0105838	-0.0503452	2	-0.00198734	40	25.2933	-5.32842e-07
2	0	0	1	0	118.609	0.0157435	0.0154223	-0.0500102	2	-0.00199978	40	25.5432	-7.71272e-07
2	0	0	1	0	118.859	0.0207412	0.0204837	-0.0497525	2	-0.00201215	40	25.7931	-1.01911e-06
2	0	0	1	0	119.109	0.0257388	0.0254281	-0.0494826	2	-0.00202446	40	26.043	-1.25825e-06
2	0	0	1	0	119.359	0.0307364	0.0303238	-0.0489867	2	-0.00203669	40	26.2929	-1.48547e-06
2	0	0	1	0	119.609	0.0357341	0.0354623	-0.0489911	2	-0.00204886	40	26.5427	-1.73733e-06
2	0	0	1	0	119.859	0.0407317	0.0404063	-0.0487526	2	-0.00206096	40	26.7926	-1.96991e-06
2	0	0	1	0	120.109	0.0457293	0.0453514	-0.048438	2	-0.00207301	40	27.0425	-2.19673e-06
2	0	0	1	0	120.358	0.050727	0.050631	-0.0482066	2	-0.00208499	40	27.2924	-2.44075e-06
2	0	0	1	0	120.608	0.0557246	0.0554814	-0.0479587	2	-0.00209693	40	27.5423	-2.66081e-06
2	0	0	1	0	120.858	0.0607213	0.0603606	-0.0477713	2	-0.00210881	40	27.7921	-2.8835e-06
2	0	0	1	0	121.108	0.0657199	0.0655293	-0.0475111	2	-0.00212064	40	28.042	-3.11337e-06
2	0	0	1	0	121.358	0.0707175	0.0705244	-0.0473022	2	-0.00213242	40	28.2919	-3.33596e-06
2	0	0	1	0	121.608	0.0757151	0.0754482	-0.0472183	2	-0.00214414	40	28.5418	-3.56253e-06
2	0	0	1	0	121.858	0.0807128	0.0805927	-0.0470446	2	-0.00215582	40	28.7917	-3.79145e-06
2	0	0	1	0	122.108	0.0857104	0.0858454	-0.046798	2	-0.00216746	40	29.0416	-4.01739e-06
2	0	0	1	0	122.357	0.0907081	0.090504	-0.0465423	2	-0.00217904	40	29.2914	-4.21226e-06
2	0	0	1	0	122.607	0.0957057	0.0956202	-0.0464797	2	-0.00219058	40	29.5413	-4.4444e-06
2	0	0	1	0	122.857	0.100703	0.100619	-0.0461916	2	-0.00220207	40	29.7912	-4.64776e-06
2	0	0	1	0	123.107	0.105701	0.105533	-0.0461046	2	-0.00221352	40	30.0411	-4.86558e-06
2	0	0	1	0	123.357	0.110699	0.110072	-0.0459125	2	-0.00222492	40	30.291	-5.05369e-06
2	0	0	1	0	123.607	0.115698	0.115488	-0.0457382	2	-0.00223629	40	30.5409	-5.28219e-06
2	0	0	1	0	123.857	0.120694	0.120553	-0.0454999	2	-0.00224761	40	30.7907	-5.48513e-06
2	0	0	1	0	124.107	0.125691	0.125359	-0.0455486	2	-0.00225889	40	31.0406	-5.70992e-06
2	0	0	1	0	124.387	0.131289	0.130741	-0.0449245	2	-0.00227147	41	31.3205	-5.87348e-06
2	0	0	1	0	124.636	0.136286	0.136083	-0.0448	2	-0.00228268	41	31.5704	-6.09653e-06
2	0	0	1	0	124.886	0.141284	0.14107	-0.0446252	2	-0.00229384	41	31.8202	-6.29526e-06
2	0	0	1	0	125.136	0.146282	0.146167	-0.0444927	2	-0.00230497	41	32.0701	-6.50338e-06
2	0	0	1	0	125.386	0.151279	0.150897	-0.0443692	2	-0.00231607	41	32.32	-6.69516e-06
2	0	0	1	0	125.636	0.156277	0.156049	-0.0442143	2	-0.00232713	41	32.5699	-6.8996e-06
2	0	0	1	0	125.886	0.161275	0.161217	-0.0440744	2	-0.00233816	41	32.8198	-7.10551e-06
2	0	0	1	0	126.136	0.166273	0.166127	-0.043952	2	-0.00234915	41	33.0697	-7.30162e-06
2	0	0	1	0	126.386	0.17127	0.171019	-0.0438081	2	-0.00236011	41	33.3195	-7.49201e-06
2	0	0	1	0	126.635	0.176268	0.175957	-0.0436853	2	-0.00237104	41	33.5694	-7.68672e-06
2	0	0	1	0	126.885	0.181265	0.181232	-0.0435758	2	-0.00238193	41	33.8193	-7.89732e-06
2	0	0	1	0	127.135	0.186263	0.18597	-0.0434464	2	-0.0023928	41	34.0692	-8.07973e-06
2	0	0	1	0	127.385	0.19126	0.19109	-0.0433069	2	-0.00240363	41	34.3191	-8.27553e-06
2	0	0	1	0	127.635	0.196258	0.196028	-0.0431671	2	-0.00241443	41	34.5689	-8.46197e-06
2	0	0	1	0	127.885	0.201256	0.201175	-0.0430694	2	-0.0024252	41	34.8188	-8.66449e-06
2	0	0	1	0	128.135	0.206253	0.205733	-0.0429351	2	-0.00243594	41	35.0687	-8.83318e-06
2	0	0	1	0	128.385	0.211251	0.211015	-0.042807	2	-0.00244665	41	35.3186	-9.03293e-06
2	0	0	1	0	128.635	0.216249	0.216095	-0.0426924	2	-0.00245732	41	35.5685	-9.22563e-06
2	0	0	1	0	128.884	0.221245	0.220929	-0.0425439	2	-0.00246797	41	35.8183	-9.39916e-06
2	0	0	1	0	129.134	0.226244	0.226105	-0.0424259	2	-0.00247858	41	36.0682	-9.59273e-06
2	0	0	1	0	129.384	0.231242	0.23104	-0.0422861	2	-0.00248916	41	36.3181	-9.76977e-06
2	0	0	1	0	129.634	0.236239	0.236119	-0.0421416	2	-0.0024997	41	36.568	-9.95042e-06
2	0	0	1	0	129.884	0.241237	0.241047	-0.0420068	2	-0.00251021	41	36.8179	-1.01256e-05
2	0	0	1	0	130.134	0.246234	0.246128	-0.0418509	2	-0.00252068	41	37.0678	-1.03007e-05
2	0	0	1	0	130.384	0.251232	0.25104	-0.0416652	2	-0.0025311	41	37.3176	-1.04596e-05
2	0	0	1	0	130.634	0.25623	0.256013	-0.0414978	2	-0.00254149	41	37.5675	-1.0624e-05
2	0	0	1	0	130.883	0.261227	0.26105	-0.0412858	2	-0.00255183	41	37.8174	-1.07777e-05
2	0	0	1	0	131.133	0.266225	0.265836	-0.0410983	2	-0.00256212	41	38.0673	-1.09254e-05
2	0	0	1	0	131.383	0.271223	0.270911	-0.0408453	2	-0.00257235	41	38.3172	-1.10654e-05
2	0	0	1	0	131.633	0.276221	0.276147	-0.0405999	2	-0.00258252	41	38.5671	-1.12115e-05
2	0	0	1	0	131.883	0.281218	0.281077	-0.0402871	2	-0.00259262	41	38.8169	-1.13238e-05
2	0	0	1	0	132.133	0.286216	0.286133	-0.0399534	2	-0.00260264	41	39.0668	-1.1432e-05
2	0	0	1	0	132.383	0.291213	0.290639	-0.0395703	2	-0.00261257	41	39.3167	-1.15007e-05
2	0	0	1	0	132.633	0.296211	0.296131	-0.0390933	2	-0.00262239	41	39.5666	-1.15767e-05
2	0	0	1	0	132.883	0.301208	0.301011	-0.0385393	2	-0.00263209	41	39.8165	-1.16008e-05
2	0	0	1	0	133.132	0.306206	0.305927	-0.037898	2	-0.00264163	41	40.0663	-1.1594e-05
2	0	0	1	0	133.382	0.311204	0.310994	-0.0371508	2	-0.00265101	41	40.3162	-1.15537e-05
2	0	0	1	0	133.632	0.316201	0.316112	-0.0362323	2	-0.00266017	41	40.5661	-1.14535e-05
2	0	0	1	0	133.882	0.321199	0.320885	-0.0351742	2	-0.00266909	41	40.816	-1.12868e-05
2	0	0	1	0	134.132	0.326197	0.325737	-0.0339045	2	-0.00267772	41	41.0659	-1.1044e-05
2	0	0	1	0	134.382	0.331193	0.330916	-0.0323675	2	-0.002686	41	41.3157	-1.07109e-05
2	0	0	1	0	134.632	0.336192	0.336064	-0.0305879	2	-0.00269386	41	41.5656	-1.02795e-05
2	0	0	1	0	134.882	0.341189	0.341096	-0.0284085	2	-0.00270123	41	41.8155	-9.69002e-06
2	0	0	1	0	135.131	0.346187	0.346076	-0.0258774	2	-0.00270801	41	42.0654	-8.95555e-06
2	0	0	1	0	135.381	0.351185	0.351132	-0.0228223	2	-0.0027141	41	42.3153	-8.01363e-06
2	0	0	1	0	135.631	0.356182	0.355809	-0.0192311	2	-0.00271936	41	42.5652	-6.84258e-06
2	0	0	1	0	135.881	0.36118	0.360872	-0.0149941	2	-0.00272364	41	42.815	-5.41094e-06
2	0	0	1	0	136.131	0.366178	0.366015	-0.0100484	2	-0.00272678	41	43.0649	-3.67786e-06
2	0	0	1	0	136.381	0.371175	0.370774	-0.0042296	2	-0.00272858	41	43.3148	-1.56823e-06
2	1	0	1	0	136.661	0.376773	0.376477	0.00327109	2	-0.00272877	42	0.1	1.23149e-06
2	1	0	1	0	136.926	0.382069	0.38194	0.0114035	2	-0.00272681	42	0.3648	4.35544e-06
2	1	0	1	0	137.19	0.387368	0.386925	0.0212046	2	-0.00272251	41	0.6297	8.20459e-06
2	1	0	1	0	137.44	0.392365	0.392049	0.0313612	2	-0.00271595	41	0.8796	1.22951e-05
2	1	0	1	0	137.69	0.397363	0.39734	0.0425452	2	-0.00270672	41	1.1295	1.69049e-05
2	1	0	1	0	137.94	0.402361	0.402047	0.0548781	2	-0.00269455	41	1.3794	2.20635e-05
2	1	0	1	0	138.19	0.407358	0.407115	0.0680146	2	-0.00267921	41	1.6292	2.76898e-05
2	1	0	1	0	138.44	0.412356	0.412223	0.0817695	2	-0.00266049	41	1.8791	3.37073e-05
2	1	0	1	0	138.69	0.417353	0.416996	0.0958376	2	-0.00263829	41	2.129	3.99639e-05
2	1	0	1	0	138.955	0.422651	0.422654	0.109994	2	-0.00261092	41	2.3939	4.64895e-05
2	1	0	1	0	139.22	0.427948	0.427782	0.124624	2	-0.00257973	40	2.6588	5.33117e-05
2	1	0	1	0	139.469	0.432946	0.432645	0.137304	2	-0.0025469	40	2.9086	5.94038e-05
2	1	0	1	0	139.719	0.437944	0.437689	0.148409	2	-0.00251108	40	3.1585	6.49571e-05
2	1	0	1	0	139.883	0.441217	0.440863	0.154917	2	-0.00248621	40	3.322	6.82971e-05