File: Python/Data/GoldElectrode/240322/Gold/240322-CVEIS-PostActivation-5mM_Fe2Fe3-1M_H2SO4-2000RPM-Ag_AgCl_BLF8-Au_RDE_02_PEIS_C15.mpt
EC-Lab ASCII FILE
Nb header lines : 66

Potentio Electrochemical Impedance Spectroscopy

Run on channel : 15 (SN 19485)
User :
Electrode connection : standard
Potential control : Ewe
Ewe ctrl range : min = -1.00 V, max = 1.00 V
Ewe,I filtering : <None>
Safety Limits :
	Do not start on E overload
Channel : Floating
Acquisition started on : 03/22/2024 12:00:59.571
Loaded Setting File :  C:\Data\mathias\GoldElectrode\240320-CVEIS_PostActivation-Fe2Fe3_5mM-HCl1M-0000RPM-Ag_AgCl_BLF8-Au_RDE.mps
Saved on :
	File : 240322-CVEIS-PostActivation-5mM_Fe2Fe3-1M_H2SO4-2000RPM-Ag_AgCl_BLF8-Au_RDE_02_PEIS_C15.mpr
	Directory : C:\Data\mathias\GoldElectrode\
	Host : 192.168.0.1
Device : VMP-300 (SN 0826)
Address : USB
EC-Lab for windows v11.52 (software)
Internet server v11.52 (firmware)
Command interpretor v11.52 (firmware)
Electrode material :
Initial state :
Electrolyte :
Comments :
Cable : special
Electrode surface area : 0.001 cm²
Characteristic mass : 0.001 g
Equivalent Weight : 0.000 g/eq.
Density : 0.000 g/cm3
Volume (V) : 0.001 cm³
Record EIS quality indicators
Cycle Definition : Charge/Discharge alternance
Mode                Single sine
E (V)               0.0000
vs.                 Eoc
tE (h:m:s)          0:00:0.0000
record              0
dI                  0.000
unit dI             mA
dt (s)              0.000
fi                  400.000
unit fi             kHz
ff                  100.000
unit ff             mHz
Nd                  10
Points              per decade
spacing             Logarithmic
Va (mV)             5.0
pw                  0.10
Na                  3
corr                0
E range min (V)     -1.000
E range max (V)     1.000
I Range             Auto
Bandwidth           8
nc cycles           2
goto Ns'            0
nr cycles           0
inc. cycle          1

freq/Hz	Re(Z)/Ohm	-Im(Z)/Ohm	|Z|/Ohm	Phase(Z)/deg	time/s	<Ewe>/V	<I>/mA	Cs/µF	Cp/µF	cycle number	I Range	|Ewe|/V	|I|/A	Ns	(Q-Qo)/mA.h	THD Ewe/%	NSD Ewe/%	NSR Ewe/%	|Ewe h2|/V	|Ewe h3|/V	|Ewe h4|/V	|Ewe h5|/V	|Ewe h6|/V	|Ewe h7|/V	THD I/%	NSD I/%	NSR I/%	|I h2|/A	|I h3|/A	|I h4|/A	|I h5|/A	|I h6|/A	|I h7|/A	Re(Y)/Ohm-1	Im(Y)/Ohm-1	|Y|/Ohm-1	Phase(Y)/deg	Re(C)/nF	Im(C)/nF	|C|/nF	Phase(C)/deg	Re(M)	Im(M)	|M|	Phase(M)/deg	Re(Permittivity)	Im(Permittivity)	|Permittivity|	Phase(Permittivity)/deg	Re(Resistivity)/Ohm.cm	Im(Resistivity)/Ohm.cm	|Resistivity|/Ohm.cm	Phase(Resistivity)/deg	Re(Conductivity)/mS/cm	Im(Conductivity)/mS/cm	|Conductivity|/mS/cm	Phase(Conductivity)/deg	Tan(Delta)	Loss Angle(Delta)/deg	dq/mA.h
399996	3.15601	0.280692	3.16846	-5.08246	143.818	0.440284	-0.0783384	1.41753	0.0111249	1	37	0.00455733	0.00143834	0	-2.68099e-05	-1	-1	-1	0	0	0	0	0	0	-1	-1	-1	0	0	0	0	0	0	0.31437	0.0279597	0.31561	5.08246	11.1249	125.085	125.579	-84.9175	0.0000000E+000	0.0000000E+000	0.0000000E+000	84.9175	0.0000000E+000	0.0000000E+000	0.0000000E+000	-84.9175	0.0000000E+000	0.0000000E+000	0.0000000E+000	-5.08246	0.0000000E+000	0.0000000E+000	0.0000000E+000	5.08246	11.2436	84.9175	-2.68099e-05
200434	2.8115	0.125681	2.81431	-2.55957	147.259	0.440272	0.0156304	6.31796	0.0126002	1	37	0.00521334	0.00185244	0	-1.2024e-05	-1	-1	-1	0	0	0	0	0	0	-1	-1	-1	0	0	0	0	0	0	0.354973	0.0158682	0.355327	2.55957	12.6002	281.867	282.148	-87.4404	0.0000000E+000	0.0000000E+000	0.0000000E+000	87.4404	0.0000000E+000	0.0000000E+000	0.0000000E+000	-87.4404	0.0000000E+000	0.0000000E+000	0.0000000E+000	-2.55957	0.0000000E+000	0.0000000E+000	0.0000000E+000	2.55957	22.37	87.4404	4.45656e-06
100431	2.68606	0.21744	2.69485	-4.62807	150.703	0.440269	0.00291891	7.28812	0.0474487	1	37	0.00515303	0.00191218	0	-2.358e-06	1.23159	0.918974	25.7589	2.2765e-05	2.04073e-05	2.14277e-05	3.8145e-05	1.70523e-05	2.29508e-05	0.544355	0.327253	9.2163	5.01949e-06	4.73098e-06	3.24217e-06	5.1422e-06	2.29034e-06	2.9149e-06	0.369868	0.0299412	0.371078	4.62807	47.4487	586.14	588.058	-85.3719	0.0000000E+000	0.0000000E+000	0.0000000E+000	85.3719	0.0000000E+000	0.0000000E+000	0.0000000E+000	-85.3719	0.0000000E+000	0.0000000E+000	0.0000000E+000	-4.62807	0.0000000E+000	0.0000000E+000	0.0000000E+000	4.62807	12.3531	85.3719	1.5626e-06
50326.6	2.68735	0.403037	2.71741	-8.5294	154.147	0.440273	0.00161612	7.84652	0.172607	1	37	0.00513169	0.00188845	0	-1.80366e-06	1.22639	0.82718	25.8502	2.4212e-05	1.69309e-05	2.57206e-05	1.34793e-05	1.99852e-05	3.21624e-05	0.546577	0.323	9.38059	3.89064e-06	2.26348e-06	4.27248e-06	4.24941e-06	1.6822e-06	4.23947e-06	0.363928	0.0545803	0.367998	8.5294	172.607	1150.9	1163.77	-81.4706	0.0000000E+000	0.0000000E+000	0.0000000E+000	81.4706	0.0000000E+000	0.0000000E+000	0.0000000E+000	-81.4706	0.0000000E+000	0.0000000E+000	0.0000000E+000	-8.5294	0.0000000E+000	0.0000000E+000	0.0000000E+000	8.5294	6.66775	81.4706	2.13567e-06
25219	2.74337	0.768061	2.84886	-15.6407	157.591	0.440262	-0.00607034	8.2167	0.597237	1	37	0.00514843	0.00180719	0	-7.88739e-07	1.14235	0.734781	25.4391	1.52417e-05	2.05719e-05	1.9787e-05	3.41696e-05	2.61751e-05	1.6407e-05	0.417848	0.314255	10.0418	3.50445e-06	3.59515e-06	1.94644e-06	3.23848e-06	2.67806e-06	2.35389e-06	0.33802	0.0946355	0.351018	15.6407	597.237	2133.22	2215.25	-74.3594	0.0000000E+000	0.0000000E+000	0.0000000E+000	74.3594	0.0000000E+000	0.0000000E+000	0.0000000E+000	-74.3594	0.0000000E+000	0.0000000E+000	0.0000000E+000	-15.6407	0.0000000E+000	0.0000000E+000	0.0000000E+000	15.6407	3.57181	74.3594	-1.99952e-06
12637.3	2.86169	1.40812	3.18937	-26.2	161.035	0.440221	-0.00273892	8.94385	1.7434	1	37	0.00514547	0.00161332	0	-2.64593e-06	1.47728	0.650872	25.8951	3.38964e-05	3.3822e-05	1.70392e-05	3.24834e-05	3.00625e-05	2.41092e-05	0.574449	0.325834	11.1087	3.582e-06	2.7994e-06	4.80633e-06	3.57042e-06	2.16337e-06	3.33403e-06	0.281328	0.13843	0.313542	26.2	1743.4	3543.06	3948.76	-63.8	0.0000000E+000	0.0000000E+000	0.0000000E+000	63.8	0.0000000E+000	0.0000000E+000	0.0000000E+000	-63.8	0.0000000E+000	0.0000000E+000	0.0000000E+000	-26.2	0.0000000E+000	0.0000000E+000	0.0000000E+000	26.2	2.03227	63.8	2.08354e-06
6332.63	3.03254	2.64558	4.02435	-41.1013	164.414	0.440117	-0.0101834	9.49982	4.10549	1	37	0.00539018	0.00133939	0	-1.07056e-05	1.41769	0.596051	24.9864	5.21829e-05	3.25897e-05	2.21699e-05	1.80065e-05	2.38919e-05	1.95137e-05	0.871139	0.314009	13.4623	3.55021e-06	2.7925e-06	3.56972e-06	7.68462e-06	3.5022e-06	4.33089e-06	0.187247	0.163354	0.248487	41.1013	4105.49	4705.99	6245.11	-48.8987	0.0000000E+000	0.0000000E+000	0.0000000E+000	48.8987	0.0000000E+000	0.0000000E+000	0.0000000E+000	-48.8987	0.0000000E+000	0.0000000E+000	0.0000000E+000	-41.1013	0.0000000E+000	0.0000000E+000	0.0000000E+000	41.1013	1.14627	48.8987	-4.63044e-06
3171.96	3.46455	5.0658	6.13722	-55.6314	168.221	0.44013	-0.0040593	9.90477	6.74836	1	38	0.00519289	0.00084613	0	-1.67216e-05	1.80135	0.66969	25.9643	3.23436e-05	3.84849e-05	3.38376e-05	2.07574e-05	3.56397e-05	4.61334e-05	0.446959	0.148346	3.54059	3.35967e-06	7.81447e-07	1.01872e-06	6.55555e-07	2.69903e-07	7.81336e-07	0.0919821	0.134495	0.16294	55.6314	6748.35	4615.26	8175.63	-34.3686	0.0000000E+000	0.0000000E+000	0.0000000E+000	34.3686	0.0000000E+000	0.0000000E+000	0.0000000E+000	-34.3686	0.0000000E+000	0.0000000E+000	0.0000000E+000	-55.6314	0.0000000E+000	0.0000000E+000	0.0000000E+000	55.6314	0.683909	34.3686	-1.86573e-06
1589.49	4.58874	9.55131	10.5964	-64.3389	171.54	0.440129	-0.00406118	10.4833	8.51739	1	38	0.00461058	0.000435108	0	-2.02421e-05	1.51864	0.622139	29.0276	3.31611e-05	1.42837e-05	1.81909e-05	3.30996e-05	3.29538e-05	1.4922e-05	0.806192	0.165551	6.80534	2.68879e-06	1.32685e-06	7.33223e-07	1.27729e-06	5.64604e-07	5.56352e-07	0.0408672	0.0850638	0.0943715	64.3389	8517.39	4092.01	9449.36	-25.6611	0.0000000E+000	0.0000000E+000	0.0000000E+000	25.6611	0.0000000E+000	0.0000000E+000	0.0000000E+000	-25.6611	0.0000000E+000	0.0000000E+000	0.0000000E+000	-64.3389	0.0000000E+000	0.0000000E+000	0.0000000E+000	64.3389	0.480431	25.6611	-1.06672e-06
796.787	7.70927	17.4602	19.0865	-66.177	175.081	0.440103	-0.00331082	11.44	9.57364	1	38	0.00484637	0.000253916	0	-2.34158e-05	1.38078	0.603089	26.8426	2.1147e-05	2.59543e-05	2.97988e-05	3.30357e-05	2.25704e-05	1.66577e-05	0.918992	0.274543	11.8802	1.56062e-06	7.57849e-07	4.98449e-07	1.20105e-06	4.04061e-07	3.25631e-07	0.0211623	0.0479291	0.0523932	66.177	9573.64	4227.07	10465.3	-23.823	0.0000000E+000	0.0000000E+000	0.0000000E+000	23.823	0.0000000E+000	0.0000000E+000	0.0000000E+000	-23.823	0.0000000E+000	0.0000000E+000	0.0000000E+000	-66.177	0.0000000E+000	0.0000000E+000	0.0000000E+000	66.177	0.441532	23.823	-9.19474e-07
399.106	16.0126	30.3784	34.3402	-62.206	178.658	0.440127	-0.00148901	13.127	10.2728	1	39	0.00497798	0.000144961	0	-2.45694e-05	1.29191	1.30777	26.2425	2.8097e-05	2.22762e-05	2.95818e-05	1.89408e-05	2.71983e-05	1.76127e-05	0.943154	0.365993	8.46649	8.00215e-07	6.4478e-07	1.72826e-07	7.91864e-07	3.22346e-07	1.51128e-07	0.0135786	0.0257608	0.0291204	62.206	10272.8	5414.87	11612.6	-27.794	0.0000000E+000	0.0000000E+000	0.0000000E+000	27.794	0.0000000E+000	0.0000000E+000	0.0000000E+000	-27.794	0.0000000E+000	0.0000000E+000	0.0000000E+000	-62.206	0.0000000E+000	0.0000000E+000	0.0000000E+000	62.206	0.527106	27.794	-5.71864e-07
199.936	34.8297	45.0786	56.9666	-52.3087	181.973	0.440187	-0.00172273	17.6587	11.0575	1	39	0.00481355	8.44978e-05	0	-2.61081e-05	1.30837	0.833069	27.5079	1.01928e-05	2.22653e-05	2.19933e-05	1.44667e-05	2.56942e-05	3.99654e-05	0.827741	0.386294	14.2662	3.7083e-07	1.88255e-07	2.78836e-07	2.7083e-07	2.32695e-07	2.74603e-07	0.0107327	0.0138909	0.0175542	52.3087	11057.5	8543.55	13973.6	-37.6913	0.0000000E+000	0.0000000E+000	0.0000000E+000	37.6913	0.0000000E+000	0.0000000E+000	0.0000000E+000	-37.6913	0.0000000E+000	0.0000000E+000	0.0000000E+000	-52.3087	0.0000000E+000	0.0000000E+000	0.0000000E+000	52.3087	0.772644	37.6913	-5.57014e-07
100.224	63.8968	52.0588	82.4192	-39.1708	185.288	0.440159	-0.0014426	30.5037	12.1698	1	39	0.00476226	5.7781e-05	0	-2.74362e-05	1.40521	0.709875	27.6902	2.97483e-05	1.41082e-05	2.51701e-05	3.79973e-05	2.17728e-05	1.8414e-05	0.984212	0.499069	21.4801	9.91695e-08	2.59082e-07	2.48781e-07	2.3562e-07	2.29692e-07	1.93047e-07	0.00940638	0.00766368	0.0121331	39.1708	12169.8	14937.2	19267.2	-50.8292	0.0000000E+000	0.0000000E+000	0.0000000E+000	50.8292	0.0000000E+000	0.0000000E+000	0.0000000E+000	-50.8292	0.0000000E+000	0.0000000E+000	0.0000000E+000	-39.1708	0.0000000E+000	0.0000000E+000	0.0000000E+000	39.1708	1.2274	50.8292	-4.9087e-07
50.2089	92.1517	47.4591	103.655	-27.249	188.516	0.440184	-0.00140943	66.7913	14.0017	1	39	0.00474613	4.57879e-05	0	-2.87397e-05	1.46187	0.885531	27.7781	2.91343e-05	2.92987e-05	2.53112e-05	2.47185e-05	3.01876e-05	1.59558e-05	1.5344	1.03952	28.3353	2.85347e-07	3.42006e-07	2.52149e-07	2.00164e-07	2.49721e-07	1.75862e-07	0.0085768	0.00441715	0.00964742	27.249	14001.7	27187.2	30580.9	-62.751	0.0000000E+000	0.0000000E+000	0.0000000E+000	62.751	0.0000000E+000	0.0000000E+000	0.0000000E+000	-62.751	0.0000000E+000	0.0000000E+000	0.0000000E+000	-27.249	0.0000000E+000	0.0000000E+000	0.0000000E+000	27.249	1.94171	62.751	-4.02249e-07
25.1691	111.145	40.0199	118.13	-19.8025	191.694	0.44014	-0.00139713	158.007	18.1346	1	39	0.00475164	4.02238e-05	0	-3.02146e-05	1.08541	0.812594	27.4617	1.02294e-05	2.7749e-05	3.17184e-05	1.33163e-05	1.4102e-05	1.73739e-05	1.61055	0.883399	31.4872	2.85771e-07	2.22716e-07	3.87447e-07	2.38542e-07	1.95342e-07	1.06885e-07	0.00796467	0.00286784	0.00846525	19.8025	18134.6	50364	53529.4	-70.1975	0.0000000E+000	0.0000000E+000	0.0000000E+000	70.1975	0.0000000E+000	0.0000000E+000	0.0000000E+000	-70.1975	0.0000000E+000	0.0000000E+000	0.0000000E+000	-19.8025	0.0000000E+000	0.0000000E+000	0.0000000E+000	19.8025	2.77723	70.1975	-5.5603e-07
12.6144	127.591	36.4083	132.684	-15.9262	195.261	0.440173	-0.00142137	346.541	26.0926	1	40	0.00476114	3.58833e-05	0	-3.14022e-05	1.60437	0.646396	27.898	1.7466e-05	1.95166e-05	5.6903e-05	2.76811e-05	2.18055e-05	1.98996e-05	0.356752	0.0905748	4.31318	6.70123e-08	4.28347e-08	6.86524e-08	6.15112e-08	2.4409e-08	2.03889e-08	0.0072474	0.00206805	0.00753669	15.9262	26092.6	91440.2	95090.2	-74.0738	0.0000000E+000	0.0000000E+000	0.0000000E+000	74.0738	0.0000000E+000	0.0000000E+000	0.0000000E+000	-74.0738	0.0000000E+000	0.0000000E+000	0.0000000E+000	-15.9262	0.0000000E+000	0.0000000E+000	0.0000000E+000	15.9262	3.50445	74.0738	-2.56776e-07
6.31569	142.688	36.2491	147.221	-14.2541	198.909	0.440171	-0.00140607	695.187	42.1464	1	40	0.00475739	3.23147e-05	0	-3.26708e-05	1.3053	0.50036	27.0759	2.17663e-05	1.55062e-05	5.52933e-06	2.92585e-05	2.95682e-05	2.58766e-05	0.42541	0.172623	4.76631	9.70566e-08	4.704e-08	1.94088e-08	4.79027e-08	5.33584e-08	3.2324e-08	0.00658341	0.00167248	0.00679253	14.2541	42146.4	165902	171171	-75.7459	0.0000000E+000	0.0000000E+000	0.0000000E+000	75.7459	0.0000000E+000	0.0000000E+000	0.0000000E+000	-75.7459	0.0000000E+000	0.0000000E+000	0.0000000E+000	-14.2541	0.0000000E+000	0.0000000E+000	0.0000000E+000	14.2541	3.93631	75.7459	-2.14759e-07
3.16616	161.617	39.3746	166.344	-13.6922	204.754	0.44015	-0.00141293	1276.65	71.5301	1	40	0.00475691	2.85968e-05	0	-3.49319e-05	0.989063	0.587174	17.3476	2.56272e-05	1.62161e-05	1.16597e-05	9.93811e-06	2.25598e-05	1.82137e-05	0.272077	0.194851	3.58634	5.22852e-08	2.21492e-08	1.31171e-08	2.91831e-08	3.16068e-08	1.54604e-08	0.0058408	0.00142299	0.00601164	13.6922	71530.1	293602	302190	-76.3078	0.0000000E+000	0.0000000E+000	0.0000000E+000	76.3078	0.0000000E+000	0.0000000E+000	0.0000000E+000	-76.3078	0.0000000E+000	0.0000000E+000	0.0000000E+000	-13.6922	0.0000000E+000	0.0000000E+000	0.0000000E+000	13.6922	4.10459	76.3078	-5.87311e-07
1.5871	187.416	38.7025	191.371	-11.6679	215.186	0.440141	-0.0014519	2591.06	105.975	1	40	0.00474746	2.48077e-05	0	-4.01605e-05	0.614459	0.302596	11.9223	1.11818e-05	1.21833e-05	1.44612e-05	1.05589e-05	1.07893e-05	7.68702e-06	0.300341	0.104581	2.89066	6.31137e-08	2.21039e-08	1.56021e-08	2.14046e-08	1.22696e-08	4.78486e-09	0.00511749	0.00105679	0.00522546	11.6679	105975	513183	524011	-78.3321	0.0000000E+000	0.0000000E+000	0.0000000E+000	78.3321	0.0000000E+000	0.0000000E+000	0.0000000E+000	-78.3321	0.0000000E+000	0.0000000E+000	0.0000000E+000	-11.6679	0.0000000E+000	0.0000000E+000	0.0000000E+000	11.6679	4.84249	78.3321	-2.8074e-06
0.79456	213.651	27.6541	215.433	-7.3751	236.908	0.440159	-0.00145617	7243.27	119.351	1	41	0.00474915	2.20446e-05	0	-4.693e-05	0.504416	0.35024	9.92876	7.93919e-06	5.94529e-06	1.15988e-05	1.09915e-05	8.7578e-06	6.81818e-06	0.20612	0.152981	0.565227	3.14902e-08	1.93015e-08	8.76357e-09	2.33313e-08	5.80802e-09	3.77017e-09	0.0046034	0.000595844	0.0046418	7.3751	119351	922088	929780	-82.6249	0.0000000E+000	0.0000000E+000	0.0000000E+000	82.6249	0.0000000E+000	0.0000000E+000	0.0000000E+000	-82.6249	0.0000000E+000	0.0000000E+000	0.0000000E+000	-7.3751	0.0000000E+000	0.0000000E+000	0.0000000E+000	7.3751	7.72586	82.6249	-1.73914e-06
0.398211	234.565	16.3922	235.137	-3.99754	275.037	0.44016	-0.00135144	24382	118.496	1	41	0.00475239	2.02112e-05	0	-6.05339e-05	0.499401	0.200634	6.70274	1.0903e-05	1.10749e-05	1.01518e-05	7.93401e-06	7.62326e-06	7.1726e-06	0.159896	0.188826	0.531553	2.28389e-08	1.07205e-08	4.97754e-09	1.74089e-08	5.19014e-09	4.19672e-09	0.0042425	0.000296481	0.00425285	3.99754	118496	1.69562e+06	1.69976e+06	-86.0025	0.0000000E+000	0.0000000E+000	0.0000000E+000	86.0025	0.0000000E+000	0.0000000E+000	0.0000000E+000	-86.0025	0.0000000E+000	0.0000000E+000	0.0000000E+000	-3.99754	0.0000000E+000	0.0000000E+000	0.0000000E+000	3.99754	14.3095	86.0025	-2.88672e-06
0.199573	260.358	9.30346	260.524	-2.0465	350.19	0.440158	-0.0013275	85718.2	109.311	1	41	0.00474776	1.82239e-05	0	-9.39249e-05	0.20473	0.13452	4.98529	2.92885e-06	2.68283e-06	3.73624e-06	4.93428e-06	2.40129e-06	4.8012e-06	0.168709	0.303359	0.45358	2.5318e-08	8.42278e-09	9.27609e-09	7.50026e-09	5.42354e-09	6.36683e-09	0.00383597	0.000137072	0.00383841	2.0465	109312	3.05909e+06	3.06104e+06	-87.9535	0.0000000E+000	0.0000000E+000	0.0000000E+000	87.9535	0.0000000E+000	0.0000000E+000	0.0000000E+000	-87.9535	0.0000000E+000	0.0000000E+000	0.0000000E+000	-2.0465	0.0000000E+000	0.0000000E+000	0.0000000E+000	2.0465	27.9851	87.9535	-1.41755e-05
0.0999518	304.524	5.28897	304.57	-0.995011	499.245	0.440145	-0.00126548	301064	90.7875	1	41	0.00474854	1.5591e-05	0	-0.000136668	0.258925	0.208095	5.85643	7.90517e-06	5.32756e-06	3.54563e-06	2.59053e-06	4.36881e-06	3.24559e-06	0.395798	0.516959	0.403814	5.88051e-08	6.19021e-09	9.00874e-09	1.19262e-08	6.07088e-09	6.7551e-09	0.00328282	5.70159e-05	0.00328332	0.995011	90787.4	5.22729e+06	5.22808e+06	-89.005	0.0000000E+000	0.0000000E+000	0.0000000E+000	89.005	0.0000000E+000	0.0000000E+000	0.0000000E+000	-89.005	0.0000000E+000	0.0000000E+000	0.0000000E+000	-0.995011	0.0000000E+000	0.0000000E+000	0.0000000E+000	0.995011	57.5773	89.005	-1.69051e-05
252347	2.87755	0.168756	2.88249	-3.35632	505.075	0.440249	-0.0437396	3.73733	0.0128099	2	37	0.00520366	0.00180527	0	-0.000215934	-1	-1	-1	0	0	0	0	0	0	-1	-1	-1	0	0	0	0	0	0	0.346327	0.0203107	0.346922	3.35632	12.8099	218.428	218.803	-86.6437	0.0000000E+000	0.0000000E+000	0.0000000E+000	86.6437	0.0000000E+000	0.0000000E+000	0.0000000E+000	-86.6437	0.0000000E+000	0.0000000E+000	0.0000000E+000	-3.35632	0.0000000E+000	0.0000000E+000	0.0000000E+000	3.35632	17.0515	86.6437	-1.15994e-05
126447	2.70197	0.23378	2.71207	-4.94502	508.517	0.440238	-0.0363137	5.38398	0.0400051	2	37	0.00516014	0.00190266	0	-0.000246217	-1	-1	-1	0	0	0	0	0	0	-1	-1	-1	0	0	0	0	0	0	0.36735	0.0317838	0.368723	4.94502	40.0052	462.371	464.098	-85.055	0.0000000E+000	0.0000000E+000	0.0000000E+000	85.055	0.0000000E+000	0.0000000E+000	0.0000000E+000	-85.055	0.0000000E+000	0.0000000E+000	0.0000000E+000	-4.94502	0.0000000E+000	0.0000000E+000	0.0000000E+000	4.94502	11.5578	85.055	-1.11286e-05
63362.9	2.70738	0.431527	2.74156	-9.05613	511.961	0.440248	-0.0449865	5.82073	0.144211	2	37	0.00518956	0.00189292	0	-0.000283136	1.15239	0.858606	25.9447	3.27058e-05	5.2911e-06	1.6413e-05	3.27357e-05	2.65123e-05	1.01151e-05	0.526279	0.149422	9.30581	4.89352e-06	3.49223e-06	3.25891e-06	3.88161e-06	3.20439e-06	3.69188e-06	0.360209	0.0574133	0.364756	9.05613	144.211	904.774	916.194	-80.9439	0.0000000E+000	0.0000000E+000	0.0000000E+000	80.9439	0.0000000E+000	0.0000000E+000	0.0000000E+000	-80.9439	0.0000000E+000	0.0000000E+000	0.0000000E+000	-9.05613	0.0000000E+000	0.0000000E+000	0.0000000E+000	9.05613	6.27397	80.9439	-1.02795e-05
31751	2.74969	0.800933	2.86397	-16.2398	515.406	0.440212	-0.0366114	6.25844	0.489467	2	37	0.00512541	0.00178962	0	-0.000322414	1.3301	1.09328	26.3264	2.59303e-05	3.44108e-05	3.15243e-05	1.35168e-05	2.14292e-05	3.09522e-05	0.56542	0.252968	9.95116	5.25155e-06	4.48381e-06	2.57508e-06	3.84385e-06	4.10081e-06	2.4651e-06	0.335234	0.0976475	0.349166	16.2398	489.467	1680.39	1750.23	-73.7601	0.0000000E+000	0.0000000E+000	0.0000000E+000	73.7601	0.0000000E+000	0.0000000E+000	0.0000000E+000	-73.7601	0.0000000E+000	0.0000000E+000	0.0000000E+000	-16.2398	0.0000000E+000	0.0000000E+000	0.0000000E+000	16.2398	3.43311	73.7601	-1.03343e-05
15912.6	2.84861	1.4733	3.20706	-27.348	518.85	0.440265	-0.0413573	6.78871	1.4327	2	37	0.00510968	0.00159326	0	-0.000358082	1.70782	0.71239	26.6974	3.22996e-05	2.40351e-05	3.16152e-05	3.67233e-05	4.48186e-05	3.48795e-05	0.64542	0.359312	11.2604	3.0926e-06	4.86238e-06	4.29873e-06	3.56497e-06	3.615e-06	4.79025e-06	0.276962	0.143244	0.311813	27.348	1432.7	2770.12	3118.69	-62.6521	0.0000000E+000	0.0000000E+000	0.0000000E+000	62.6521	0.0000000E+000	0.0000000E+000	0.0000000E+000	-62.6521	0.0000000E+000	0.0000000E+000	0.0000000E+000	-27.348	0.0000000E+000	0.0000000E+000	0.0000000E+000	27.348	1.93349	62.6521	-1.52358e-05
7967.67	3.02269	2.77946	4.10634	-42.5996	522.323	0.440121	-0.0439443	7.18668	3.2926	2	37	0.00506993	0.00123466	0	-0.00039693	1.81096	0.84927	25.9314	1.60814e-05	6.12322e-05	2.64037e-05	3.41809e-05	2.73838e-05	2.08722e-05	0.856092	0.532278	14.5097	5.23069e-06	4.30639e-06	3.58507e-06	4.33037e-06	2.10799e-06	4.01533e-06	0.17926	0.164835	0.243526	42.5996	3292.6	3580.73	4864.45	-47.4004	0.0000000E+000	0.0000000E+000	0.0000000E+000	47.4004	0.0000000E+000	0.0000000E+000	0.0000000E+000	-47.4004	0.0000000E+000	0.0000000E+000	0.0000000E+000	-42.5996	0.0000000E+000	0.0000000E+000	0.0000000E+000	42.5996	1.08751	47.4004	-1.43069e-05
3993.72	3.41057	5.28488	6.28983	-57.1641	526.226	0.440112	-0.00386194	7.54062	5.32353	2	38	0.00503135	0.000799918	0	-0.00040454	1.23869	0.828965	25.7917	1.73407e-05	1.63674e-05	2.0158e-05	2.50802e-05	3.14666e-05	1.72947e-05	0.369754	0.155425	3.77225	2.30398e-06	9.13141e-07	5.94748e-07	8.21615e-07	8.31729e-07	8.36944e-07	0.0862083	0.133585	0.158987	57.1641	5323.53	3435.51	6335.83	-32.8359	0.0000000E+000	0.0000000E+000	0.0000000E+000	32.8359	0.0000000E+000	0.0000000E+000	0.0000000E+000	-32.8359	0.0000000E+000	0.0000000E+000	0.0000000E+000	-57.1641	0.0000000E+000	0.0000000E+000	0.0000000E+000	57.1641	0.645344	32.8359	-1.2672e-06
2001.92	4.23604	9.97574	10.8379	-66.9923	529.766	0.440155	-0.00496794	7.96945	6.75198	2	38	0.00483314	0.00044595	0	-0.000408809	1.35449	1.25149	27.221	1.92569e-05	2.42318e-05	2.64099e-05	3.02477e-05	2.89436e-05	1.93401e-05	0.83361	0.236129	6.64753	2.97403e-06	1.4843e-06	8.03751e-07	8.45275e-07	7.04256e-07	5.69391e-07	0.0360638	0.0849293	0.0922691	66.9923	6751.98	2867.12	7335.5	-23.0077	0.0000000E+000	0.0000000E+000	0.0000000E+000	23.0077	0.0000000E+000	0.0000000E+000	0.0000000E+000	-23.0077	0.0000000E+000	0.0000000E+000	0.0000000E+000	-66.9923	0.0000000E+000	0.0000000E+000	0.0000000E+000	66.9923	0.424634	23.0077	-1.71379e-06
1002.75	6.48842	18.8437	19.9295	-71	533.087	0.44011	-0.00410587	8.42288	7.5301	2	38	0.00458142	0.000229881	0	-0.000412342	1.12553	0.969337	28.7362	1.87557e-05	2.60466e-05	1.90554e-05	1.74163e-05	1.46894e-05	2.01304e-05	1.00938	0.393901	12.8733	1.73541e-06	7.40731e-07	6.97967e-07	7.34344e-07	6.2049e-07	5.36994e-07	0.016336	0.0474432	0.0501769	71	7530.1	2592.82	7963.99	-19	0.0000000E+000	0.0000000E+000	0.0000000E+000	19	0.0000000E+000	0.0000000E+000	0.0000000E+000	-19	0.0000000E+000	0.0000000E+000	0.0000000E+000	-71	0.0000000E+000	0.0000000E+000	0.0000000E+000	71	0.344328	19	-1.1277e-06
502.588	12.6866	34.5512	36.8067	-69.8376	536.885	0.440147	-0.000990447	9.16527	8.07638	2	39	0.00519954	0.000141266	0	-0.000414907	1.72192	0.998353	26.0707	2.14368e-05	3.34726e-05	4.31717e-05	4.66405e-05	2.65571e-05	2.8319e-05	1.14789	0.309006	8.88573	1.19558e-06	5.06661e-07	4.13924e-07	6.35411e-07	3.7719e-07	3.07918e-07	0.00936467	0.025504	0.027169	69.8376	8076.38	2965.52	8603.62	-20.1624	0.0000000E+000	0.0000000E+000	0.0000000E+000	20.1624	0.0000000E+000	0.0000000E+000	0.0000000E+000	-20.1624	0.0000000E+000	0.0000000E+000	0.0000000E+000	-69.8376	0.0000000E+000	0.0000000E+000	0.0000000E+000	69.8376	0.367184	20.1624	-4.96694e-07
251.853	28.5819	59.5798	66.0808	-64.3718	540.201	0.440145	-0.00136283	10.6065	8.62224	2	39	0.00500255	7.57035e-05	0	-0.000416186	1.30463	0.939742	26.3711	2.54428e-05	2.24067e-05	2.15992e-05	1.39258e-05	3.34689e-05	2.63053e-05	0.987894	0.592599	16.5537	2.93708e-07	3.42098e-07	2.09692e-07	4.21065e-07	1.95657e-07	1.64249e-07	0.00654547	0.0136442	0.015133	64.3718	8622.24	4136.31	9563.06	-25.6282	0.0000000E+000	0.0000000E+000	0.0000000E+000	25.6282	0.0000000E+000	0.0000000E+000	0.0000000E+000	-25.6282	0.0000000E+000	0.0000000E+000	0.0000000E+000	-64.3718	0.0000000E+000	0.0000000E+000	0.0000000E+000	64.3718	0.479726	25.6282	-4.5215e-07
126.171	64.5839	87.1446	108.468	-53.4574	543.518	0.440138	-0.00144428	14.475	9.34328	2	39	0.00490321	4.52043e-05	0	-0.000417446	1.30512	0.639976	26.1538	2.14067e-05	3.90385e-05	1.89901e-05	2.3991e-05	2.28996e-05	1.77413e-05	1.32377	0.571595	28.0193	2.16617e-07	2.38164e-07	2.00275e-07	2.90877e-07	1.69082e-07	2.56778e-07	0.00548937	0.00740694	0.00921933	53.4574	9343.28	6924.41	11629.5	-36.5426	0.0000000E+000	0.0000000E+000	0.0000000E+000	36.5426	0.0000000E+000	0.0000000E+000	0.0000000E+000	-36.5426	0.0000000E+000	0.0000000E+000	0.0000000E+000	-53.4574	0.0000000E+000	0.0000000E+000	0.0000000E+000	53.4574	0.741111	36.5426	-3.73953e-07
63.2394	123.034	99.1181	157.993	-38.8555	546.788	0.440124	-0.00117739	25.391	9.99333	2	39	0.00491303	3.10965e-05	0	-0.000418553	1.06263	0.653274	27.0099	2.28269e-05	2.71506e-05	1.47676e-05	2.11831e-05	2.03133e-05	1.69172e-05	1.58641	1.27773	39.2707	2.62143e-07	1.3114e-07	1.8122e-07	1.85309e-07	2.33673e-07	9.69539e-08	0.0049289	0.0039708	0.0063294	38.8555	9993.33	12404.6	15929.2	-51.1445	0.0000000E+000	0.0000000E+000	0.0000000E+000	51.1445	0.0000000E+000	0.0000000E+000	0.0000000E+000	-51.1445	0.0000000E+000	0.0000000E+000	0.0000000E+000	-38.8555	0.0000000E+000	0.0000000E+000	0.0000000E+000	38.8555	1.24129	51.1445	-3.5261e-07
31.6723	174.216	87.8921	195.131	-26.771	550.215	0.440175	-0.00116804	57.173	11.5994	2	40	0.00488516	2.50352e-05	0	-0.000419736	1.68358	1.16569	37.8715	4.49458e-05	2.62424e-05	3.25757e-05	1.71988e-05	3.42802e-05	2.52784e-05	0.564746	0.300495	8.61494	7.40565e-08	5.35795e-08	5.92227e-08	7.41789e-08	3.21043e-08	2.79261e-08	0.00457545	0.00230832	0.00512475	26.771	11599.4	22991.9	25752.2	-63.229	0.0000000E+000	0.0000000E+000	0.0000000E+000	63.229	0.0000000E+000	0.0000000E+000	0.0000000E+000	-63.229	0.0000000E+000	0.0000000E+000	0.0000000E+000	-26.771	0.0000000E+000	0.0000000E+000	0.0000000E+000	26.771	1.98216	63.229	-3.69201e-07
15.879	212.321	74.2337	224.924	-19.2712	553.388	0.440131	-0.00115809	135.019	14.7071	2	40	0.00492825	2.19108e-05	0	-0.000420858	2.54731	0.889106	38.4828	3.38693e-05	3.43701e-05	5.18964e-05	3.8251e-05	6.91073e-05	5.18628e-05	0.722768	0.227771	10.0369	3.18862e-08	5.05091e-08	6.24934e-08	6.93967e-08	8.00855e-08	5.47697e-08	0.00419683	0.00146734	0.00444595	19.2712	14707.1	42064.6	44561.5	-70.7288	0.0000000E+000	0.0000000E+000	0.0000000E+000	70.7288	0.0000000E+000	0.0000000E+000	0.0000000E+000	-70.7288	0.0000000E+000	0.0000000E+000	0.0000000E+000	-19.2712	0.0000000E+000	0.0000000E+000	0.0000000E+000	19.2712	2.86017	70.7288	-4.25419e-07
7.95573	237.169	60.8983	244.862	-14.4009	556.824	0.440161	-0.00122936	328.5	20.319	2	40	0.00489557	1.99932e-05	0	-0.000421965	1.13601	0.818499	26.3032	1.70167e-05	1.57348e-05	3.3858e-05	2.39494e-05	1.58499e-05	1.92796e-05	0.469254	0.2557	7.7587	4.58132e-08	3.9844e-08	4.2772e-08	4.28721e-08	1.53713e-08	2.63308e-08	0.00395561	0.00101569	0.00408393	14.4009	20319	79132.2	81699.3	-75.5991	0.0000000E+000	0.0000000E+000	0.0000000E+000	75.5991	0.0000000E+000	0.0000000E+000	0.0000000E+000	-75.5991	0.0000000E+000	0.0000000E+000	0.0000000E+000	-14.4009	0.0000000E+000	0.0000000E+000	0.0000000E+000	14.4009	3.8945	75.5991	-4.64699e-07
3.98597	262.79	56.9247	268.884	-12.2224	561.745	0.440146	-0.00120037	701.432	31.438	2	40	0.00491826	1.82913e-05	0	-0.000423488	1.09718	0.518149	19.1189	3.06393e-05	1.4955e-05	2.68483e-05	1.28365e-05	1.78666e-05	1.60964e-05	0.424588	0.146394	6.36247	5.78224e-08	1.08653e-08	2.81438e-08	2.17756e-08	2.46961e-08	1.99794e-08	0.00363477	0.000787353	0.00371907	12.2224	31438	145132	148498	-77.7776	0.0000000E+000	0.0000000E+000	0.0000000E+000	77.7776	0.0000000E+000	0.0000000E+000	0.0000000E+000	-77.7776	0.0000000E+000	0.0000000E+000	0.0000000E+000	-12.2224	0.0000000E+000	0.0000000E+000	0.0000000E+000	12.2224	4.61644	77.7776	-7.04833e-07
1.99783	291.347	52.8677	296.105	-10.2849	570.274	0.44015	-0.00123653	1506.86	48.0352	2	40	0.00491166	1.65875e-05	0	-0.000426137	0.668477	0.295975	12.2926	1.12606e-05	1.12116e-05	8.39849e-06	8.63067e-06	1.25356e-05	1.81485e-05	0.270938	0.144085	4.62115	2.5534e-08	2.18154e-08	8.83564e-09	1.28596e-08	1.136e-08	1.79873e-08	0.00332291	0.000602973	0.00337718	10.2849	48035.2	264716	269039	-79.7151	0.0000000E+000	0.0000000E+000	0.0000000E+000	79.7151	0.0000000E+000	0.0000000E+000	0.0000000E+000	-79.7151	0.0000000E+000	0.0000000E+000	0.0000000E+000	-10.2849	0.0000000E+000	0.0000000E+000	0.0000000E+000	10.2849	5.51088	79.7151	-1.00792e-06
1.00122	319.971	39.9675	322.457	-7.11993	587.777	0.440148	-0.00121798	3977.27	61.1019	2	41	0.00490157	1.52007e-05	0	-0.000432573	0.708074	0.293149	10.4835	1.00175e-05	1.26802e-05	8.80752e-06	1.17879e-05	1.51453e-05	2.05227e-05	0.196913	0.0603089	0.835167	2.34735e-08	1.3022e-08	2.5461e-09	1.18801e-08	1.42615e-09	2.8432e-09	0.00307727	0.000384381	0.00310118	7.11993	61101.9	489168	492969	-82.8801	0.0000000E+000	0.0000000E+000	0.0000000E+000	82.8801	0.0000000E+000	0.0000000E+000	0.0000000E+000	-82.8801	0.0000000E+000	0.0000000E+000	0.0000000E+000	-7.11993	0.0000000E+000	0.0000000E+000	0.0000000E+000	7.11993	8.00577	82.8801	-2.0144e-06
0.501541	341.055	24.9445	341.966	-4.18312	618.272	0.440153	-0.00117747	12721.5	67.6897	2	41	0.00489818	1.43236e-05	0	-0.000442993	0.528611	0.212432	7.61091	1.37888e-05	8.59001e-06	4.68974e-06	1.1422e-05	9.0406e-06	1.19375e-05	0.215219	0.109035	0.765389	2.38748e-08	1.20029e-08	5.48638e-09	1.2496e-08	3.6711e-09	4.54788e-09	0.00291648	0.000213309	0.00292427	4.18312	67689.8	925492	927964	-85.8169	0.0000000E+000	0.0000000E+000	0.0000000E+000	85.8169	0.0000000E+000	0.0000000E+000	0.0000000E+000	-85.8169	0.0000000E+000	0.0000000E+000	0.0000000E+000	-4.18312	0.0000000E+000	0.0000000E+000	0.0000000E+000	4.18312	13.6726	85.8169	-3.43307e-06
0.251222	362.951	14.1455	363.226	-2.23189	678.164	0.440159	-0.0011687	44786.4	67.9243	2	41	0.00490596	1.35066e-05	0	-0.00046398	0.306408	0.14307	5.19171	4.77717e-06	6.57409e-06	4.01609e-06	4.3131e-06	8.37162e-06	5.38906e-06	0.242771	0.141172	0.63342	2.71898e-08	9.81288e-09	6.53215e-09	1.27842e-08	3.33303e-09	1.94928e-09	0.00275102	0.000107217	0.0027531	2.23189	67924.4	1.74283e+06	1.74416e+06	-87.7681	0.0000000E+000	0.0000000E+000	0.0000000E+000	87.7681	0.0000000E+000	0.0000000E+000	0.0000000E+000	-87.7681	0.0000000E+000	0.0000000E+000	0.0000000E+000	-2.23189	0.0000000E+000	0.0000000E+000	0.0000000E+000	2.23189	25.6585	87.7681	-1.05217e-05
0.125939	396.291	7.9027	396.37	-1.14242	796.726	0.440176	-0.00107731	159914	63.5676	2	41	0.00490615	1.23777e-05	0	-0.00049705	0.241724	0.110509	3.7916	5.14021e-06	5.10417e-06	4.88937e-06	3.08513e-06	5.18175e-06	2.38069e-06	0.315257	0.271412	0.447653	3.50611e-08	6.78822e-09	4.05919e-09	1.37648e-08	4.4872e-09	2.91817e-09	0.00252239	5.03008e-05	0.0025229	1.14242	63567.8	3.18768e+06	3.18831e+06	-88.8576	0.0000000E+000	0.0000000E+000	0.0000000E+000	88.8576	0.0000000E+000	0.0000000E+000	0.0000000E+000	-88.8576	0.0000000E+000	0.0000000E+000	0.0000000E+000	-1.14242	0.0000000E+000	0.0000000E+000	0.0000000E+000	1.14242	50.1463	88.8576	-1.11301e-05
317705	2.99802	0.217681	3.00591	-4.15285	862.812	0.440231	-0.0232485	2.30131	0.0120688	3	37	0.00510351	0.00169782	0	-0.000569039	-1	-1	-1	0	0	0	0	0	0	-1	-1	-1	0	0	0	0	0	0	0.331804	0.0240917	0.332678	4.15285	12.0688	166.218	166.655	-85.8471	0.0000000E+000	0.0000000E+000	0.0000000E+000	85.8471	0.0000000E+000	0.0000000E+000	0.0000000E+000	-85.8471	0.0000000E+000	0.0000000E+000	0.0000000E+000	-4.15285	0.0000000E+000	0.0000000E+000	0.0000000E+000	4.15285	13.7726	85.8471	-7.19799e-06
159201	2.75741	0.210348	2.76542	-4.36235	866.254	0.440247	-0.0370953	4.75266	0.0274975	3	37	0.00519075	0.00187702	0	-0.000600982	-1	-1	-1	0	0	0	0	0	0	-1	-1	-1	0	0	0	0	0	0	0.360561	0.0275054	0.361609	4.36235	27.4975	360.458	361.505	-85.6376	0.0000000E+000	0.0000000E+000	0.0000000E+000	85.6376	0.0000000E+000	0.0000000E+000	0.0000000E+000	-85.6376	0.0000000E+000	0.0000000E+000	0.0000000E+000	-4.36235	0.0000000E+000	0.0000000E+000	0.0000000E+000	4.36235	13.1088	85.6376	-9.15838e-06
79767.3	2.71455	0.408491	2.74512	-8.55776	869.698	0.440226	-0.0353459	4.88442	0.108157	3	37	0.005167	0.00188225	0	-0.00063519	1.71942	1.09679	26.5476	3.07193e-05	5.34373e-05	3.6334e-05	2.93897e-05	2.36157e-05	2.38116e-05	0.621392	0.310656	9.39155	7.07252e-06	5.08091e-06	3.66772e-06	3.17414e-06	4.93858e-06	1.84724e-06	0.360227	0.0542077	0.364283	8.55776	108.157	718.74	726.833	-81.4422	0.0000000E+000	0.0000000E+000	0.0000000E+000	81.4422	0.0000000E+000	0.0000000E+000	0.0000000E+000	-81.4422	0.0000000E+000	0.0000000E+000	0.0000000E+000	-8.55776	0.0000000E+000	0.0000000E+000	0.0000000E+000	8.55776	6.64532	81.4422	-1.08571e-05
39971.8	2.74718	0.74686	2.8469	-15.2091	873.142	0.440253	-0.0306372	5.33123	0.366912	3	37	0.00515705	0.00181146	0	-0.000668525	1.49858	0.779717	26.253	2.97642e-05	1.96229e-05	3.64322e-05	3.98968e-05	2.36586e-05	1.8184e-05	0.586426	0.357969	9.91741	3.15384e-06	4.25337e-06	3.04737e-06	3.88872e-06	3.98501e-06	4.65678e-06	0.338957	0.09215	0.35126	15.2091	366.912	1349.62	1398.6	-74.7909	0.0000000E+000	0.0000000E+000	0.0000000E+000	74.7909	0.0000000E+000	0.0000000E+000	0.0000000E+000	-74.7909	0.0000000E+000	0.0000000E+000	0.0000000E+000	-15.2091	0.0000000E+000	0.0000000E+000	0.0000000E+000	15.2091	3.67831	74.7909	-9.71589e-06
20032.3	2.84237	1.38172	3.16041	-25.9251	876.586	0.440252	-0.0241233	5.75002	1.09906	3	37	0.00510257	0.00161453	0	-0.000701146	1.10365	0.676024	26.1439	2.08387e-05	1.89995e-05	2.43832e-05	8.40095e-06	1.75104e-05	2.87604e-05	0.579198	0.286263	11.0349	2.6068e-06	3.57248e-06	4.60224e-06	1.8579e-06	2.51015e-06	4.95134e-06	0.284572	0.138335	0.316414	25.9251	1099.06	2260.9	2513.89	-64.0749	0.0000000E+000	0.0000000E+000	0.0000000E+000	64.0749	0.0000000E+000	0.0000000E+000	0.0000000E+000	-64.0749	0.0000000E+000	0.0000000E+000	0.0000000E+000	-25.9251	0.0000000E+000	0.0000000E+000	0.0000000E+000	25.9251	2.05712	64.0749	-8.28495e-06
10039.3	2.98765	2.57384	3.94344	-40.7447	880.03	0.440247	-0.0147804	6.15932	2.62389	3	37	0.00507125	0.001286	0	-0.000716589	1.37363	0.702112	26.6674	2.67419e-05	2.11658e-05	1.41336e-05	4.19507e-05	1.48687e-05	2.64302e-05	0.718049	0.496368	13.8123	5.91456e-06	2.65515e-06	4.08375e-06	2.40915e-06	2.26103e-06	3.26713e-06	0.192123	0.165513	0.253586	40.7447	2623.89	3045.75	4020.12	-49.2553	0.0000000E+000	0.0000000E+000	0.0000000E+000	49.2553	0.0000000E+000	0.0000000E+000	0.0000000E+000	-49.2553	0.0000000E+000	0.0000000E+000	0.0000000E+000	-40.7447	0.0000000E+000	0.0000000E+000	0.0000000E+000	40.7447	1.16078	49.2553	-3.07542e-06
5028.39	3.31442	4.91265	5.92617	-55.9936	883.749	0.44014	-0.00287511	6.44281	4.4275	3	38	0.00539804	0.000910882	0	-0.000721101	1.13485	0.641672	23.8831	1.75184e-05	2.42282e-05	2.27343e-05	2.30268e-05	2.96519e-05	1.91486e-05	0.252742	0.102518	3.27833	1.73305e-06	7.1211e-07	6.72333e-07	2.5402e-07	6.98807e-07	5.95277e-07	0.0943754	0.139884	0.168743	55.9936	4427.5	2987.1	5340.93	-34.0064	0.0000000E+000	0.0000000E+000	0.0000000E+000	34.0064	0.0000000E+000	0.0000000E+000	0.0000000E+000	-34.0064	0.0000000E+000	0.0000000E+000	0.0000000E+000	-55.9936	0.0000000E+000	0.0000000E+000	0.0000000E+000	55.9936	0.67467	34.0063	-1.52707e-06
2519.19	4.01486	9.28754	10.1182	-66.6219	887.07	0.440121	-0.00305945	6.80234	5.73133	3	38	0.00465079	0.000459647	0	-0.000723645	1.48697	1.1185	27.7946	2.73498e-05	2.39014e-05	1.94409e-05	3.23772e-05	2.94036e-05	2.46865e-05	0.640474	0.149758	6.40679	2.36155e-06	1.27295e-06	3.7136e-07	3.83199e-07	6.88924e-07	5.78699e-07	0.0392162	0.0907185	0.098832	66.6219	5731.33	2477.56	6243.91	-23.3781	0.0000000E+000	0.0000000E+000	0.0000000E+000	23.3781	0.0000000E+000	0.0000000E+000	0.0000000E+000	-23.3781	0.0000000E+000	0.0000000E+000	0.0000000E+000	-66.6219	0.0000000E+000	0.0000000E+000	0.0000000E+000	66.6219	0.432284	23.3781	-1.42255e-06
1262.98	5.60669	17.4806	18.3577	-72.2169	890.611	0.440158	-0.00319911	7.2089	6.53647	3	38	0.00473903	0.000258149	0	-0.000726408	1.28484	1.32847	26.8894	2.35445e-05	9.45039e-06	2.19555e-05	2.02685e-05	2.78929e-05	2.25556e-05	0.791432	0.64992	11.0711	8.97394e-07	8.17784e-07	7.21967e-07	1.26385e-06	1.97353e-07	3.62045e-07	0.0166368	0.0518703	0.0544731	72.2169	6536.47	2096.5	6864.46	-17.7831	0.0000000E+000	0.0000000E+000	0.0000000E+000	17.7831	0.0000000E+000	0.0000000E+000	0.0000000E+000	-17.7831	0.0000000E+000	0.0000000E+000	0.0000000E+000	-72.2169	0.0000000E+000	0.0000000E+000	0.0000000E+000	72.2169	0.320739	17.7831	-6.78337e-07
632.773	10.3575	32.8607	34.4544	-72.5054	894.186	0.440144	-0.00109109	7.65413	6.96242	3	39	0.00498407	0.000144657	0	-0.000728478	1.56077	0.817453	26.295	2.34254e-05	2.50509e-05	4.08128e-05	3.32818e-05	2.30788e-05	2.36675e-05	0.957682	0.279536	8.52461	9.69227e-07	6.01709e-07	2.94954e-07	5.53375e-07	2.79297e-07	2.63074e-07	0.00872506	0.0276814	0.0290239	72.5054	6962.42	2194.53	7300.09	-17.4946	0.0000000E+000	0.0000000E+000	0.0000000E+000	17.4946	0.0000000E+000	0.0000000E+000	0.0000000E+000	-17.4946	0.0000000E+000	0.0000000E+000	0.0000000E+000	-72.5054	0.0000000E+000	0.0000000E+000	0.0000000E+000	72.5054	0.315196	17.4946	-3.4941e-07
316.927	22.2602	58.6177	62.7021	-69.2056	897.506	0.440178	-0.00145435	8.56707	7.48731	3	39	0.0046929	7.48443e-05	0	-0.000729608	1.28608	0.691413	27.8191	1.48783e-05	2.21175e-05	1.98202e-05	1.73147e-05	3.18026e-05	3.09639e-05	1.19858	0.465345	16.7459	3.25426e-07	3.07356e-07	3.30542e-07	4.68246e-07	3.51871e-07	3.32209e-07	0.00566194	0.0149096	0.0159484	69.2056	7487.31	2843.32	8009.01	-20.7944	0.0000000E+000	0.0000000E+000	0.0000000E+000	20.7944	0.0000000E+000	0.0000000E+000	0.0000000E+000	-20.7944	0.0000000E+000	0.0000000E+000	0.0000000E+000	-69.2056	0.0000000E+000	0.0000000E+000	0.0000000E+000	69.2056	0.379752	20.7944	-3.24119e-07
158.831	52.9607	95.7847	109.451	-61.0612	900.824	0.440137	-0.00134643	10.4614	8.01201	3	39	0.00461692	4.21825e-05	0	-0.000730727	1.45089	0.696557	27.7154	2.58808e-05	2.40552e-05	2.87755e-05	2.75917e-05	2.41236e-05	2.13546e-05	1.56664	0.710962	28.526	2.00159e-07	2.19048e-07	2.11606e-07	3.66145e-07	1.21085e-07	2.9533e-07	0.00442093	0.00799569	0.0091365	61.0612	8012.01	4429.95	9155.15	-28.9388	0.0000000E+000	0.0000000E+000	0.0000000E+000	28.9388	0.0000000E+000	0.0000000E+000	0.0000000E+000	-28.9388	0.0000000E+000	0.0000000E+000	0.0000000E+000	-61.0612	0.0000000E+000	0.0000000E+000	0.0000000E+000	61.0612	0.552914	28.9388	-4.59533e-07
79.6177	115.898	128.418	172.984	-47.9335	904.112	0.440096	-0.00145435	15.5663	8.57876	3	39	0.00457687	2.64584e-05	0	-0.000731699	1.31482	0.572525	28.2971	2.35575e-05	2.20765e-05	2.73238e-05	1.51341e-05	2.5348e-05	2.31676e-05	2.40799	0.835867	45.015	6.59453e-08	2.47155e-07	3.07967e-07	3.61926e-07	2.02798e-07	2.23437e-07	0.00387315	0.00429155	0.00578089	47.9335	8578.76	7742.4	11555.9	-42.0665	0.0000000E+000	0.0000000E+000	0.0000000E+000	42.0665	0.0000000E+000	0.0000000E+000	0.0000000E+000	-42.0665	0.0000000E+000	0.0000000E+000	0.0000000E+000	-47.9335	0.0000000E+000	0.0000000E+000	0.0000000E+000	47.9335	0.902507	42.0665	-3.47563e-07
39.8851	195.7	136.32	238.498	-34.8603	907.58	0.440141	-0.00118039	29.2718	9.5631	3	40	0.0046157	1.93532e-05	0	-0.000732818	2.45599	0.912933	39.4426	2.2991e-05	6.94136e-05	4.49718e-05	4.51086e-05	4.61272e-05	1.86412e-05	0.727809	0.241971	10.9313	6.52919e-08	4.78943e-08	4.09371e-08	7.78404e-08	4.4657e-08	2.84887e-08	0.00344048	0.00239657	0.0041929	34.8603	9563.1	13728.6	16731.1	-55.1397	0.0000000E+000	0.0000000E+000	0.0000000E+000	55.1397	0.0000000E+000	0.0000000E+000	0.0000000E+000	-55.1397	0.0000000E+000	0.0000000E+000	0.0000000E+000	-34.8603	0.0000000E+000	0.0000000E+000	0.0000000E+000	34.8603	1.43559	55.1397	-3.53652e-07
19.9808	260.465	116.061	285.152	-24.0173	910.755	0.44014	-0.00110254	68.6313	11.3694	3	40	0.00459195	1.61035e-05	0	-0.000733837	2.71212	1.21244	40.83	4.2444e-05	6.97833e-05	2.29225e-05	4.56716e-05	3.92392e-05	5.40434e-05	0.74978	0.410573	13.4653	4.09755e-08	7.24622e-08	3.21662e-08	3.50385e-08	4.7481e-08	3.37051e-08	0.00320328	0.00142735	0.0035069	24.0173	11369.4	25515.4	27933.8	-65.9827	0.0000000E+000	0.0000000E+000	0.0000000E+000	65.9827	0.0000000E+000	0.0000000E+000	0.0000000E+000	-65.9827	0.0000000E+000	0.0000000E+000	0.0000000E+000	-24.0173	0.0000000E+000	0.0000000E+000	0.0000000E+000	24.0173	2.24421	65.9827	-3.353e-07
10.016	305.873	94.9779	320.28	-17.2503	914.024	0.440118	-0.00112959	167.302	14.7125	3	40	0.0046013	1.43665e-05	0	-0.00073484	1.92843	1.01848	39.2288	4.69602e-05	2.56765e-05	3.22097e-05	2.28446e-05	4.94503e-05	2.28639e-05	0.870725	0.339615	14.5517	4.78656e-08	2.68472e-08	5.5155e-08	4.43291e-08	5.14413e-08	4.95055e-08	0.00298182	0.000925896	0.00312227	17.2503	14712.5	47381.2	49612.8	-72.7497	0.0000000E+000	0.0000000E+000	0.0000000E+000	72.7497	0.0000000E+000	0.0000000E+000	0.0000000E+000	-72.7497	0.0000000E+000	0.0000000E+000	0.0000000E+000	-17.2503	0.0000000E+000	0.0000000E+000	0.0000000E+000	17.2503	3.22047	72.7497	-2.33967e-07
5.01766	338.707	78.9085	347.778	-13.1143	918.23	0.440133	-0.00112224	401.971	20.6938	3	40	0.00457851	1.31651e-05	0	-0.0007363	1.24399	0.428609	23.9479	2.5275e-05	9.04315e-06	1.741e-05	1.9965e-05	2.23575e-05	2.97253e-05	0.57616	0.349629	9.74252	2.3373e-08	2.55672e-08	3.09136e-08	3.03008e-08	2.11316e-08	3.61991e-08	0.00280041	0.00065241	0.0028754	13.1143	20693.8	88826.1	91204.7	-76.8858	0.0000000E+000	0.0000000E+000	0.0000000E+000	76.8858	0.0000000E+000	0.0000000E+000	0.0000000E+000	-76.8858	0.0000000E+000	0.0000000E+000	0.0000000E+000	-13.1143	0.0000000E+000	0.0000000E+000	0.0000000E+000	13.1143	4.29241	76.8858	-5.18811e-07
2.51368	375.144	69.9765	381.614	-10.5661	925.258	0.440126	-0.00112916	904.812	30.4238	3	40	0.0045971	1.20465e-05	0	-0.000738547	0.646712	0.337232	15.0412	1.55603e-05	1.40211e-05	8.57882e-06	1.17601e-05	7.78643e-06	8.80129e-06	0.370144	0.223586	7.09687	3.08937e-08	1.74299e-08	1.06838e-08	1.28425e-08	1.06384e-08	1.16763e-08	0.00257601	0.00048051	0.00262045	10.5661	30423.8	163102	165915	-79.4339	0.0000000E+000	0.0000000E+000	0.0000000E+000	79.4339	0.0000000E+000	0.0000000E+000	0.0000000E+000	-79.4339	0.0000000E+000	0.0000000E+000	0.0000000E+000	-10.5661	0.0000000E+000	0.0000000E+000	0.0000000E+000	10.5661	5.361	79.4339	-8.85487e-07
1.25968	411.106	55.8543	414.883	-7.73703	939.404	0.440161	-0.0011147	2262.06	40.9983	3	41	0.00460161	1.10913e-05	0	-0.000742921	0.775508	0.266615	13.173	1.23979e-05	1.82537e-05	1.08701e-05	1.45494e-05	1.07779e-05	1.31323e-05	0.29105	0.0671295	1.27007	2.85797e-08	1.00371e-08	2.36887e-09	9.55543e-09	2.13683e-09	2.38033e-09	0.00238838	0.000324493	0.00241032	7.73703	40998.3	301761	304534	-82.263	0.0000000E+000	0.0000000E+000	0.0000000E+000	82.263	0.0000000E+000	0.0000000E+000	0.0000000E+000	-82.263	0.0000000E+000	0.0000000E+000	0.0000000E+000	-7.73703	0.0000000E+000	0.0000000E+000	0.0000000E+000	7.73703	7.36033	82.263	-2.10797e-06
0.631645	436.941	36.9363	438.499	-4.83195	963.858	0.440171	-0.00109151	6821.71	48.402	3	41	0.00459656	1.04825e-05	0	-0.000749903	0.439864	0.29633	8.55886	7.43786e-06	3.29026e-06	8.07556e-06	3.8309e-06	1.14335e-05	9.46777e-06	0.243527	0.0955603	1.12022	2.19581e-08	9.00187e-09	2.77026e-09	7.61578e-09	3.4182e-09	1.73303e-09	0.0022724	0.000192095	0.00228051	4.83195	48402.1	572575	574617	-85.168	0.0000000E+000	0.0000000E+000	0.0000000E+000	85.168	0.0000000E+000	0.0000000E+000	0.0000000E+000	-85.168	0.0000000E+000	0.0000000E+000	0.0000000E+000	-4.83195	0.0000000E+000	0.0000000E+000	0.0000000E+000	4.83195	11.8296	85.168	-2.11046e-06
0.316193	457.929	21.5146	458.435	-2.68991	1011.63	0.440148	-0.00115244	23395.6	51.5284	3	41	0.00459879	1.00315e-05	0	-0.000766669	0.372714	0.228141	6.29905	3.19401e-06	8.04219e-06	7.13643e-06	7.94551e-06	6.32514e-06	5.07923e-06	0.217926	0.0911481	0.956392	1.91451e-08	6.60149e-09	3.12637e-09	6.8166e-09	6.39886e-10	2.00156e-09	0.00217893	0.000102371	0.00218134	2.68991	51528.4	1.09676e+06	1.09797e+06	-87.3101	0.0000000E+000	0.0000000E+000	0.0000000E+000	87.3101	0.0000000E+000	0.0000000E+000	0.0000000E+000	-87.3101	0.0000000E+000	0.0000000E+000	0.0000000E+000	-2.68991	0.0000000E+000	0.0000000E+000	0.0000000E+000	2.68991	21.2846	87.3101	-7.02202e-06
0.158419	484.102	12.1595	484.255	-1.43883	1106.01	0.440147	-0.00113614	82622.2	52.0933	3	41	0.00459651	9.49193e-06	0	-0.000793	0.244485	0.147428	4.38174	4.3569e-06	4.84233e-06	4.91339e-06	3.08505e-06	3.80947e-06	3.29903e-06	0.265851	0.178567	0.635835	2.21608e-08	7.58743e-09	1.27771e-09	8.56652e-09	1.74341e-09	2.09227e-09	0.00206438	5.18523e-05	0.00206503	1.43883	52093.3	2.07397e+06	2.07462e+06	-88.5612	0.0000000E+000	0.0000000E+000	0.0000000E+000	88.5612	0.0000000E+000	0.0000000E+000	0.0000000E+000	-88.5612	0.0000000E+000	0.0000000E+000	0.0000000E+000	-1.43883	0.0000000E+000	0.0000000E+000	0.0000000E+000	1.43883	39.8126	88.5612	-1.17408e-05
0.0999518	511.82	8.55468	511.891	-0.957567	1216.21	0.440177	-0.00109089	186134	51.985	3	41	0.00459521	8.97693e-06	0	-0.000831793	0.257945	0.149458	6.00779	4.7565e-06	4.62499e-06	2.81338e-06	7.21906e-06	4.33966e-06	2.72754e-06	0.193733	0.217352	0.507854	1.30371e-08	3.08889e-09	4.24233e-09	9.48622e-09	2.38112e-09	2.41105e-09	0.00195327	3.26474e-05	0.00195354	0.957567	51984.9	3.11022e+06	3.11066e+06	-89.0424	0.0000000E+000	0.0000000E+000	0.0000000E+000	89.0424	0.0000000E+000	0.0000000E+000	0.0000000E+000	-89.0424	0.0000000E+000	0.0000000E+000	0.0000000E+000	-0.957567	0.0000000E+000	0.0000000E+000	0.0000000E+000	0.957567	59.8292	89.0424	-2.18214e-05