File: Python/Data/GoldElectrode/240322/Gold/240322-CVEIS-PostActivation-5mM_Fe2Fe3-1M_H2SO4-0225RPM-Ag_AgCl_BLF8-Au_RDE_02_PEIS_C15.mpt
EC-Lab ASCII FILE
Nb header lines : 66

Potentio Electrochemical Impedance Spectroscopy

Run on channel : 15 (SN 19485)
User :
Electrode connection : standard
Potential control : Ewe
Ewe ctrl range : min = -1.00 V, max = 1.00 V
Ewe,I filtering : <None>
Safety Limits :
	Do not start on E overload
Channel : Floating
Acquisition started on : 03/22/2024 11:37:10.055
Loaded Setting File :  C:\Data\mathias\GoldElectrode\240320-CVEIS_PostActivation-Fe2Fe3_5mM-HCl1M-0000RPM-Ag_AgCl_BLF8-Au_RDE.mps
Saved on :
	File : 240322-CVEIS-PostActivation-5mM_Fe2Fe3-1M_H2SO4-0225RPM-Ag_AgCl_BLF8-Au_RDE_02_PEIS_C15.mpr
	Directory : C:\Data\mathias\GoldElectrode\
	Host : 192.168.0.1
Device : VMP-300 (SN 0826)
Address : USB
EC-Lab for windows v11.52 (software)
Internet server v11.52 (firmware)
Command interpretor v11.52 (firmware)
Electrode material :
Initial state :
Electrolyte :
Comments :
Cable : special
Electrode surface area : 0.001 cm²
Characteristic mass : 0.001 g
Equivalent Weight : 0.000 g/eq.
Density : 0.000 g/cm3
Volume (V) : 0.001 cm³
Record EIS quality indicators
Cycle Definition : Charge/Discharge alternance
Mode                Single sine
E (V)               0.0000
vs.                 Eoc
tE (h:m:s)          0:00:0.0000
record              0
dI                  0.000
unit dI             mA
dt (s)              0.000
fi                  400.000
unit fi             kHz
ff                  100.000
unit ff             mHz
Nd                  10
Points              per decade
spacing             Logarithmic
Va (mV)             5.0
pw                  0.10
Na                  3
corr                0
E range min (V)     -1.000
E range max (V)     1.000
I Range             Auto
Bandwidth           8
nc cycles           2
goto Ns'            0
nr cycles           0
inc. cycle          1

freq/Hz	Re(Z)/Ohm	-Im(Z)/Ohm	|Z|/Ohm	Phase(Z)/deg	time/s	<Ewe>/V	<I>/mA	Cs/µF	Cp/µF	cycle number	I Range	|Ewe|/V	|I|/A	Ns	(Q-Qo)/mA.h	THD Ewe/%	NSD Ewe/%	NSR Ewe/%	|Ewe h2|/V	|Ewe h3|/V	|Ewe h4|/V	|Ewe h5|/V	|Ewe h6|/V	|Ewe h7|/V	THD I/%	NSD I/%	NSR I/%	|I h2|/A	|I h3|/A	|I h4|/A	|I h5|/A	|I h6|/A	|I h7|/A	Re(Y)/Ohm-1	Im(Y)/Ohm-1	|Y|/Ohm-1	Phase(Y)/deg	Re(C)/nF	Im(C)/nF	|C|/nF	Phase(C)/deg	Re(M)	Im(M)	|M|	Phase(M)/deg	Re(Permittivity)	Im(Permittivity)	|Permittivity|	Phase(Permittivity)/deg	Re(Resistivity)/Ohm.cm	Im(Resistivity)/Ohm.cm	|Resistivity|/Ohm.cm	Phase(Resistivity)/deg	Re(Conductivity)/mS/cm	Im(Conductivity)/mS/cm	|Conductivity|/mS/cm	Phase(Conductivity)/deg	Tan(Delta)	Loss Angle(Delta)/deg	dq/mA.h
399996	3.19309	0.232336	3.20153	-4.16163	143.356	0.439847	-0.183734	1.71257	0.00901914	1	37	0.0045726	0.00142825	0	-7.35293e-05	-1	-1	-1	0	0	0	0	0	0	-1	-1	-1	0	0	0	0	0	0	0.311527	0.0226674	0.31235	4.16163	9.01914	123.954	124.281	-85.8384	0.0000000E+000	0.0000000E+000	0.0000000E+000	85.8384	0.0000000E+000	0.0000000E+000	0.0000000E+000	-85.8384	0.0000000E+000	0.0000000E+000	0.0000000E+000	-4.16163	0.0000000E+000	0.0000000E+000	0.0000000E+000	4.16163	13.7434	85.8384	-7.35293e-05
200434	2.8252	0.0869893	2.82654	-1.76361	146.797	0.439846	-0.087383	9.12814	0.00864576	1	37	0.00520085	0.00184	0	-0.00016207	-1	-1	-1	0	0	0	0	0	0	-1	-1	-1	0	0	0	0	0	0	0.353622	0.0108882	0.353789	1.76361	8.64575	280.793	280.927	-88.2364	0.0000000E+000	0.0000000E+000	0.0000000E+000	88.2364	0.0000000E+000	0.0000000E+000	0.0000000E+000	-88.2364	0.0000000E+000	0.0000000E+000	0.0000000E+000	-1.76361	0.0000000E+000	0.0000000E+000	0.0000000E+000	1.76361	32.4776	88.2364	-2.79961e-05
100431	2.71409	0.152973	2.7184	-3.22592	150.242	0.439852	-0.0756393	10.3595	0.0328052	1	37	0.00517267	0.00190284	0	-0.000242	1.40311	0.905481	24.9456	1.89631e-05	3.8678e-05	2.60268e-05	2.89797e-05	1.59928e-05	3.11673e-05	0.40605	0.264659	9.22888	3.24819e-06	3.83487e-06	3.21348e-06	3.04449e-06	2.03421e-06	1.80588e-06	0.367281	0.0207008	0.367864	3.22592	32.8051	582.04	582.963	-86.7741	0.0000000E+000	0.0000000E+000	0.0000000E+000	86.7741	0.0000000E+000	0.0000000E+000	0.0000000E+000	-86.7741	0.0000000E+000	0.0000000E+000	0.0000000E+000	-3.22592	0.0000000E+000	0.0000000E+000	0.0000000E+000	3.22592	17.7423	86.7741	-2.63356e-05
50326.6	2.71415	0.307743	2.73154	-6.46883	153.686	0.439864	-0.067562	10.2763	0.130435	1	37	0.00517244	0.0018936	0	-0.000306451	1.21972	1.23951	25.4565	3.36452e-05	2.40272e-05	1.79208e-05	1.53085e-05	1.12678e-05	3.55916e-05	0.5124	0.487761	9.57675	4.30928e-06	5.1993e-06	3.09647e-06	3.63378e-06	2.56278e-06	2.90483e-06	0.363763	0.0412452	0.366094	6.46883	130.435	1150.38	1157.75	-83.5312	0.0000000E+000	0.0000000E+000	0.0000000E+000	83.5312	0.0000000E+000	0.0000000E+000	0.0000000E+000	-83.5312	0.0000000E+000	0.0000000E+000	0.0000000E+000	-6.46883	0.0000000E+000	0.0000000E+000	0.0000000E+000	6.46883	8.81954	83.5312	-2.07021e-05
25219	2.76141	0.561102	2.81784	-11.4858	157.131	0.439836	-0.0608247	11.2474	0.445967	1	37	0.00518008	0.00183832	0	-0.000366343	1.36028	0.811902	25.7397	3.19127e-05	1.5585e-05	1.9819e-05	4.11253e-05	1.95398e-05	2.39307e-05	0.553971	0.43328	9.92368	4.20752e-06	5.61238e-06	2.58201e-06	2.81912e-06	2.14991e-06	4.76491e-06	0.347775	0.0706658	0.354882	11.4858	445.967	2194.78	2239.63	-78.5142	0.0000000E+000	0.0000000E+000	0.0000000E+000	78.5142	0.0000000E+000	0.0000000E+000	0.0000000E+000	-78.5142	0.0000000E+000	0.0000000E+000	0.0000000E+000	-11.4858	0.0000000E+000	0.0000000E+000	0.0000000E+000	11.4858	4.9214	78.5142	-2.06012e-05
12637.3	2.84808	1.04278	3.03298	-20.1094	160.577	0.439859	-0.0579214	12.0774	1.42764	1	37	0.00510423	0.00168291	0	-0.00042033	1.91486	1.01857	25.7239	4.83993e-05	2.66758e-05	2.13899e-05	6.42978e-05	2.21639e-05	2.21799e-05	0.721335	0.555108	10.781	4.75326e-06	5.23313e-06	4.87956e-06	4.4257e-06	2.46082e-06	4.53859e-06	0.309609	0.113359	0.329709	20.1094	1427.64	3899.23	4152.37	-69.8906	0.0000000E+000	0.0000000E+000	0.0000000E+000	69.8906	0.0000000E+000	0.0000000E+000	0.0000000E+000	-69.8906	0.0000000E+000	0.0000000E+000	0.0000000E+000	-20.1094	0.0000000E+000	0.0000000E+000	0.0000000E+000	20.1094	2.73124	69.8906	-1.69353e-05
6332.63	3.05241	1.96332	3.6293	-32.7492	163.955	0.439746	-0.0519844	12.801	3.74612	1	37	0.00547933	0.00150975	0	-0.000470862	1.0626	0.723733	24.2249	1.80968e-05	1.933e-05	1.2851e-05	1.18259e-05	3.66362e-05	2.28926e-05	0.623486	0.673634	11.9571	2.51602e-06	1.82627e-06	6.22625e-06	1.98297e-06	4.81725e-06	2.11569e-06	0.231738	0.149054	0.275535	32.7492	3746.12	5824.16	6924.9	-57.2508	0.0000000E+000	0.0000000E+000	0.0000000E+000	57.2508	0.0000000E+000	0.0000000E+000	0.0000000E+000	-57.2508	0.0000000E+000	0.0000000E+000	0.0000000E+000	-32.7492	0.0000000E+000	0.0000000E+000	0.0000000E+000	32.7492	1.55472	57.2508	-1.48949e-05
3171.96	3.54855	3.68949	5.11904	-46.1155	167.984	0.439707	-0.00824679	13.5996	7.06452	1	38	0.00505846	0.000988166	0	-0.000483565	1.76086	0.929351	25.0584	1.57487e-05	3.43279e-05	2.34549e-05	3.07964e-05	3.65789e-05	5.55874e-05	0.285204	0.457094	3.08413	1.8707e-06	1.25345e-06	6.3691e-07	1.22227e-06	5.46328e-07	6.11399e-07	0.135417	0.140796	0.195349	46.1155	7064.52	6794.65	9801.77	-43.8845	0.0000000E+000	0.0000000E+000	0.0000000E+000	43.8845	0.0000000E+000	0.0000000E+000	0.0000000E+000	-43.8845	0.0000000E+000	0.0000000E+000	0.0000000E+000	-46.1155	0.0000000E+000	0.0000000E+000	0.0000000E+000	46.1155	0.961801	43.8845	-2.51405e-06
1589.49	4.97757	6.62769	8.2887	-53.0925	171.301	0.439686	-0.0075132	15.1077	9.65943	1	38	0.00464712	0.000560658	0	-0.00049004	1.05107	0.423476	27.6507	2.98694e-05	1.89081e-05	1.04475e-05	1.16793e-05	1.93376e-05	1.62172e-05	0.502806	0.260227	5.29408	2.12697e-06	1.52487e-06	3.74897e-07	5.38079e-07	4.80827e-07	2.65924e-07	0.0724511	0.0964695	0.120646	53.0925	9659.43	7254.48	12080.2	-36.9075	0.0000000E+000	0.0000000E+000	0.0000000E+000	36.9075	0.0000000E+000	0.0000000E+000	0.0000000E+000	-36.9075	0.0000000E+000	0.0000000E+000	0.0000000E+000	-53.0925	0.0000000E+000	0.0000000E+000	0.0000000E+000	53.0925	0.751026	36.9075	-2.76177e-06
796.787	8.57202	10.6575	13.6771	-51.1897	174.843	0.439734	-0.00773478	18.7422	11.3801	1	38	0.00487046	0.000356104	0	-0.000497344	1.94901	0.537676	26.195	1.50802e-05	6.17494e-05	4.22238e-05	3.21506e-05	3.17218e-05	1.87074e-05	0.685659	0.193434	8.33894	1.00119e-06	1.53235e-06	7.74235e-07	8.38441e-07	6.90722e-07	3.37555e-07	0.0458243	0.0569731	0.073115	51.1897	11380.1	9153.22	14604.4	-38.8103	0.0000000E+000	0.0000000E+000	0.0000000E+000	38.8103	0.0000000E+000	0.0000000E+000	0.0000000E+000	-38.8103	0.0000000E+000	0.0000000E+000	0.0000000E+000	-51.1897	0.0000000E+000	0.0000000E+000	0.0000000E+000	51.1897	0.804315	38.8103	-2.46753e-06
399.106	15.1662	14.164	20.7517	-43.043	178.167	0.439766	-0.00427531	28.1543	13.1163	1	38	0.0047635	0.000229547	0	-0.000502087	1.57894	1.15927	27.0668	3.21189e-05	2.53261e-05	3.19988e-05	1.69586e-05	3.52327e-05	2.09504e-05	0.760824	0.563189	12.8523	6.08554e-07	5.12084e-07	5.63934e-07	7.81901e-07	3.7748e-07	8.995e-07	0.0352184	0.0328911	0.0481888	43.043	13116.3	14044.3	19216.7	-46.957	0.0000000E+000	0.0000000E+000	0.0000000E+000	46.957	0.0000000E+000	0.0000000E+000	0.0000000E+000	-46.957	0.0000000E+000	0.0000000E+000	0.0000000E+000	-43.043	0.0000000E+000	0.0000000E+000	0.0000000E+000	43.043	1.07076	46.957	-1.35402e-06
199.936	23.3706	15.1445	27.8485	-32.9437	181.733	0.439756	-0.00272098	52.5624	15.5445	1	39	0.00482155	0.000173135	0	-0.000506305	1.50601	1.4773	26.8868	3.64112e-05	3.2369e-05	2.03677e-05	2.21331e-05	3.53304e-05	1.56274e-05	0.557712	0.0752269	6.94924	5.62871e-07	3.30349e-07	1.84465e-07	4.24421e-07	4.01345e-07	2.31434e-07	0.0301346	0.0195276	0.0359086	32.9437	15544.5	23988	28584.2	-57.0563	0.0000000E+000	0.0000000E+000	0.0000000E+000	57.0563	0.0000000E+000	0.0000000E+000	0.0000000E+000	-57.0563	0.0000000E+000	0.0000000E+000	0.0000000E+000	-32.9437	0.0000000E+000	0.0000000E+000	0.0000000E+000	32.9437	1.54318	57.0563	-1.12569e-06
100.224	30.4158	14.2637	33.5943	-25.1246	185.048	0.439737	-0.00255696	111.33	20.0701	1	39	0.00477629	0.000142176	0	-0.000508877	1.51937	0.672964	27.487	2.30035e-05	2.7437e-05	2.03982e-05	4.92019e-05	1.21371e-05	2.54378e-05	0.604932	0.191655	8.44195	6.55371e-07	2.3197e-07	1.66607e-07	3.43106e-07	1.43249e-07	1.9844e-07	0.0269506	0.0126387	0.029767	25.1246	20070.1	42797.2	47269.5	-64.8754	0.0000000E+000	0.0000000E+000	0.0000000E+000	64.8754	0.0000000E+000	0.0000000E+000	0.0000000E+000	-64.8754	0.0000000E+000	0.0000000E+000	0.0000000E+000	-25.1246	0.0000000E+000	0.0000000E+000	0.0000000E+000	25.1246	2.13239	64.8754	-7.37327e-07
50.2089	36.097	14.2189	38.7965	-21.4999	188.277	0.439759	-0.00289729	222.933	29.9447	1	39	0.00476731	0.00012288	0	-0.000511393	1.23696	0.457015	27.0765	3.41823e-05	1.33527e-05	2.16288e-05	1.61008e-05	2.44236e-05	2.30748e-05	0.653717	0.17629	9.80963	5.52997e-07	2.95853e-07	2.92564e-07	2.55107e-07	1.45816e-07	2.11122e-07	0.023982	0.00944671	0.0257755	21.4999	29944.7	76019.6	81704.8	-68.5001	0.0000000E+000	0.0000000E+000	0.0000000E+000	68.5001	0.0000000E+000	0.0000000E+000	0.0000000E+000	-68.5001	0.0000000E+000	0.0000000E+000	0.0000000E+000	-21.4999	0.0000000E+000	0.0000000E+000	0.0000000E+000	21.4999	2.53867	68.5001	-9.73441e-07
25.1691	41.4742	15.4056	44.243	-20.3776	191.453	0.439755	-0.00280485	410.462	49.7672	1	39	0.00474565	0.000107263	0	-0.00051362	1.63329	0.952795	26.9082	4.87866e-05	2.19847e-05	2.52892e-05	2.22812e-05	2.3738e-05	1.70159e-05	0.619965	0.276416	11.1349	4.90963e-07	1.49466e-07	9.62149e-08	2.06876e-07	2.16859e-07	1.93986e-07	0.021188	0.00787029	0.0226025	20.3776	49767.2	133981	142925	-69.6224	0.0000000E+000	0.0000000E+000	0.0000000E+000	69.6224	0.0000000E+000	0.0000000E+000	0.0000000E+000	-69.6224	0.0000000E+000	0.0000000E+000	0.0000000E+000	-20.3776	0.0000000E+000	0.0000000E+000	0.0000000E+000	20.3776	2.69214	69.6224	-6.93999e-07
12.6144	47.7443	18.7088	51.279	-21.398	194.732	0.439753	-0.00283271	674.386	89.7681	1	39	0.00474633	9.25588e-05	0	-0.000515639	1.03451	0.375735	19.4129	2.69782e-05	8.21828e-06	1.61331e-05	1.29451e-05	1.95833e-05	2.13454e-05	0.581347	0.282233	9.22327	2.59701e-07	2.23687e-07	2.03948e-07	1.77352e-07	1.27722e-07	2.16947e-07	0.0181569	0.00711487	0.0195011	21.398	89768.1	229085	246045	-68.602	0.0000000E+000	0.0000000E+000	0.0000000E+000	68.602	0.0000000E+000	0.0000000E+000	0.0000000E+000	-68.602	0.0000000E+000	0.0000000E+000	0.0000000E+000	-21.398	0.0000000E+000	0.0000000E+000	0.0000000E+000	21.398	2.55197	68.602	-3.51706e-07
6.31569	55.6069	24.3766	60.7153	-23.6714	198.381	0.439737	-0.00296271	1033.78	166.639	1	39	0.00475757	7.83588e-05	0	-0.000518262	0.902352	0.422787	18.8126	1.14597e-05	1.50074e-05	1.3688e-05	2.56523e-05	1.83115e-05	1.08977e-05	0.655083	0.35517	10.8448	2.41744e-07	1.57404e-07	5.7278e-08	2.41283e-07	3.14199e-07	8.04622e-08	0.0150846	0.00661267	0.0164703	23.6714	166639	380130	415051	-66.3286	0.0000000E+000	0.0000000E+000	0.0000000E+000	66.3286	0.0000000E+000	0.0000000E+000	0.0000000E+000	-66.3286	0.0000000E+000	0.0000000E+000	0.0000000E+000	-23.6714	0.0000000E+000	0.0000000E+000	0.0000000E+000	23.6714	2.28116	66.3286	-5.32892e-07
3.16616	66.1877	32.5708	73.7677	-26.2016	204.907	0.439732	-0.00246388	1543.33	300.873	1	40	0.00476477	6.45915e-05	0	-0.000523575	0.656587	0.41843	17.0612	1.12345e-05	4.57883e-06	1.07165e-05	1.46829e-05	1.68398e-05	1.12267e-05	0.289927	0.0873242	1.53099	1.60908e-07	3.3539e-08	2.78789e-08	7.50344e-08	3.20759e-08	8.47331e-09	0.0121631	0.00598543	0.0135561	26.2016	300873	611410	681430	-63.7984	0.0000000E+000	0.0000000E+000	0.0000000E+000	63.7984	0.0000000E+000	0.0000000E+000	0.0000000E+000	-63.7984	0.0000000E+000	0.0000000E+000	0.0000000E+000	-26.2016	0.0000000E+000	0.0000000E+000	0.0000000E+000	26.2016	2.03212	63.7984	-1.88232e-06
1.5871	80.5491	44.5792	92.0622	-28.962	215.337	0.439739	-0.0025329	2249.49	527.454	1	40	0.00475804	5.16828e-05	0	-0.000530994	0.620739	0.201106	11.6311	1.23656e-05	1.27074e-05	1.18494e-05	6.80625e-06	1.30491e-05	8.96805e-06	0.368258	0.183785	1.32344	1.71511e-07	2.58583e-08	2.43546e-08	6.23042e-08	2.40477e-08	2.1839e-08	0.0095038	0.0052598	0.0108622	28.962	527454	953045	1.08927e+06	-61.038	0.0000000E+000	0.0000000E+000	0.0000000E+000	61.038	0.0000000E+000	0.0000000E+000	0.0000000E+000	-61.038	0.0000000E+000	0.0000000E+000	0.0000000E+000	-28.962	0.0000000E+000	0.0000000E+000	0.0000000E+000	28.962	1.80688	61.038	-3.90599e-06
0.79456	102.255	61.4479	119.298	-31.0028	235.013	0.439769	-0.00244135	3259.77	864.842	1	40	0.00475692	3.98744e-05	0	-0.000543565	0.414056	0.17486	8.15582	7.60792e-06	7.17423e-06	5.55154e-06	8.24256e-06	9.27871e-06	7.57547e-06	0.541258	0.260111	1.33266	1.98731e-07	3.5136e-08	2.2159e-08	5.9341e-08	2.70692e-08	2.16271e-08	0.0071849	0.00431761	0.00838239	31.0028	864842	1.43918e+06	1.67904e+06	-58.9972	0.0000000E+000	0.0000000E+000	0.0000000E+000	58.9972	0.0000000E+000	0.0000000E+000	0.0000000E+000	-58.9972	0.0000000E+000	0.0000000E+000	0.0000000E+000	-31.0028	0.0000000E+000	0.0000000E+000	0.0000000E+000	31.0028	1.66409	58.9972	-4.92175e-06
0.398211	138.898	84.0796	162.364	-31.1879	278.216	0.43977	-0.00237989	4753.53	1274.73	1	41	0.00475095	2.92612e-05	0	-0.000570473	0.36754	0.188822	6.53462	1.05377e-05	5.06038e-06	4.12167e-06	7.34028e-06	5.57898e-06	5.32127e-06	0.509933	0.0976612	0.526405	1.40149e-07	1.61345e-08	1.70977e-08	4.22963e-08	6.88768e-09	8.20572e-09	0.00526887	0.00318942	0.00615901	31.1879	1.27473e+06	2.10583e+06	2.4616e+06	-58.8121	0.0000000E+000	0.0000000E+000	0.0000000E+000	58.8121	0.0000000E+000	0.0000000E+000	0.0000000E+000	-58.8121	0.0000000E+000	0.0000000E+000	0.0000000E+000	-31.1879	0.0000000E+000	0.0000000E+000	0.0000000E+000	31.1879	1.65198	58.8121	-1.10236e-05
0.199573	201.35	95.3879	222.802	-25.3488	353.371	0.439757	-0.00229365	8360.34	1532.4	1	41	0.00474882	2.13141e-05	0	-0.000626704	0.247253	0.132471	4.66687	2.97278e-06	5.80876e-06	5.95746e-06	3.31424e-06	5.59404e-06	1.94812e-06	0.536111	0.132626	0.564703	1.10146e-07	1.05714e-08	7.81625e-09	2.67781e-08	3.176e-09	3.79434e-09	0.00405615	0.00192156	0.00448829	25.3488	1.5324e+06	3.23468e+06	3.5793e+06	-64.6512	0.0000000E+000	0.0000000E+000	0.0000000E+000	64.6512	0.0000000E+000	0.0000000E+000	0.0000000E+000	-64.6512	0.0000000E+000	0.0000000E+000	0.0000000E+000	-25.3488	0.0000000E+000	0.0000000E+000	0.0000000E+000	25.3488	2.11086	64.6512	-1.9878e-05
0.0999518	266.605	73.9362	276.667	-15.5	502.427	0.439738	-0.00234132	21536.4	1538.05	1	41	0.00475682	1.71933e-05	0	-0.000711418	0.587049	0.163667	5.31569	1.11397e-05	8.1607e-06	1.64884e-05	7.68486e-06	7.989e-06	1.10569e-05	0.478641	0.19774	0.564004	7.91307e-08	6.63732e-09	3.81724e-09	1.92962e-08	2.63221e-09	6.07315e-09	0.00348299	0.00096592	0.00361445	15.5	1.53805e+06	5.54603e+06	5.75535e+06	-74.5	0.0000000E+000	0.0000000E+000	0.0000000E+000	74.5	0.0000000E+000	0.0000000E+000	0.0000000E+000	-74.5	0.0000000E+000	0.0000000E+000	0.0000000E+000	-15.5	0.0000000E+000	0.0000000E+000	0.0000000E+000	15.5	3.60588	74.5	-3.75314e-05
252347	2.9121	0.134103	2.91518	-2.63663	508.103	0.439876	-0.030265	4.70308	0.00995241	2	37	0.0052076	0.00178637	0	-0.000791391	-1	-1	-1	0	0	0	0	0	0	-1	-1	-1	0	0	0	0	0	0	0.342668	0.01578	0.343031	2.63663	9.9524	216.12	216.349	-87.3634	0.0000000E+000	0.0000000E+000	0.0000000E+000	87.3634	0.0000000E+000	0.0000000E+000	0.0000000E+000	-87.3634	0.0000000E+000	0.0000000E+000	0.0000000E+000	-2.63663	0.0000000E+000	0.0000000E+000	0.0000000E+000	2.63663	21.7154	87.3634	-1.42623e-05
126447	2.72395	0.164448	2.72891	-3.45482	511.546	0.439813	-0.0328706	7.65388	0.0277946	2	37	0.00513712	0.00188248	0	-0.000827003	-1	-1	-1	0	0	0	0	0	0	-1	-1	-1	0	0	0	0	0	0	0.365781	0.0220826	0.366447	3.45482	27.7946	460.396	461.234	-86.5452	0.0000000E+000	0.0000000E+000	0.0000000E+000	86.5452	0.0000000E+000	0.0000000E+000	0.0000000E+000	-86.5452	0.0000000E+000	0.0000000E+000	0.0000000E+000	-3.45482	0.0000000E+000	0.0000000E+000	0.0000000E+000	3.45482	16.5642	86.5452	-1.5099e-05
63362.9	2.723	0.305393	2.74008	-6.39915	514.99	0.439842	-0.0385284	8.22482	0.102169	2	37	0.00519732	0.00189678	0	-0.000860808	1.30375	0.955083	25.512	2.3457e-05	2.77965e-05	2.6788e-05	2.49995e-05	2.21554e-05	2.29991e-05	0.640125	0.324611	9.289	5.77563e-06	3.58781e-06	5.13021e-06	6.37362e-06	2.35082e-06	3.24977e-06	0.36268	0.0406756	0.364953	6.39915	102.169	910.979	916.69	-83.6009	0.0000000E+000	0.0000000E+000	0.0000000E+000	83.6009	0.0000000E+000	0.0000000E+000	0.0000000E+000	-83.6009	0.0000000E+000	0.0000000E+000	0.0000000E+000	-6.39915	0.0000000E+000	0.0000000E+000	0.0000000E+000	6.39915	8.9164	83.6009	-1.01763e-05
31751	2.76094	0.561574	2.81747	-11.4971	518.434	0.439851	-0.0301347	8.92596	0.354609	2	37	0.00513588	0.00182287	0	-0.000892466	1.39908	0.877929	25.5049	1.97897e-05	3.28519e-05	2.46969e-05	1.16938e-05	4.57669e-05	1.61866e-05	0.526485	0.36772	9.68725	4.28241e-06	4.83094e-06	3.35411e-06	4.23238e-06	2.7217e-06	3.1675e-06	0.347806	0.0707437	0.354928	11.4971	354.609	1743.41	1779.11	-78.5029	0.0000000E+000	0.0000000E+000	0.0000000E+000	78.5029	0.0000000E+000	0.0000000E+000	0.0000000E+000	-78.5029	0.0000000E+000	0.0000000E+000	0.0000000E+000	-11.4971	0.0000000E+000	0.0000000E+000	0.0000000E+000	11.4971	4.91643	78.5029	-1.03928e-05
15912.6	2.82933	1.02386	3.00888	-19.894	521.878	0.439829	-0.0277153	9.76867	1.13112	2	37	0.00512078	0.00170189	0	-0.000924366	1.81901	0.949202	25.5357	2.41096e-05	1.37031e-05	4.18097e-05	5.36574e-05	1.49199e-05	3.32821e-05	0.653909	0.69235	10.5275	4.35809e-06	4.65997e-06	4.14981e-06	3.41104e-06	5.1837e-06	2.59018e-06	0.312516	0.113092	0.332349	19.894	1131.12	3125.72	3324.09	-70.106	0.0000000E+000	0.0000000E+000	0.0000000E+000	70.106	0.0000000E+000	0.0000000E+000	0.0000000E+000	-70.106	0.0000000E+000	0.0000000E+000	0.0000000E+000	-19.894	0.0000000E+000	0.0000000E+000	0.0000000E+000	19.894	2.76338	70.106	-1.16999e-05
7967.67	2.9962	1.89984	3.54776	-32.3782	525.352	0.439704	-0.0337081	10.5141	3.01507	2	37	0.00515197	0.00145217	0	-0.000952485	1.24868	0.825247	24.8646	1.02169e-05	2.50184e-05	2.4973e-05	3.99614e-05	1.91953e-05	2.15046e-05	0.727489	0.940858	12.4604	5.08653e-06	4.01552e-06	2.923e-06	3.09297e-06	3.46835e-06	4.75306e-06	0.238047	0.150942	0.281868	32.3782	3015.07	4755	5630.34	-57.6218	0.0000000E+000	0.0000000E+000	0.0000000E+000	57.6218	0.0000000E+000	0.0000000E+000	0.0000000E+000	-57.6218	0.0000000E+000	0.0000000E+000	0.0000000E+000	-32.3782	0.0000000E+000	0.0000000E+000	0.0000000E+000	32.3782	1.57708	57.6218	-1.20208e-05
3993.72	3.32181	3.5969	4.89614	-47.2769	529.327	0.439702	-0.00635693	11.0793	5.97949	2	38	0.00504333	0.00103006	0	-0.00096883	1.36821	0.82178	24.7352	1.27106e-05	2.1232e-05	3.93587e-05	3.3018e-05	2.06463e-05	1.91468e-05	0.227495	0.456413	2.96135	1.70132e-06	6.92893e-07	6.15581e-07	8.16501e-07	4.7533e-07	7.14498e-07	0.13857	0.150045	0.204243	47.2769	5979.49	5522.19	8139.34	-42.7231	0.0000000E+000	0.0000000E+000	0.0000000E+000	42.7231	0.0000000E+000	0.0000000E+000	0.0000000E+000	-42.7231	0.0000000E+000	0.0000000E+000	0.0000000E+000	-47.2769	0.0000000E+000	0.0000000E+000	0.0000000E+000	47.2769	0.923521	42.7231	-4.39278e-07
2001.92	4.22163	6.71853	7.93478	-57.8566	532.644	0.439706	-0.00648169	11.8331	8.48355	2	38	0.00461512	0.000581632	0	-0.000973671	1.32172	0.800254	27.5947	2.92648e-05	9.38606e-06	3.02826e-05	1.95084e-05	2.71245e-05	2.09028e-05	0.535634	0.336923	5.07651	2.54163e-06	1.31276e-06	5.38245e-07	6.61806e-07	6.14483e-07	4.12072e-07	0.0670517	0.10671	0.126027	57.8566	8483.55	5330.69	10019.3	-32.1434	0.0000000E+000	0.0000000E+000	0.0000000E+000	32.1434	0.0000000E+000	0.0000000E+000	0.0000000E+000	-32.1434	0.0000000E+000	0.0000000E+000	0.0000000E+000	-57.8566	0.0000000E+000	0.0000000E+000	0.0000000E+000	57.8566	0.628356	32.1434	-1.52228e-06
1002.75	6.54352	12.33	13.9587	-62.0451	536.186	0.439713	-0.00570899	12.8725	10.0438	2	38	0.00476165	0.000341123	0	-0.000981073	1.74068	1.13484	39.2677	4.65436e-05	2.87905e-05	2.24468e-05	2.1294e-05	1.66732e-05	4.31756e-05	0.705544	0.322397	9.53496	1.82624e-06	9.02554e-07	7.11951e-07	6.75078e-07	5.20066e-07	4.76908e-07	0.033583	0.0632805	0.0716397	62.0451	10043.8	5330.23	11370.5	-27.9549	0.0000000E+000	0.0000000E+000	0.0000000E+000	27.9549	0.0000000E+000	0.0000000E+000	0.0000000E+000	-27.9549	0.0000000E+000	0.0000000E+000	0.0000000E+000	-62.0451	0.0000000E+000	0.0000000E+000	0.0000000E+000	62.0451	0.530699	27.9549	-1.74083e-06
502.588	12.9979	20.4438	24.2259	-57.5524	539.507	0.439737	-0.00581885	15.4898	11.0309	2	38	0.00464183	0.000191606	0	-0.000985697	1.37069	0.709074	26.8162	1.98947e-05	2.12125e-05	3.44331e-05	1.86586e-05	2.52607e-05	2.1115e-05	0.99754	0.378421	15.4802	9.20644e-07	8.33051e-07	9.97113e-07	7.26136e-07	4.53968e-07	2.17476e-07	0.0221469	0.0348339	0.0412781	57.5524	11030.9	7013.27	13071.6	-32.4476	0.0000000E+000	0.0000000E+000	0.0000000E+000	32.4476	0.0000000E+000	0.0000000E+000	0.0000000E+000	-32.4476	0.0000000E+000	0.0000000E+000	0.0000000E+000	-57.5524	0.0000000E+000	0.0000000E+000	0.0000000E+000	57.5524	0.635786	32.4476	-1.19848e-06
251.853	26.2934	28.2048	38.5598	-47.0087	543.074	0.43975	-0.00238773	22.4052	11.9874	2	39	0.00469005	0.000121631	0	-0.000988018	1.66775	0.762117	27.5075	2.03713e-05	2.60091e-05	3.55978e-05	1.39505e-05	3.18454e-05	3.83309e-05	0.605177	0.220795	10.1635	3.87311e-07	2.55034e-07	1.55434e-07	3.53798e-07	2.12147e-07	2.23789e-07	0.0176839	0.0189694	0.0259338	47.0087	11987.4	11175.1	16388.4	-42.9913	0.0000000E+000	0.0000000E+000	0.0000000E+000	42.9913	0.0000000E+000	0.0000000E+000	0.0000000E+000	-42.9913	0.0000000E+000	0.0000000E+000	0.0000000E+000	-47.0087	0.0000000E+000	0.0000000E+000	0.0000000E+000	47.0087	0.932233	42.9913	-7.59924e-07
126.171	43.4526	28.928	52.2011	-33.6532	546.389	0.439757	-0.00244271	43.6055	13.3912	2	39	0.00460988	8.831e-05	0	-0.000990156	1.31368	0.78543	27.9939	2.81868e-05	3.03226e-05	1.21925e-05	1.07516e-05	9.79689e-06	3.1662e-05	0.759373	0.409463	13.7746	2.66833e-07	3.11789e-07	2.40861e-07	3.03843e-07	2.07262e-07	2.39939e-07	0.0159462	0.010616	0.0191567	33.6532	13391.2	20114.8	24164.6	-56.3468	0.0000000E+000	0.0000000E+000	0.0000000E+000	56.3468	0.0000000E+000	0.0000000E+000	0.0000000E+000	-56.3468	0.0000000E+000	0.0000000E+000	0.0000000E+000	-33.6532	0.0000000E+000	0.0000000E+000	0.0000000E+000	33.6532	1.50209	56.3468	-7.21872e-07
63.2394	57.4358	25.5418	62.859	-23.9749	549.659	0.439759	-0.00236742	98.5326	16.2686	2	39	0.00462232	7.35347e-05	0	-0.000992432	1.10259	0.618921	27.712	1.87328e-05	1.13511e-05	1.94554e-05	1.93071e-05	2.76513e-05	1.7956e-05	0.706975	0.363563	15.8156	1.16426e-07	2.77111e-07	1.43684e-07	1.62374e-07	3.11053e-07	1.38623e-07	0.0145361	0.00646424	0.0159086	23.9749	16268.6	36583	40037.3	-66.0251	0.0000000E+000	0.0000000E+000	0.0000000E+000	66.0251	0.0000000E+000	0.0000000E+000	0.0000000E+000	-66.0251	0.0000000E+000	0.0000000E+000	0.0000000E+000	-23.9749	0.0000000E+000	0.0000000E+000	0.0000000E+000	23.9749	2.24869	66.0251	-7.08239e-07
31.6723	66.5265	22.2035	70.1339	-18.4566	552.834	0.43973	-0.00238867	226.318	22.6833	2	39	0.00460778	6.56997e-05	0	-0.000994728	1.32136	0.812167	27.7367	3.2231e-05	1.77096e-05	9.87871e-06	2.22098e-05	3.38694e-05	1.52248e-05	0.960068	0.598262	18.0253	1.92361e-07	1.86047e-07	1.72384e-07	2.87354e-07	3.13918e-07	3.0008e-07	0.013525	0.00451404	0.0142584	18.4566	22683.3	67964.1	71649.5	-71.5434	0.0000000E+000	0.0000000E+000	0.0000000E+000	71.5434	0.0000000E+000	0.0000000E+000	0.0000000E+000	-71.5434	0.0000000E+000	0.0000000E+000	0.0000000E+000	-18.4566	0.0000000E+000	0.0000000E+000	0.0000000E+000	18.4566	2.99622	71.5434	-7.69038e-07
15.879	74.4299	22.019	77.6186	-16.4801	556.007	0.439737	-0.00229119	455.196	36.632	2	39	0.00460726	5.93576e-05	0	-0.000997203	1.39713	0.779136	27.9485	3.40528e-05	1.9305e-05	3.32713e-05	1.58686e-05	1.66879e-05	1.83251e-05	0.97604	0.499195	20.2724	1.94581e-07	2.43306e-07	2.73389e-07	2.04274e-07	1.68387e-07	2.5333e-07	0.0123542	0.00365482	0.0128835	16.4801	36632	123826	129131	-73.5199	0.0000000E+000	0.0000000E+000	0.0000000E+000	73.5199	0.0000000E+000	0.0000000E+000	0.0000000E+000	-73.5199	0.0000000E+000	0.0000000E+000	0.0000000E+000	-16.4801	0.0000000E+000	0.0000000E+000	0.0000000E+000	16.4801	3.38026	73.5199	-1.00399e-06
7.95573	82.6176	25.181	86.3698	-16.9507	559.443	0.439751	-0.00241355	794.45	67.5289	2	39	0.00459915	5.32495e-05	0	-0.000999551	1.01865	0.53012	17.6479	2.45314e-05	1.71445e-05	1.14457e-05	1.86156e-05	1.25939e-05	1.29042e-05	0.779548	0.501048	15.1627	2.27137e-07	1.50503e-07	1.07744e-07	1.43284e-07	1.12314e-07	1.72015e-07	0.0110751	0.00337559	0.0115781	16.9507	67528.9	221558	231621	-73.0493	0.0000000E+000	0.0000000E+000	0.0000000E+000	73.0493	0.0000000E+000	0.0000000E+000	0.0000000E+000	-73.0493	0.0000000E+000	0.0000000E+000	0.0000000E+000	-16.9507	0.0000000E+000	0.0000000E+000	0.0000000E+000	16.9507	3.28094	73.0493	-1.28314e-06
3.98597	92.4788	31.7594	97.7803	-18.9537	564.812	0.439732	-0.00219941	1257.23	132.634	2	40	0.00460117	4.70562e-05	0	-0.00100227	1.10474	0.663577	19.1093	1.43004e-05	2.88722e-05	1.7764e-05	1.12979e-05	2.19076e-05	2.22924e-05	0.223421	0.191065	2.25943	5.49884e-08	5.01847e-08	2.03817e-08	4.9272e-08	3.44002e-08	2.0127e-08	0.00967252	0.00332177	0.010227	18.9537	132634	386212	408352	-71.0463	0.0000000E+000	0.0000000E+000	0.0000000E+000	71.0463	0.0000000E+000	0.0000000E+000	0.0000000E+000	-71.0463	0.0000000E+000	0.0000000E+000	0.0000000E+000	-18.9537	0.0000000E+000	0.0000000E+000	0.0000000E+000	18.9537	2.91186	71.0463	-5.37435e-07
1.99783	106.026	41.516	113.864	-21.3836	573.342	0.439752	-0.00223512	1918.87	255.096	2	40	0.00459214	4.033e-05	0	-0.00100825	0.698226	0.317942	12.7233	1.53221e-05	1.29083e-05	1.16426e-05	1.19333e-05	6.8513e-06	1.00984e-05	0.245428	0.201303	1.78998	7.44551e-08	2.36391e-08	2.48107e-08	4.87937e-08	1.27138e-08	9.00576e-09	0.00817782	0.00320215	0.0087824	21.3836	255096	651478	699641	-68.6164	0.0000000E+000	0.0000000E+000	0.0000000E+000	68.6164	0.0000000E+000	0.0000000E+000	0.0000000E+000	-68.6164	0.0000000E+000	0.0000000E+000	0.0000000E+000	-21.3836	0.0000000E+000	0.0000000E+000	0.0000000E+000	21.3836	2.55385	68.6164	-2.04945e-06
1.00122	125.27	56.1225	137.267	-24.133	589.206	0.439742	-0.00221797	2832.4	473.474	2	40	0.00459148	3.34492e-05	0	-0.00101616	0.458636	0.295579	9.08945	7.2321e-06	6.41821e-06	7.2341e-06	8.25399e-06	9.94872e-06	8.55845e-06	0.238061	0.0713812	1.59683	6.27896e-08	1.5473e-08	1.90835e-08	3.35302e-08	1.39535e-08	9.28826e-09	0.00664834	0.00297854	0.00728506	24.133	473474	1.05683e+06	1.15804e+06	-65.867	0.0000000E+000	0.0000000E+000	0.0000000E+000	65.867	0.0000000E+000	0.0000000E+000	0.0000000E+000	-65.867	0.0000000E+000	0.0000000E+000	0.0000000E+000	-24.133	0.0000000E+000	0.0000000E+000	0.0000000E+000	24.133	2.23208	65.867	-2.09749e-06
0.501541	156	77.0573	173.994	-26.2874	623.741	0.439752	-0.00220437	4118.13	807.719	2	41	0.00459916	2.64329e-05	0	-0.00103684	0.478382	0.269811	8.38702	5.69445e-06	1.29644e-05	7.85854e-06	8.39056e-06	6.64489e-06	7.60505e-06	0.302319	0.134111	0.485636	6.70588e-08	1.79161e-08	1.48682e-08	2.94509e-08	1.23587e-08	1.28417e-08	0.00515297	0.00254535	0.00574734	26.2874	807719	1.6352e+06	1.82381e+06	-63.7126	0.0000000E+000	0.0000000E+000	0.0000000E+000	63.7126	0.0000000E+000	0.0000000E+000	0.0000000E+000	-63.7126	0.0000000E+000	0.0000000E+000	0.0000000E+000	-26.2874	0.0000000E+000	0.0000000E+000	0.0000000E+000	26.2874	2.02447	63.7126	-9.11762e-06
0.251222	210.259	94.7293	230.613	-24.2533	683.636	0.43977	-0.00217538	6687.73	1128.45	2	41	0.004593	1.99165e-05	0	-0.00107442	0.332723	0.20767	5.64433	5.9865e-06	7.46116e-06	3.30476e-06	3.29487e-06	5.72209e-06	6.70908e-06	0.357831	0.162975	0.528134	6.13214e-08	1.81889e-08	8.14096e-09	2.82745e-08	6.40449e-09	6.38672e-09	0.00395354	0.00178122	0.00433627	24.2533	1.12845e+06	2.50466e+06	2.74713e+06	-65.7467	0.0000000E+000	0.0000000E+000	0.0000000E+000	65.7467	0.0000000E+000	0.0000000E+000	0.0000000E+000	-65.7467	0.0000000E+000	0.0000000E+000	0.0000000E+000	-24.2533	0.0000000E+000	0.0000000E+000	0.0000000E+000	24.2533	2.21957	65.7467	-1.15882e-05
0.125939	278.696	83.2023	290.85	-16.6225	802.196	0.439756	-0.00212904	15188.9	1242.96	2	41	0.0045932	1.57923e-05	0	-0.0011452	0.282726	0.14187	3.97716	5.77201e-06	4.43272e-06	4.65707e-06	5.85235e-06	4.43773e-06	4.88083e-06	0.517462	0.149521	0.508227	7.60263e-08	1.60777e-08	4.20692e-09	2.17415e-08	8.55877e-09	4.8927e-09	0.00329451	0.000983548	0.00343819	16.6225	1.24296e+06	4.16344e+06	4.34502e+06	-73.3775	0.0000000E+000	0.0000000E+000	0.0000000E+000	73.3775	0.0000000E+000	0.0000000E+000	0.0000000E+000	-73.3775	0.0000000E+000	0.0000000E+000	0.0000000E+000	-16.6225	0.0000000E+000	0.0000000E+000	0.0000000E+000	16.6225	3.34962	73.3775	-3.25065e-05
317705	3.02892	0.164314	3.03337	-3.10517	867.974	0.439814	-0.0424926	3.04874	0.00894582	3	37	0.00510545	0.00168309	0	-0.00125088	-1	-1	-1	0	0	0	0	0	0	-1	-1	-1	0	0	0	0	0	0	0.329182	0.0178576	0.329666	3.10517	8.94582	164.904	165.147	-86.8948	0.0000000E+000	0.0000000E+000	0.0000000E+000	86.8948	0.0000000E+000	0.0000000E+000	0.0000000E+000	-86.8948	0.0000000E+000	0.0000000E+000	0.0000000E+000	-3.10517	0.0000000E+000	0.0000000E+000	0.0000000E+000	3.10517	18.4337	86.8948	-1.12795e-05
159201	2.76885	0.141539	2.77246	-2.92632	871.418	0.439817	-0.0399242	7.06316	0.0184086	3	37	0.00517443	0.00186637	0	-0.00129455	-1	-1	-1	0	0	0	0	0	0	-1	-1	-1	0	0	0	0	0	0	0.36022	0.0184139	0.36069	2.92632	18.4086	360.117	360.587	-87.0737	0.0000000E+000	0.0000000E+000	0.0000000E+000	87.0737	0.0000000E+000	0.0000000E+000	0.0000000E+000	-87.0737	0.0000000E+000	0.0000000E+000	0.0000000E+000	-2.92632	0.0000000E+000	0.0000000E+000	0.0000000E+000	2.92632	19.5624	87.0737	-1.19853e-05
79767.3	2.72313	0.269756	2.73646	-5.6573	874.861	0.439834	-0.033857	7.39648	0.0718764	3	37	0.00514168	0.00187895	0	-0.00133302	1.49537	1.53021	26.389	4.50235e-05	2.5467e-05	2.54698e-05	3.20096e-05	2.41164e-05	2.0542e-05	0.56248	0.379714	9.38833	6.23468e-06	3.37239e-06	2.85595e-06	3.28895e-06	2.59357e-06	5.11786e-06	0.363655	0.0360239	0.365435	5.6573	71.8764	725.58	729.131	-84.3427	0.0000000E+000	0.0000000E+000	0.0000000E+000	84.3427	0.0000000E+000	0.0000000E+000	0.0000000E+000	-84.3427	0.0000000E+000	0.0000000E+000	0.0000000E+000	-5.6573	0.0000000E+000	0.0000000E+000	0.0000000E+000	5.6573	10.0948	84.3427	-1.13079e-05
39971.8	2.73458	0.506536	2.7811	-10.4942	878.306	0.439822	-0.0435534	7.86061	0.260762	3	37	0.00515286	0.00185281	0	-0.00136549	1.34179	0.765555	25.7836	3.46164e-05	2.00154e-05	2.39277e-05	2.33177e-05	2.85085e-05	2.23178e-05	0.579633	0.42993	9.5924	3.87203e-06	4.97298e-06	4.27064e-06	4.01936e-06	3.18332e-06	2.7905e-06	0.353556	0.0654904	0.35957	10.4942	260.762	1407.75	1431.69	-79.5058	0.0000000E+000	0.0000000E+000	0.0000000E+000	79.5058	0.0000000E+000	0.0000000E+000	0.0000000E+000	-79.5058	0.0000000E+000	0.0000000E+000	0.0000000E+000	-10.4942	0.0000000E+000	0.0000000E+000	0.0000000E+000	10.4942	5.39859	79.5058	-1.03362e-05
20032.3	2.81127	0.921672	2.9585	-18.1517	881.75	0.439844	-0.0296322	8.62011	0.836609	3	37	0.00515927	0.00174388	0	-0.00139486	1.13661	0.806441	25.9288	2.17399e-05	1.63046e-05	2.77112e-05	2.02425e-05	2.048e-05	1.80198e-05	0.555025	0.554046	10.2278	4.68432e-06	4.23347e-06	1.9873e-06	4.11657e-06	4.17363e-06	2.75742e-06	0.321188	0.105301	0.338009	18.1517	836.609	2551.81	2685.46	-71.8483	0.0000000E+000	0.0000000E+000	0.0000000E+000	71.8483	0.0000000E+000	0.0000000E+000	0.0000000E+000	-71.8483	0.0000000E+000	0.0000000E+000	0.0000000E+000	-18.1517	0.0000000E+000	0.0000000E+000	0.0000000E+000	18.1517	3.05019	71.8483	-9.36856e-06
10039.3	2.94731	1.71686	3.4109	-30.2215	885.195	0.439852	-0.0281247	9.23381	2.33944	3	37	0.00505086	0.0014808	0	-0.00142868	1.31703	0.870787	26.5508	2.88083e-05	2.16605e-05	3.54289e-05	1.39298e-05	8.80863e-06	3.08294e-05	0.672378	0.790483	12.1229	3.92283e-06	4.21337e-06	2.37073e-06	4.68912e-06	1.69398e-06	4.83738e-06	0.253331	0.14757	0.293178	30.2215	2339.44	4016.09	4647.79	-59.7785	0.0000000E+000	0.0000000E+000	0.0000000E+000	59.7785	0.0000000E+000	0.0000000E+000	0.0000000E+000	-59.7785	0.0000000E+000	0.0000000E+000	0.0000000E+000	-30.2215	0.0000000E+000	0.0000000E+000	0.0000000E+000	30.2215	1.71669	59.7785	-1.21558e-05
5028.39	3.17922	3.27866	4.56695	-45.8822	888.983	0.439738	-0.00560843	9.65373	4.97548	3	38	0.00510307	0.00111739	0	-0.00144371	1.41552	0.716582	25.7178	3.18139e-05	3.02569e-05	3.90702e-05	2.4263e-05	1.17476e-05	2.45977e-05	0.191777	0.608366	2.7246	1.26448e-06	7.41657e-07	8.77998e-07	6.41106e-07	3.90433e-07	6.58556e-07	0.152429	0.157197	0.218965	45.8822	4975.48	4824.58	6930.51	-44.1178	0.0000000E+000	0.0000000E+000	0.0000000E+000	44.1178	0.0000000E+000	0.0000000E+000	0.0000000E+000	-44.1178	0.0000000E+000	0.0000000E+000	0.0000000E+000	-45.8822	0.0000000E+000	0.0000000E+000	0.0000000E+000	45.8822	0.969672	44.1178	-3.17507e-06
2519.19	3.73097	6.24363	7.27345	-59.139	892.304	0.43973	-0.00565313	10.1186	7.45617	3	38	0.00497696	0.000684264	0	-0.00144819	1.38799	0.759806	25.9444	1.18154e-05	1.82953e-05	1.78694e-05	4.34538e-05	3.0723e-05	2.40347e-05	0.483225	0.322677	4.32059	2.85696e-06	1.08402e-06	3.79712e-07	9.7373e-07	3.82736e-07	3.66453e-07	0.0705246	0.11802	0.137486	59.139	7456.17	4455.54	8685.98	-30.861	0.0000000E+000	0.0000000E+000	0.0000000E+000	30.861	0.0000000E+000	0.0000000E+000	0.0000000E+000	-30.861	0.0000000E+000	0.0000000E+000	0.0000000E+000	-59.139	0.0000000E+000	0.0000000E+000	0.0000000E+000	59.139	0.597564	30.861	-2.3966e-06
1262.98	5.34755	11.5765	12.7519	-65.2062	895.622	0.439715	-0.00604228	10.8855	8.97121	3	38	0.00450034	0.000352915	0	-0.00145351	1.69208	1.40192	29.714	2.53287e-05	1.94586e-05	5.28458e-05	2.08115e-05	2.53555e-05	1.30753e-05	0.766255	0.283529	8.55203	1.78556e-06	1.20979e-06	1.02476e-06	7.28908e-07	4.31367e-07	4.85368e-07	0.0328856	0.0711912	0.0784197	65.2062	8971.21	4144.1	9882.11	-24.7938	0.0000000E+000	0.0000000E+000	0.0000000E+000	24.7938	0.0000000E+000	0.0000000E+000	0.0000000E+000	-24.7938	0.0000000E+000	0.0000000E+000	0.0000000E+000	-65.2062	0.0000000E+000	0.0000000E+000	0.0000000E+000	65.2062	0.461933	24.7938	-2.05708e-06
632.773	9.87212	20.8706	23.0877	-64.6851	899.165	0.439746	-0.00284534	12.0514	9.84798	3	38	0.00497385	0.000215433	0	-0.00145797	1.59781	0.697584	26.1265	1.4803e-05	4.09665e-05	3.72894e-05	2.71676e-05	2.24382e-05	2.80163e-05	0.99669	0.394268	13.8394	1.14471e-06	9.67843e-07	9.24293e-07	5.53579e-07	7.54256e-07	6.45708e-07	0.0185204	0.0391539	0.0433131	64.6851	9847.98	4658.24	10894.1	-25.3149	0.0000000E+000	0.0000000E+000	0.0000000E+000	25.3149	0.0000000E+000	0.0000000E+000	0.0000000E+000	-25.3149	0.0000000E+000	0.0000000E+000	0.0000000E+000	-64.6851	0.0000000E+000	0.0000000E+000	0.0000000E+000	64.6851	0.473015	25.3149	-7.91041e-07
316.927	21.5437	33.9115	40.1762	-57.5725	902.738	0.439765	-0.0025359	14.8086	10.5505	3	39	0.00503462	0.000125314	0	-0.00146055	1.66964	0.422456	26.0524	3.79999e-05	3.31676e-05	2.84262e-05	2.04349e-05	3.84369e-05	3.63517e-05	0.898305	0.26183	9.80671	6.29777e-07	5.29489e-07	2.27709e-07	5.28112e-07	2.63305e-07	3.04378e-07	0.013347	0.0210092	0.0248904	57.5725	10550.5	6702.63	12499.5	-32.4275	0.0000000E+000	0.0000000E+000	0.0000000E+000	32.4275	0.0000000E+000	0.0000000E+000	0.0000000E+000	-32.4275	0.0000000E+000	0.0000000E+000	0.0000000E+000	-57.5725	0.0000000E+000	0.0000000E+000	0.0000000E+000	57.5725	0.635292	32.4275	-6.20471e-07
158.831	44.1208	43.7199	62.1134	-44.7385	906.058	0.439761	-0.00235363	22.9196	11.3552	3	39	0.00492054	7.92186e-05	0	-0.00146268	1.33526	0.57324	26.8783	1.9642e-05	1.74162e-05	2.70968e-05	2.78993e-05	3.50623e-05	2.25987e-05	0.833046	0.685819	15.1969	1.69057e-07	1.81354e-07	1.94898e-07	4.30878e-07	2.88625e-07	2.09549e-07	0.011436	0.011332	0.0160996	44.7385	11355.2	11459.3	16132.4	-45.2615	0.0000000E+000	0.0000000E+000	0.0000000E+000	45.2615	0.0000000E+000	0.0000000E+000	0.0000000E+000	-45.2615	0.0000000E+000	0.0000000E+000	0.0000000E+000	-44.7385	0.0000000E+000	0.0000000E+000	0.0000000E+000	44.7385	1.00917	45.2615	-6.7769e-07
79.6177	70.2154	42.4669	82.0588	-31.1659	909.345	0.43973	-0.00246452	47.0717	12.607	3	39	0.00491482	5.98939e-05	0	-0.00146469	1.3546	0.684837	26.4666	3.0849e-05	2.39388e-05	1.15526e-05	4.22408e-05	2.36206e-05	1.14749e-05	1.04225	0.531584	20.3983	3.82721e-07	2.31537e-07	1.02822e-07	2.51219e-07	1.86542e-07	2.42032e-07	0.0104276	0.00630668	0.0121864	31.1659	12607	20844.6	24360.5	-58.8341	0.0000000E+000	0.0000000E+000	0.0000000E+000	58.8341	0.0000000E+000	0.0000000E+000	0.0000000E+000	-58.8341	0.0000000E+000	0.0000000E+000	0.0000000E+000	-31.1659	0.0000000E+000	0.0000000E+000	0.0000000E+000	31.1659	1.65341	58.8341	-6.98696e-07
39.8851	88.101	34.9368	94.7754	-21.631	912.561	0.439745	-0.002198	114.216	15.5203	3	39	0.00489931	5.16939e-05	0	-0.0014667	1.57615	0.975201	26.9735	2.63408e-05	2.55414e-05	2.97639e-05	2.02866e-05	3.67181e-05	3.43814e-05	1.44294	0.820989	24.7349	3.78912e-07	2.43579e-07	1.44279e-07	2.24587e-07	2.70635e-07	3.25411e-07	0.00980822	0.00388948	0.0105513	21.631	15520.3	39138.1	42103.1	-68.369	0.0000000E+000	0.0000000E+000	0.0000000E+000	68.369	0.0000000E+000	0.0000000E+000	0.0000000E+000	-68.369	0.0000000E+000	0.0000000E+000	0.0000000E+000	-21.631	0.0000000E+000	0.0000000E+000	0.0000000E+000	21.631	2.52173	68.369	-7.07355e-07
19.9808	101.368	28.9586	105.423	-15.9435	915.738	0.439782	-0.00239165	275.061	20.7546	3	39	0.00492996	4.67636e-05	0	-0.00146872	1.85774	1.31299	26.2131	1.66929e-05	2.04331e-05	3.10417e-05	5.72539e-05	4.58923e-05	1.7644e-05	1.63584	0.787059	26.0472	2.20516e-07	4.40736e-07	2.15076e-07	3.54731e-07	1.98217e-07	1.78128e-07	0.00912071	0.00260559	0.00948559	15.9435	20754.6	72650	75556.4	-74.0565	0.0000000E+000	0.0000000E+000	0.0000000E+000	74.0565	0.0000000E+000	0.0000000E+000	0.0000000E+000	-74.0565	0.0000000E+000	0.0000000E+000	0.0000000E+000	-15.9435	0.0000000E+000	0.0000000E+000	0.0000000E+000	15.9435	3.50044	74.0565	-5.75024e-07
10.016	110.187	28.7647	113.88	-14.6307	919.006	0.439743	-0.00208394	552.413	35.2444	3	39	0.00492087	4.32111e-05	0	-0.00147062	1.53243	0.737247	25.76	3.10952e-05	3.01941e-05	2.98683e-05	3.04238e-05	2.94173e-05	1.91979e-05	1.59511	0.538343	27.7307	2.41165e-07	2.83909e-07	1.90131e-07	3.98424e-07	2.39297e-07	2.29546e-07	0.00849644	0.00221802	0.00878118	14.6307	35244.4	135009	139533	-75.3693	0.0000000E+000	0.0000000E+000	0.0000000E+000	75.3693	0.0000000E+000	0.0000000E+000	0.0000000E+000	-75.3693	0.0000000E+000	0.0000000E+000	0.0000000E+000	-14.6307	0.0000000E+000	0.0000000E+000	0.0000000E+000	14.6307	3.83064	75.3693	-6.97271e-07
5.01766	120.058	31.8012	124.199	-14.8359	923.516	0.439734	-0.00201246	997.412	65.3927	3	40	0.00490382	3.94837e-05	0	-0.00147333	1.29969	1.08166	22.6971	3.08124e-05	2.52715e-05	2.23006e-05	1.91864e-05	1.68133e-05	3.44661e-05	0.270939	0.207589	3.27523	5.75851e-08	5.54778e-08	3.35624e-08	4.50677e-08	1.99377e-08	2.91988e-08	0.0077832	0.00206163	0.00805162	14.8359	65392.7	246875	255389	-75.1641	0.0000000E+000	0.0000000E+000	0.0000000E+000	75.1641	0.0000000E+000	0.0000000E+000	0.0000000E+000	-75.1641	0.0000000E+000	0.0000000E+000	0.0000000E+000	-14.8359	0.0000000E+000	0.0000000E+000	0.0000000E+000	14.8359	3.77527	75.1641	-8.89071e-07
2.51368	132.65	38.8628	138.225	-16.3292	930.543	0.439743	-0.00201835	1629.21	128.786	3	40	0.00489805	3.54352e-05	0	-0.00147737	0.831783	0.402268	14.0371	1.79232e-05	1.44117e-05	1.52773e-05	1.45108e-05	1.5585e-05	1.0251e-05	0.299351	0.194104	2.33633	8.02992e-08	3.19534e-08	2.68367e-08	4.26283e-08	2.0534e-08	1.58425e-08	0.00694274	0.00203404	0.00723456	16.3292	128786	439584	458061	-73.6708	0.0000000E+000	0.0000000E+000	0.0000000E+000	73.6708	0.0000000E+000	0.0000000E+000	0.0000000E+000	-73.6708	0.0000000E+000	0.0000000E+000	0.0000000E+000	-16.3292	0.0000000E+000	0.0000000E+000	0.0000000E+000	16.3292	3.41328	73.6708	-1.53947e-06
1.25968	149.935	51.6366	158.578	-19.0033	943.38	0.439748	-0.00206302	2446.83	259.438	3	40	0.00490599	3.09374e-05	0	-0.00148438	0.550511	0.274714	10.2145	3.30393e-06	6.69973e-06	7.4933e-06	1.13539e-05	1.27941e-05	1.58158e-05	0.266301	0.0930917	1.99886	6.357e-08	2.90053e-08	1.02279e-08	3.09196e-08	1.52495e-08	1.94962e-08	0.00596237	0.0020534	0.00630605	19.0033	259438	753320	796743	-70.9967	0.0000000E+000	0.0000000E+000	0.0000000E+000	70.9967	0.0000000E+000	0.0000000E+000	0.0000000E+000	-70.9967	0.0000000E+000	0.0000000E+000	0.0000000E+000	-19.0033	0.0000000E+000	0.0000000E+000	0.0000000E+000	19.0033	2.90366	70.9967	-3.83781e-06
0.631645	175.796	69.478	189.028	-21.5649	969.883	0.439743	-0.00203671	3626.6	489.94	3	41	0.00490149	2.593e-05	0	-0.00149786	0.461423	0.219521	8.0599	7.56721e-06	1.2808e-05	7.31619e-06	5.8002e-06	7.52157e-06	7.96638e-06	0.264894	0.149974	0.426081	6.03959e-08	1.66285e-08	9.0003e-09	2.34491e-08	4.3557e-09	3.51769e-09	0.00491992	0.00194444	0.00529022	21.5649	489940	1.23967e+06	1.33297e+06	-68.4351	0.0000000E+000	0.0000000E+000	0.0000000E+000	68.4351	0.0000000E+000	0.0000000E+000	0.0000000E+000	-68.4351	0.0000000E+000	0.0000000E+000	0.0000000E+000	-21.5649	0.0000000E+000	0.0000000E+000	0.0000000E+000	21.5649	2.53025	68.4351	-2.81043e-06
0.316193	221.043	91.5541	239.254	-22.4989	1017.65	0.439739	-0.0020601	5497.81	805.06	3	41	0.00490732	2.05109e-05	0	-0.00152837	0.299374	0.171632	6.13794	4.46732e-06	4.21068e-06	6.90658e-06	4.60575e-06	7.11496e-06	5.83222e-06	0.359345	0.189738	0.467695	6.3133e-08	1.82287e-08	8.39213e-09	2.5025e-08	5.91177e-09	6.30537e-09	0.00386154	0.00159941	0.00417966	22.4989	805060	1.94369e+06	2.10382e+06	-67.5011	0.0000000E+000	0.0000000E+000	0.0000000E+000	67.5011	0.0000000E+000	0.0000000E+000	0.0000000E+000	-67.5011	0.0000000E+000	0.0000000E+000	0.0000000E+000	-22.4989	0.0000000E+000	0.0000000E+000	0.0000000E+000	22.4989	2.41435	67.5011	-1.0445e-05
0.158419	288.014	91.2957	302.137	-17.5878	1112.03	0.439742	-0.00203525	11004.3	1004.75	3	41	0.0049007	1.62201e-05	0	-0.00157854	0.222658	0.18078	4.0292	5.33604e-06	4.82085e-06	2.83025e-06	3.07217e-06	4.77455e-06	3.24078e-06	0.422646	0.130265	0.495297	6.31502e-08	1.43493e-08	7.65002e-09	2.02482e-08	1.62206e-09	3.35017e-09	0.00315504	0.0010001	0.00330976	17.5878	1.00475e+06	3.16971e+06	3.32514e+06	-72.4122	0.0000000E+000	0.0000000E+000	0.0000000E+000	72.4122	0.0000000E+000	0.0000000E+000	0.0000000E+000	-72.4122	0.0000000E+000	0.0000000E+000	0.0000000E+000	-17.5878	0.0000000E+000	0.0000000E+000	0.0000000E+000	17.5878	3.15473	72.4122	-2.39884e-05
0.0999518	328.903	73.4343	337.002	-12.586	1222.23	0.439737	-0.00205022	21683.6	1029.59	3	41	0.00490113	1.45433e-05	0	-0.00165012	0.238591	0.212855	5.593	5.46001e-06	5.2823e-06	5.74105e-06	2.84597e-06	2.77325e-06	4.69391e-06	0.382003	0.203872	0.435934	5.2557e-08	7.95557e-09	4.21142e-09	1.49937e-08	1.59962e-09	3.00017e-09	0.00289604	0.000646599	0.00296735	12.586	1.02959e+06	4.61141e+06	4.72496e+06	-77.414	0.0000000E+000	0.0000000E+000	0.0000000E+000	77.414	0.0000000E+000	0.0000000E+000	0.0000000E+000	-77.414	0.0000000E+000	0.0000000E+000	0.0000000E+000	-12.586	0.0000000E+000	0.0000000E+000	0.0000000E+000	12.586	4.47888	77.414	-3.91642e-05