File: Python/Data/GoldElectrode/240319/Gold/240319-CVEIS_PostActivation-Fe2Fe3_5mM-HCl1M-0RPM-Ag_AgCl_BLF8-Au_RDE_02_PEIS_C15.mpt
EC-Lab ASCII FILE
Nb header lines : 66

Potentio Electrochemical Impedance Spectroscopy

Run on channel : 15 (SN 19485)
User :
Electrode connection : standard
Potential control : Ewe
Ewe ctrl range : min = -1.00 V, max = 1.00 V
Ewe,I filtering : <None>
Safety Limits :
	Do not start on E overload
Channel : Floating
Acquisition started on : 03/19/2024 15:57:04.315
Loaded Setting File :  NONE
Saved on :
	File : 240319-CVEIS_PostActivation-Fe2Fe3_5mM-HCl1M-0RPM-Ag_AgCl_BLF8-Au_RDE_02_PEIS_C15.mpr
	Directory : C:\Data\mathias\GoldElectrode\
	Host : 192.168.0.1
Device : VMP-300 (SN 0826)
Address : USB
EC-Lab for windows v11.52 (software)
Internet server v11.52 (firmware)
Command interpretor v11.52 (firmware)
Electrode material :
Initial state :
Electrolyte :
Comments :
Cable : special
Electrode surface area : 0.001 cm²
Characteristic mass : 0.001 g
Equivalent Weight : 0.000 g/eq.
Density : 0.000 g/cm3
Volume (V) : 0.001 cm³
Record EIS quality indicators
Cycle Definition : Charge/Discharge alternance
Mode                Single sine
E (V)               0.0000
vs.                 Eoc
tE (h:m:s)          0:01:0.0000
record              0
dI                  0.000
unit dI             mA
dt (s)              0.000
fi                  400.000
unit fi             kHz
ff                  100.000
unit ff             mHz
Nd                  10
Points              per decade
spacing             Logarithmic
Va (mV)             5.0
pw                  0.10
Na                  3
corr                0
E range min (V)     -1.000
E range max (V)     1.000
I Range             Auto
Bandwidth           8
nc cycles           2
goto Ns'            0
nr cycles           0
inc. cycle          1

freq/Hz	Re(Z)/Ohm	-Im(Z)/Ohm	|Z|/Ohm	Phase(Z)/deg	time/s	<Ewe>/V	<I>/mA	Cs/µF	Cp/µF	cycle number	I Range	|Ewe|/V	|I|/A	Ns	(Q-Qo)/mA.h	THD Ewe/%	NSD Ewe/%	NSR Ewe/%	|Ewe h2|/V	|Ewe h3|/V	|Ewe h4|/V	|Ewe h5|/V	|Ewe h6|/V	|Ewe h7|/V	THD I/%	NSD I/%	NSR I/%	|I h2|/A	|I h3|/A	|I h4|/A	|I h5|/A	|I h6|/A	|I h7|/A	Re(Y)/Ohm-1	Im(Y)/Ohm-1	|Y|/Ohm-1	Phase(Y)/deg	Re(C)/nF	Im(C)/nF	|C|/nF	Phase(C)/deg	Re(M)	Im(M)	|M|	Phase(M)/deg	Re(Permittivity)	Im(Permittivity)	|Permittivity|	Phase(Permittivity)/deg	Re(Resistivity)/Ohm.cm	Im(Resistivity)/Ohm.cm	|Resistivity|/Ohm.cm	Phase(Resistivity)/deg	Re(Conductivity)/mS/cm	Im(Conductivity)/mS/cm	|Conductivity|/mS/cm	Phase(Conductivity)/deg	Tan(Delta)	Loss Angle(Delta)/deg	dq/mA.h
399996	3.37575	1.41151	3.65897	-22.6914	203.374	0.459561	-0.0130506	0.28189	0.04195	1	38	0.00494287	0.00135089	0	7.73631e-05	-1	-1	-1	0	0	0	0	0	0	-1	-1	-1	0	0	0	0	0	0	0.252147	0.105431	0.273301	22.6914	41.95	100.327	108.744	-67.3086	0.0000000E+000	0.0000000E+000	0.0000000E+000	67.3086	0.0000000E+000	0.0000000E+000	0.0000000E+000	-67.3086	0.0000000E+000	0.0000000E+000	0.0000000E+000	-22.6914	0.0000000E+000	0.0000000E+000	0.0000000E+000	22.6914	2.39158	67.3086	7.73631e-05
200434	3.24644	0.797227	3.34289	-13.7971	206.815	0.459587	-0.00299612	0.996015	0.0566481	1	38	0.00516052	0.00154373	0	7.62529e-05	-1	-1	-1	0	0	0	0	0	0	-1	-1	-1	0	0	0	0	0	0	0.290511	0.0713407	0.299142	13.7971	56.6481	230.68	237.534	-76.2029	0.0000000E+000	0.0000000E+000	0.0000000E+000	76.2029	0.0000000E+000	0.0000000E+000	0.0000000E+000	-76.2029	0.0000000E+000	0.0000000E+000	0.0000000E+000	-13.7971	0.0000000E+000	0.0000000E+000	0.0000000E+000	13.7971	4.07216	76.2029	-1.56391e-06
100431	3.26606	0.636961	3.32759	-11.0356	210.256	0.459593	-0.00350443	2.48795	0.0911608	1	38	0.00513883	0.00154431	0	7.02794e-05	1.64634	0.441507	29.037	3.25864e-05	2.50188e-05	5.06979e-05	3.56027e-05	2.7234e-05	1.85958e-05	0.141724	0.0769552	2.08853	5.10138e-07	1.37759e-06	7.67386e-07	8.3673e-07	7.42887e-07	6.48057e-07	0.294961	0.0575246	0.300518	11.0356	91.1608	467.433	476.239	-78.9644	0.0000000E+000	0.0000000E+000	0.0000000E+000	78.9644	0.0000000E+000	0.0000000E+000	0.0000000E+000	-78.9644	0.0000000E+000	0.0000000E+000	0.0000000E+000	-11.0356	0.0000000E+000	0.0000000E+000	0.0000000E+000	11.0356	5.12756	78.9644	-6.53426e-08
50326.6	3.44587	0.68764	3.51381	-11.2854	213.698	0.459601	-0.00237238	4.59898	0.176127	1	38	0.0051799	0.00147415	0	6.31424e-05	1.16748	0.721964	28.6251	3.40731e-05	1.01193e-05	1.8543e-05	1.17589e-05	3.16005e-05	2.54503e-05	0.117504	0.0571217	2.24702	6.45722e-07	7.81206e-07	8.43567e-07	3.01428e-07	3.63422e-07	7.73533e-07	0.279088	0.0556934	0.284591	11.2854	176.127	882.601	900.003	-78.7146	0.0000000E+000	0.0000000E+000	0.0000000E+000	78.7146	0.0000000E+000	0.0000000E+000	0.0000000E+000	-78.7146	0.0000000E+000	0.0000000E+000	0.0000000E+000	-11.2854	0.0000000E+000	0.0000000E+000	0.0000000E+000	11.2854	5.01116	78.7146	-6.2535e-07
25219	3.67946	0.758328	3.75679	-11.6455	217.14	0.459577	-0.00245244	8.32215	0.33909	1	38	0.00516136	0.00137387	0	6.15343e-05	1.37792	0.657431	29.0373	2.53956e-05	3.22512e-05	3.40341e-05	2.3055e-05	2.62885e-05	2.0921e-05	0.11547	0.0659138	2.33354	8.55455e-07	5.28279e-07	6.23315e-07	6.1882e-07	5.37835e-07	3.04419e-07	0.260705	0.0537307	0.266185	11.6455	339.09	1645.29	1679.87	-78.3545	0.0000000E+000	0.0000000E+000	0.0000000E+000	78.3545	0.0000000E+000	0.0000000E+000	0.0000000E+000	-78.3545	0.0000000E+000	0.0000000E+000	0.0000000E+000	-11.6455	0.0000000E+000	0.0000000E+000	0.0000000E+000	11.6455	4.85207	78.3545	-1.10447e-06
12637.3	3.88314	0.971099	4.00272	-14.0406	220.582	0.459542	-0.00193669	12.9689	0.763339	1	38	0.00512644	0.00128074	0	5.99828e-05	2.10398	0.914979	30.0163	3.74348e-05	3.32541e-05	4.57796e-05	4.1316e-05	2.89359e-05	4.09066e-05	0.180542	0.0777581	2.55759	7.28274e-07	1.08714e-06	9.16206e-07	7.50224e-07	4.25524e-07	9.77033e-07	0.242366	0.0606111	0.24983	14.0406	763.339	3052.37	3146.37	-75.9594	0.0000000E+000	0.0000000E+000	0.0000000E+000	75.9594	0.0000000E+000	0.0000000E+000	0.0000000E+000	-75.9594	0.0000000E+000	0.0000000E+000	0.0000000E+000	-14.0406	0.0000000E+000	0.0000000E+000	0.0000000E+000	14.0406	3.9987	75.9594	2.07117e-06
6332.63	4.08961	1.44161	4.33626	-19.4179	224.142	0.459455	-0.00135763	17.4336	1.92688	1	38	0.00514094	0.00118557	0	6.11837e-05	1.88276	0.919944	29.2339	3.7915e-05	4.03393e-05	4.27655e-05	3.83159e-05	2.6039e-05	3.93728e-05	0.17715	0.0727262	2.74927	1.04025e-06	6.96875e-07	6.11572e-07	6.04527e-07	6.65096e-07	1.03835e-06	0.217496	0.0766687	0.230613	19.4179	1926.88	5466.22	5795.9	-70.5821	0.0000000E+000	0.0000000E+000	0.0000000E+000	70.5821	0.0000000E+000	0.0000000E+000	0.0000000E+000	-70.5821	0.0000000E+000	0.0000000E+000	0.0000000E+000	-19.4179	0.0000000E+000	0.0000000E+000	0.0000000E+000	19.4179	2.83683	70.5821	-1.11927e-07
3171.96	4.42595	2.50322	5.08479	-29.4916	227.917	0.459471	-0.00152893	20.0444	4.85786	1	38	0.00536605	0.00105531	0	5.72275e-05	1.35563	0.744804	28.3907	2.74423e-05	1.44038e-05	1.68277e-05	3.73009e-05	2.3834e-05	3.0832e-05	0.194168	0.167189	3.03619	1.20688e-06	5.54563e-07	8.95142e-07	6.64759e-07	5.04235e-07	7.73232e-07	0.171183	0.0968172	0.196665	29.4916	4857.86	8589.19	9867.78	-60.5084	0.0000000E+000	0.0000000E+000	0.0000000E+000	60.5084	0.0000000E+000	0.0000000E+000	0.0000000E+000	-60.5084	0.0000000E+000	0.0000000E+000	0.0000000E+000	-29.4916	0.0000000E+000	0.0000000E+000	0.0000000E+000	29.4916	1.7681	60.5084	-1.37244e-06
1589.49	5.14551	4.3467	6.73573	-40.1896	231.235	0.459454	-0.00145632	23.0357	9.59294	1	38	0.00541002	0.000803181	0	5.61151e-05	1.56934	1.1678	28.0388	2.03467e-05	3.00729e-05	3.09987e-05	3.72458e-05	3.47562e-05	3.4731e-05	0.401043	0.128529	4.03905	2.04667e-06	1.3261e-06	1.06259e-06	1.27483e-06	9.18372e-07	4.80804e-07	0.113412	0.0958054	0.148462	40.1896	9592.94	11355.9	14865.4	-49.8104	0.0000000E+000	0.0000000E+000	0.0000000E+000	49.8104	0.0000000E+000	0.0000000E+000	0.0000000E+000	-49.8104	0.0000000E+000	0.0000000E+000	0.0000000E+000	-40.1896	0.0000000E+000	0.0000000E+000	0.0000000E+000	40.1896	1.18378	49.8104	-4.69808e-07
796.787	6.89043	7.57475	10.2399	-47.7085	234.555	0.45947	-0.00202794	26.3699	14.4297	1	38	0.00524709	0.000512418	0	5.55016e-05	1.56058	0.784846	28.0787	2.53069e-05	4.14589e-05	4.04187e-05	1.80057e-05	3.47846e-05	2.67954e-05	0.624361	0.17062	6.31355	2.28062e-06	1.40422e-06	4.7755e-07	1.05866e-06	9.35908e-07	6.21668e-07	0.0657139	0.0722403	0.0976575	47.7085	14429.7	13126.1	19506.7	-42.2915	0.0000000E+000	0.0000000E+000	0.0000000E+000	42.2915	0.0000000E+000	0.0000000E+000	0.0000000E+000	-42.2915	0.0000000E+000	0.0000000E+000	0.0000000E+000	-47.7085	0.0000000E+000	0.0000000E+000	0.0000000E+000	47.7085	0.909657	42.2915	-4.22387e-07
399.106	10.7155	11.727	15.8854	-47.5805	237.879	0.4595	0.00029947	34.0052	18.5321	1	38	0.00511291	0.000321862	0	5.53104e-05	1.41199	1.03854	29.8299	1.48177e-05	1.91472e-05	3.53662e-05	1.45675e-05	4.11654e-05	3.17027e-05	0.621543	0.337692	10.2671	9.0737e-07	7.97425e-07	6.20383e-07	1.02998e-06	4.36474e-07	6.40045e-07	0.0424638	0.046472	0.062951	47.5805	18532.1	16933.7	25103.5	-42.4195	0.0000000E+000	0.0000000E+000	0.0000000E+000	42.4195	0.0000000E+000	0.0000000E+000	0.0000000E+000	-42.4195	0.0000000E+000	0.0000000E+000	0.0000000E+000	-47.5805	0.0000000E+000	0.0000000E+000	0.0000000E+000	47.5805	0.913749	42.4195	-1.51833e-07
199.936	17.1157	15.7236	23.2417	-42.5726	241.192	0.459514	0.000182164	50.6264	23.1709	1	38	0.00505651	0.000217562	0	5.55542e-05	1.42365	0.804071	29.4191	1.91144e-05	4.74333e-05	2.41629e-05	2.85301e-05	1.94532e-05	1.84137e-05	0.907389	0.488369	15.2346	8.57484e-07	1.04197e-06	6.75153e-07	6.46026e-07	1.36301e-07	7.88288e-07	0.0316853	0.0291081	0.0430261	42.5726	23170.9	25222.4	34250	-47.4274	0.0000000E+000	0.0000000E+000	0.0000000E+000	47.4274	0.0000000E+000	0.0000000E+000	0.0000000E+000	-47.4274	0.0000000E+000	0.0000000E+000	0.0000000E+000	-42.5726	0.0000000E+000	0.0000000E+000	0.0000000E+000	42.5726	1.08854	47.4274	3.41134e-08
100.224	25.4753	18.7124	31.6093	-36.2985	244.761	0.459508	-0.000179137	84.8625	29.7405	1	39	0.00509773	0.000161273	0	5.56228e-05	1.61813	0.569119	30.8073	3.07093e-05	2.04958e-05	2.99061e-05	3.28842e-05	4.22678e-05	2.86931e-05	0.721663	0.292723	10.1959	5.47654e-07	4.53779e-07	3.32518e-07	5.82759e-07	4.03471e-07	3.13576e-07	0.0254971	0.0187284	0.0316363	36.2985	29740.5	40489	50238	-53.7015	0.0000000E+000	0.0000000E+000	0.0000000E+000	53.7015	0.0000000E+000	0.0000000E+000	0.0000000E+000	-53.7015	0.0000000E+000	0.0000000E+000	0.0000000E+000	-36.2985	0.0000000E+000	0.0000000E+000	0.0000000E+000	36.2985	1.36141	53.7015	-9.09236e-08
50.2089	34.2352	20.4217	39.8635	-30.8166	247.99	0.459471	0.000379627	155.22	40.7363	1	39	0.00506611	0.000127086	0	5.57461e-05	1.7317	1.13584	29.3661	2.61912e-05	3.9451e-05	4.38512e-05	3.15134e-05	2.26828e-05	3.45232e-05	0.709426	0.337507	12.508	3.19178e-07	2.88632e-07	3.83764e-07	4.32565e-07	3.45846e-07	3.25635e-07	0.0215438	0.0128511	0.0250856	30.8166	40736.3	68290.8	79517.8	-59.1834	0.0000000E+000	0.0000000E+000	0.0000000E+000	59.1834	0.0000000E+000	0.0000000E+000	0.0000000E+000	-59.1834	0.0000000E+000	0.0000000E+000	0.0000000E+000	-30.8166	0.0000000E+000	0.0000000E+000	0.0000000E+000	30.8166	1.67641	59.1834	1.47236e-07
25.1691	42.8879	23.7219	49.0112	-28.9476	251.166	0.459482	4.11617e-05	266.565	62.4469	1	39	0.00507614	0.000103571	0	5.59691e-05	1.58731	0.539233	30.135	2.55e-05	2.98845e-05	2.3997e-05	3.79209e-05	2.96077e-05	3.01418e-05	0.795841	0.363538	15.3403	3.00122e-07	2.18896e-07	1.23392e-07	4.65703e-07	3.054e-07	3.56806e-07	0.0178543	0.00987549	0.0204035	28.9476	62446.9	112901	129020	-61.0524	0.0000000E+000	0.0000000E+000	0.0000000E+000	61.0524	0.0000000E+000	0.0000000E+000	0.0000000E+000	-61.0524	0.0000000E+000	0.0000000E+000	0.0000000E+000	-28.9476	0.0000000E+000	0.0000000E+000	0.0000000E+000	28.9476	1.80794	61.0524	5.63159e-08
12.6144	52.7126	28.3493	59.8523	-28.2717	254.442	0.459497	0.000338716	445.055	99.8471	1	39	0.00506314	8.45939e-05	0	5.57056e-05	1.1823	0.611699	21.0976	3.03873e-05	2.12603e-05	1.35143e-05	2.41886e-05	1.9911e-05	2.27483e-05	0.676689	0.416716	13.4295	3.42144e-07	1.49678e-07	1.53422e-07	1.93135e-07	2.46131e-07	1.91573e-07	0.0147148	0.00791372	0.0167078	28.2717	99847.1	185656	210802	-61.7283	0.0000000E+000	0.0000000E+000	0.0000000E+000	61.7283	0.0000000E+000	0.0000000E+000	0.0000000E+000	-61.7283	0.0000000E+000	0.0000000E+000	0.0000000E+000	-28.2717	0.0000000E+000	0.0000000E+000	0.0000000E+000	28.2717	1.8594	61.7283	-5.33108e-07
6.31569	64.5968	35.0304	73.4839	-28.4707	258.091	0.459484	0.000212164	719.373	163.479	1	39	0.00505986	6.88567e-05	0	5.55099e-05	1.17983	0.720832	21.4994	1.3114e-05	2.79821e-05	3.17341e-05	3.1966e-05	7.0124e-06	1.3455e-05	0.871267	0.650113	16.2592	2.77509e-07	2.40817e-07	2.54478e-07	2.47348e-07	1.24953e-07	1.67695e-07	0.0119626	0.00648726	0.0136084	28.4707	163479	301458	342932	-61.5293	0.0000000E+000	0.0000000E+000	0.0000000E+000	61.5293	0.0000000E+000	0.0000000E+000	0.0000000E+000	-61.5293	0.0000000E+000	0.0000000E+000	0.0000000E+000	-28.4707	0.0000000E+000	0.0000000E+000	0.0000000E+000	28.4707	1.84402	61.5293	-6.13187e-07
3.16616	79.2261	45.3472	91.286	-29.7858	264.488	0.459509	5.53204e-06	1108.5	273.545	1	40	0.00506479	5.54827e-05	0	5.58503e-05	1.1955	0.612813	22.8201	2.39536e-05	2.62382e-05	1.39518e-05	2.72211e-05	1.82793e-05	2.73391e-05	0.328096	0.270746	2.6432	1.33134e-07	4.7423e-08	2.89197e-08	9.3539e-08	1.82352e-08	4.77843e-08	0.00950735	0.00544179	0.0109546	29.7858	273545	477911	550659	-60.2142	0.0000000E+000	0.0000000E+000	0.0000000E+000	60.2142	0.0000000E+000	0.0000000E+000	0.0000000E+000	-60.2142	0.0000000E+000	0.0000000E+000	0.0000000E+000	-29.7858	0.0000000E+000	0.0000000E+000	0.0000000E+000	29.7858	1.7471	60.2142	8.58929e-07
1.5871	98.1894	59.6287	114.877	-31.2696	274.92	0.45947	4.7061e-05	1681.75	453.111	1	40	0.00506796	4.41163e-05	0	5.48802e-05	0.808763	0.627538	15.4859	2.29386e-05	1.43587e-05	9.88292e-06	7.19608e-06	7.6222e-06	2.0802e-05	0.304241	0.123713	2.30422	1.09505e-07	4.91604e-08	2.73038e-08	4.1359e-08	1.25781e-08	1.54399e-08	0.00744043	0.00451844	0.00870496	31.2696	453111	746128	872936	-58.7304	0.0000000E+000	0.0000000E+000	0.0000000E+000	58.7304	0.0000000E+000	0.0000000E+000	0.0000000E+000	-58.7304	0.0000000E+000	0.0000000E+000	0.0000000E+000	-31.2696	0.0000000E+000	0.0000000E+000	0.0000000E+000	31.2696	1.64668	58.7304	-2.75178e-07
0.79456	123.186	81.0746	147.471	-33.3509	294.594	0.459481	0.000117832	2470.64	746.73	1	40	0.00507126	3.43881e-05	0	5.63848e-05	0.588977	0.39688	10.721	9.04254e-06	1.87136e-05	1.341e-05	8.51058e-06	5.62906e-06	9.00863e-06	0.296334	0.265781	2.13215	7.41398e-08	3.86894e-08	3.0607e-08	3.2324e-08	1.30572e-08	9.72655e-09	0.00566428	0.00372795	0.00678098	33.3509	746730	1.13459e+06	1.35827e+06	-56.6491	0.0000000E+000	0.0000000E+000	0.0000000E+000	56.6491	0.0000000E+000	0.0000000E+000	0.0000000E+000	-56.6491	0.0000000E+000	0.0000000E+000	0.0000000E+000	-33.3509	0.0000000E+000	0.0000000E+000	0.0000000E+000	33.3509	1.51941	56.6491	1.68749e-06
0.398211	156.51	110.444	191.555	-35.2094	335.941	0.459479	0.000121488	3618.79	1202.99	1	41	0.0050522	2.63746e-05	0	5.53749e-05	0.57789	0.390427	10.838	1.42276e-05	8.32149e-06	1.02998e-05	1.3941e-05	9.03747e-06	1.18385e-05	0.328924	0.34711	0.812194	6.54633e-08	2.01802e-08	2.34296e-08	2.86285e-08	1.35888e-08	1.70974e-08	0.00426535	0.00300992	0.00522042	35.2094	1.20299e+06	1.70475e+06	2.08647e+06	-54.7906	0.0000000E+000	0.0000000E+000	0.0000000E+000	54.7906	0.0000000E+000	0.0000000E+000	0.0000000E+000	-54.7906	0.0000000E+000	0.0000000E+000	0.0000000E+000	-35.2094	0.0000000E+000	0.0000000E+000	0.0000000E+000	35.2094	1.4171	54.7906	5.94946e-07
0.199573	203.158	153.977	254.916	-37.159	411.093	0.459478	0.000172981	5179.2	1889.63	1	41	0.00506241	1.98591e-05	0	6.11698e-05	0.283173	0.119632	5.54971	3.58721e-06	5.12492e-06	4.52232e-06	6.61918e-06	5.3891e-06	6.18527e-06	0.314794	0.242057	0.717849	4.62636e-08	1.68376e-08	1.00266e-08	3.15179e-08	8.03511e-09	9.05746e-09	0.00312637	0.00236952	0.00392286	37.159	1.88963e+06	2.4932e+06	3.12838e+06	-52.841	0.0000000E+000	0.0000000E+000	0.0000000E+000	52.841	0.0000000E+000	0.0000000E+000	0.0000000E+000	-52.841	0.0000000E+000	0.0000000E+000	0.0000000E+000	-37.159	0.0000000E+000	0.0000000E+000	0.0000000E+000	37.159	1.31941	52.841	-1.43722e-06
0.0999518	268.758	215.065	344.215	-38.6674	560.149	0.459497	0.000248293	7403.9	2890.28	1	41	0.00506175	1.47052e-05	0	6.60577e-05	0.22901	0.09111	4.47423	5.39929e-06	4.8101e-06	4.75927e-06	5.21029e-06	1.1194e-06	3.10314e-06	0.391973	0.268519	0.741434	4.78624e-08	1.16931e-08	9.0249e-09	2.56573e-08	7.24136e-09	6.80135e-09	0.00226831	0.00181514	0.00290516	38.6674	2.89028e+06	3.61187e+06	4.62594e+06	-51.3326	0.0000000E+000	0.0000000E+000	0.0000000E+000	51.3326	0.0000000E+000	0.0000000E+000	0.0000000E+000	-51.3326	0.0000000E+000	0.0000000E+000	0.0000000E+000	-38.6674	0.0000000E+000	0.0000000E+000	0.0000000E+000	38.6674	1.24966	51.3326	6.53538e-06
252347	3.26531	0.934905	3.39651	-15.9772	565.175	0.459573	-0.000689188	0.674611	0.0511119	2	38	0.00513725	0.00151251	0	5.9926e-05	-1	-1	-1	0	0	0	0	0	0	-1	-1	-1	0	0	0	0	0	0	0.283047	0.0810403	0.29442	15.9772	51.1119	178.517	185.69	-74.0228	0.0000000E+000	0.0000000E+000	0.0000000E+000	74.0228	0.0000000E+000	0.0000000E+000	0.0000000E+000	-74.0228	0.0000000E+000	0.0000000E+000	0.0000000E+000	-15.9772	0.0000000E+000	0.0000000E+000	0.0000000E+000	15.9772	3.49267	74.0228	-3.35473e-06
126447	3.26119	0.668983	3.3291	-11.5925	568.615	0.459615	-0.000823241	1.88146	0.0759752	2	38	0.00519596	0.00156077	0	5.71944e-05	-1	-1	-1	0	0	0	0	0	0	-1	-1	-1	0	0	0	0	0	0	0.294254	0.0603617	0.300381	11.5925	75.9752	370.367	378.08	-78.4075	0.0000000E+000	0.0000000E+000	0.0000000E+000	78.4075	0.0000000E+000	0.0000000E+000	0.0000000E+000	-78.4075	0.0000000E+000	0.0000000E+000	0.0000000E+000	-11.5925	0.0000000E+000	0.0000000E+000	0.0000000E+000	11.5925	4.87485	78.4075	5.23915e-07
63362.9	3.38513	0.66424	3.44968	-11.1017	572.055	0.459606	-0.00154754	3.78146	0.140201	2	38	0.00515561	0.00149452	0	5.79392e-05	1.04196	0.739719	24.8517	2.19903e-05	2.42032e-05	7.6748e-06	1.89146e-05	2.64756e-05	2.00389e-05	0.143478	0.0813977	2.00489	1.10713e-06	7.38405e-07	8.38035e-07	6.88424e-07	6.78323e-07	9.41242e-07	0.284457	0.055817	0.289882	11.1017	140.201	714.5	728.125	-78.8983	0.0000000E+000	0.0000000E+000	0.0000000E+000	78.8983	0.0000000E+000	0.0000000E+000	0.0000000E+000	-78.8983	0.0000000E+000	0.0000000E+000	0.0000000E+000	-11.1017	0.0000000E+000	0.0000000E+000	0.0000000E+000	11.1017	5.09624	78.8983	1.80625e-06
31751	3.59596	0.743007	3.67192	-11.6743	575.496	0.459604	-0.0011193	6.74636	0.276229	2	38	0.00514006	0.00139983	0	5.04585e-05	1.30992	0.776826	24.6132	1.88272e-05	2.79484e-05	3.00496e-05	1.65023e-05	3.65813e-05	1.87968e-05	0.140671	0.102649	2.14182	9.62556e-07	9.32555e-07	5.10335e-07	5.37632e-07	8.38389e-07	5.83061e-07	0.266704	0.055107	0.272337	11.6743	276.229	1336.88	1365.12	-78.3257	0.0000000E+000	0.0000000E+000	0.0000000E+000	78.3257	0.0000000E+000	0.0000000E+000	0.0000000E+000	-78.3257	0.0000000E+000	0.0000000E+000	0.0000000E+000	-11.6743	0.0000000E+000	0.0000000E+000	0.0000000E+000	11.6743	4.83974	78.3257	-3.22753e-06
15912.6	3.82632	0.914662	3.93412	-13.444	578.937	0.459578	-0.00218619	10.935	0.591076	2	38	0.00511733	0.00130076	0	4.83772e-05	1.26018	0.859267	25.1674	2.15297e-05	2.26992e-05	3.74524e-05	2.04012e-05	1.45199e-05	2.02857e-05	0.138551	0.0573397	2.25467	7.52901e-07	8.68006e-07	7.57823e-07	7.83276e-07	6.21949e-07	3.47811e-07	0.247221	0.059097	0.254186	13.444	591.076	2472.65	2542.32	-76.556	0.0000000E+000	0.0000000E+000	0.0000000E+000	76.556	0.0000000E+000	0.0000000E+000	0.0000000E+000	-76.556	0.0000000E+000	0.0000000E+000	0.0000000E+000	-13.444	0.0000000E+000	0.0000000E+000	0.0000000E+000	13.444	4.18331	76.556	3.16259e-07
7967.67	4.03019	1.28762	4.23088	-17.7183	582.406	0.459463	-0.00201117	15.5133	1.43686	2	38	0.0052005	0.00122918	0	4.69913e-05	1.11289	1.08633	23.7408	2.34213e-05	2.85434e-05	2.11992e-05	1.4744e-05	1.89508e-05	2.32701e-05	0.163199	0.0724524	2.42144	5.87501e-07	5.42529e-07	5.8737e-07	9.26316e-07	7.97436e-07	1.10775e-06	0.225146	0.0719323	0.236357	17.7183	1436.86	4497.31	4721.26	-72.2817	0.0000000E+000	0.0000000E+000	0.0000000E+000	72.2817	0.0000000E+000	0.0000000E+000	0.0000000E+000	-72.2817	0.0000000E+000	0.0000000E+000	0.0000000E+000	-17.7183	0.0000000E+000	0.0000000E+000	0.0000000E+000	17.7183	3.12996	72.2817	9.86102e-08
3993.72	4.29061	2.14872	4.79858	-26.6015	586.311	0.459487	-0.00137439	18.5465	3.71875	2	38	0.00510552	0.00106397	0	4.54635e-05	1.32941	0.471171	24.8322	2.1293e-05	3.93838e-05	2.62718e-05	1.96587e-05	3.04419e-05	1.56184e-05	0.168064	0.0993614	2.82248	8.15462e-07	7.59884e-07	5.78805e-07	3.96368e-07	8.73594e-07	6.86705e-07	0.186335	0.0933157	0.208395	26.6015	3718.75	7425.68	8304.81	-63.3985	0.0000000E+000	0.0000000E+000	0.0000000E+000	63.3985	0.0000000E+000	0.0000000E+000	0.0000000E+000	-63.3985	0.0000000E+000	0.0000000E+000	0.0000000E+000	-26.6015	0.0000000E+000	0.0000000E+000	0.0000000E+000	26.6015	1.99682	63.3985	1.08631e-06
2001.92	4.83651	3.77513	6.13542	-37.9738	589.629	0.459476	-0.00102249	21.0592	7.9729	2	38	0.00549192	0.000895117	0	4.4913e-05	1.21678	0.752729	23.0817	2.87111e-05	2.23344e-05	3.09149e-05	1.71255e-05	2.74129e-05	2.06201e-05	0.297345	0.0874308	3.40024	2.1043e-06	5.93296e-07	7.56414e-07	9.11729e-07	5.35888e-07	4.49158e-07	0.128482	0.100287	0.162988	37.9738	7972.9	10214.5	12957.7	-52.0262	0.0000000E+000	0.0000000E+000	0.0000000E+000	52.0262	0.0000000E+000	0.0000000E+000	0.0000000E+000	-52.0262	0.0000000E+000	0.0000000E+000	0.0000000E+000	-37.9738	0.0000000E+000	0.0000000E+000	0.0000000E+000	37.9738	1.28115	52.0262	1.89082e-07
1002.75	6.16252	6.60032	9.03	-46.9646	592.951	0.459493	-0.00168721	24.047	12.8474	2	38	0.0052946	0.000586334	0	4.15737e-05	1.13437	1.01552	24.1479	1.57446e-05	1.72097e-05	2.32673e-05	3.36112e-05	1.13302e-05	2.80302e-05	0.476248	0.160902	5.21207	1.79271e-06	1.41807e-06	5.50917e-07	8.68765e-07	8.46692e-07	5.31596e-07	0.0755758	0.0809449	0.110742	46.9646	12847.4	11995.3	17576.8	-43.0354	0.0000000E+000	0.0000000E+000	0.0000000E+000	43.0354	0.0000000E+000	0.0000000E+000	0.0000000E+000	-43.0354	0.0000000E+000	0.0000000E+000	0.0000000E+000	-46.9646	0.0000000E+000	0.0000000E+000	0.0000000E+000	46.9646	0.93367	43.0354	-1.13407e-06
502.588	9.24356	10.7643	14.1885	-49.3465	596.272	0.459477	-0.000776727	29.4187	16.9325	2	38	0.00515287	0.000363173	0	4.14374e-05	1.75698	0.400854	23.8839	2.71369e-05	1.97136e-05	2.28007e-05	3.14833e-05	3.16964e-05	6.02799e-05	0.801756	0.20111	8.11544	1.63869e-06	9.57388e-07	5.66263e-07	1.25008e-06	2.95826e-07	1.52351e-06	0.0459164	0.0534703	0.0704797	49.3465	16932.5	14540.4	22318.9	-40.6535	0.0000000E+000	0.0000000E+000	0.0000000E+000	40.6535	0.0000000E+000	0.0000000E+000	0.0000000E+000	-40.6535	0.0000000E+000	0.0000000E+000	0.0000000E+000	-49.3465	0.0000000E+000	0.0000000E+000	0.0000000E+000	49.3465	0.858726	40.6535	4.48694e-09
251.853	15.2694	15.3134	21.6253	-45.0826	599.588	0.45947	0.000431664	41.2667	20.6928	2	38	0.00510031	0.000235849	0	4.15677e-05	1.3519	0.94684	25.0156	3.70765e-05	3.36828e-05	1.9497e-05	2.08623e-05	2.20821e-05	2.12074e-05	0.815922	0.314575	12.8197	1.24097e-06	5.68791e-07	4.30847e-07	8.055e-07	5.53389e-07	5.23779e-07	0.0326509	0.0327452	0.0462421	45.0826	20692.8	20633.3	29222	-44.9174	0.0000000E+000	0.0000000E+000	0.0000000E+000	44.9174	0.0000000E+000	0.0000000E+000	0.0000000E+000	-44.9174	0.0000000E+000	0.0000000E+000	0.0000000E+000	-45.0826	0.0000000E+000	0.0000000E+000	0.0000000E+000	45.0826	0.997122	44.9174	6.34766e-08
126.171	23.6215	18.7367	30.1503	-38.4216	603.158	0.459505	0.000130066	67.3236	25.9998	2	39	0.0051207	0.000169839	0	4.19093e-05	1.04603	0.995871	24.1088	2.17019e-05	1.43527e-05	5.46527e-06	1.93704e-05	2.63917e-05	2.63749e-05	0.553022	0.310984	7.70304	5.67115e-07	2.37188e-07	1.92237e-07	4.00757e-07	3.83285e-07	2.77381e-07	0.0259851	0.0206115	0.0331672	38.4216	25999.8	32778.2	41837.8	-51.5784	0.0000000E+000	0.0000000E+000	0.0000000E+000	51.5784	0.0000000E+000	0.0000000E+000	0.0000000E+000	-51.5784	0.0000000E+000	0.0000000E+000	0.0000000E+000	-38.4216	0.0000000E+000	0.0000000E+000	0.0000000E+000	38.4216	1.26071	51.5784	1.50666e-07
63.2394	32.841	20.8822	38.9178	-32.4506	606.427	0.459512	0.00041187	120.519	34.6986	2	39	0.00509704	0.000130969	0	4.2486e-05	1.23435	0.63761	24.5609	2.13116e-05	2.53784e-05	1.69926e-05	3.05668e-05	1.94981e-05	2.7185e-05	0.544824	0.349421	9.78796	2.81145e-07	3.12591e-07	1.93384e-07	2.73992e-07	2.53854e-07	3.289e-07	0.021683	0.0137873	0.0256952	32.4506	34698.6	54569.6	64667.1	-57.5494	0.0000000E+000	0.0000000E+000	0.0000000E+000	57.5494	0.0000000E+000	0.0000000E+000	0.0000000E+000	-57.5494	0.0000000E+000	0.0000000E+000	0.0000000E+000	-32.4506	0.0000000E+000	0.0000000E+000	0.0000000E+000	32.4506	1.57268	57.5494	1.0028e-07
31.6723	41.7733	23.3482	47.8555	-29.202	609.602	0.459488	0.000463683	215.222	51.2309	2	39	0.00508549	0.000106268	0	4.29888e-05	1.33102	0.703263	24.3898	2.71367e-05	1.87945e-05	2.15929e-05	2.51653e-05	2.31541e-05	3.56634e-05	0.629025	0.305396	12.2539	1.90602e-07	2.99763e-07	2.99375e-07	1.94808e-07	1.6936e-07	3.34528e-07	0.0182404	0.0101951	0.0208962	29.202	51230.9	91659.2	105005	-60.798	0.0000000E+000	0.0000000E+000	0.0000000E+000	60.798	0.0000000E+000	0.0000000E+000	0.0000000E+000	-60.798	0.0000000E+000	0.0000000E+000	0.0000000E+000	-29.202	0.0000000E+000	0.0000000E+000	0.0000000E+000	29.202	1.78914	60.798	1.91623e-07
15.879	51.4822	27.2303	58.2401	-27.8755	612.774	0.459486	0.000497045	368.081	80.4645	2	39	0.00507738	8.71802e-05	0	4.3673e-05	1.01171	0.523164	25.184	1.29482e-05	1.41125e-05	2.45726e-05	1.7854e-05	2.7817e-05	1.96078e-05	0.82122	0.509605	14.9335	2.96552e-07	2.25331e-07	3.24604e-07	2.9938e-07	2.20284e-07	2.60436e-07	0.015178	0.00802802	0.0171703	27.8755	80464.5	152128	172097	-62.1245	0.0000000E+000	0.0000000E+000	0.0000000E+000	62.1245	0.0000000E+000	0.0000000E+000	0.0000000E+000	-62.1245	0.0000000E+000	0.0000000E+000	0.0000000E+000	-27.8755	0.0000000E+000	0.0000000E+000	0.0000000E+000	27.8755	1.89062	62.1245	3.9132e-07
7.95573	62.4856	33.1259	70.7232	-27.9297	616.21	0.459502	0.000151311	603.91	132.49	2	39	0.00505653	7.14974e-05	0	4.40825e-05	0.868532	0.317781	16.7698	1.75156e-05	2.08061e-05	1.38302e-05	2.14199e-05	1.92928e-05	6.91455e-06	0.696803	0.378192	12.4094	2.56785e-07	2.49493e-07	9.34124e-08	1.56883e-07	1.50576e-07	1.39989e-07	0.0124927	0.00662283	0.0141396	27.9297	132490	249917	282864	-62.0703	0.0000000E+000	0.0000000E+000	0.0000000E+000	62.0703	0.0000000E+000	0.0000000E+000	0.0000000E+000	-62.0703	0.0000000E+000	0.0000000E+000	0.0000000E+000	-27.9297	0.0000000E+000	0.0000000E+000	0.0000000E+000	27.9297	1.8863	62.0703	7.48365e-07
3.98597	76.0447	42.0055	86.8749	-28.9154	621.681	0.459486	0.000250092	950.56	222.23	2	40	0.00505348	5.81696e-05	0	4.44516e-05	1.10244	0.581733	19.2216	2.03354e-05	2.76583e-05	2.45111e-05	2.06388e-05	2.02504e-05	1.70683e-05	0.281579	0.108678	2.06895	1.1849e-07	7.92223e-08	4.53019e-08	5.4747e-08	1.95551e-08	1.08077e-08	0.0100758	0.00556567	0.0115108	28.9154	222230	402314	459612	-61.0846	0.0000000E+000	0.0000000E+000	0.0000000E+000	61.0846	0.0000000E+000	0.0000000E+000	0.0000000E+000	-61.0846	0.0000000E+000	0.0000000E+000	0.0000000E+000	-28.9154	0.0000000E+000	0.0000000E+000	0.0000000E+000	28.9154	1.81035	61.0846	1.32582e-07
1.99783	93.7742	54.6129	108.518	-30.216	630.21	0.459505	0.000351279	1458.7	369.448	2	40	0.00505892	4.66182e-05	0	4.60778e-05	0.754972	0.353349	12.6903	2.11635e-05	1.25468e-05	1.23608e-05	1.35358e-05	8.84624e-06	1.32212e-05	0.247881	0.149128	1.76658	8.43379e-08	2.63497e-08	2.39253e-08	5.69597e-08	1.52353e-08	2.28371e-08	0.00796304	0.00463758	0.00921505	30.216	369448	634368	734108	-59.784	0.0000000E+000	0.0000000E+000	0.0000000E+000	59.784	0.0000000E+000	0.0000000E+000	0.0000000E+000	-59.784	0.0000000E+000	0.0000000E+000	0.0000000E+000	-30.216	0.0000000E+000	0.0000000E+000	0.0000000E+000	30.216	1.71707	59.784	6.55914e-07
1.00122	116.587	73.3381	137.735	-32.1717	646.074	0.459506	0.000334624	2167.52	614.516	2	40	0.00506605	3.67812e-05	0	4.57471e-05	0.550813	0.20351	8.89019	9.31215e-06	9.3974e-06	9.38767e-06	1.37539e-05	1.20786e-05	9.67166e-06	0.377762	0.105676	1.66001	1.11724e-07	3.34578e-08	2.42321e-08	5.75077e-08	2.30455e-08	2.10809e-08	0.00614555	0.00386582	0.00726032	32.1717	614516	976906	1.15411e+06	-57.8283	0.0000000E+000	0.0000000E+000	0.0000000E+000	57.8283	0.0000000E+000	0.0000000E+000	0.0000000E+000	-57.8283	0.0000000E+000	0.0000000E+000	0.0000000E+000	-32.1717	0.0000000E+000	0.0000000E+000	0.0000000E+000	32.1717	1.58971	57.8283	-4.30636e-07
0.501541	147.102	99.9453	177.843	-34.1933	679.788	0.459482	0.000331414	3175.05	1002.77	2	41	0.00506286	2.84682e-05	0	4.86593e-05	0.434344	0.333927	7.49214	1.44173e-05	5.84015e-06	5.85942e-06	6.74928e-06	8.01443e-06	6.53149e-06	0.36873	0.372884	0.606388	8.12318e-08	3.08191e-08	2.62119e-08	2.93902e-08	1.74883e-08	1.64643e-08	0.004651	0.00316002	0.00562294	34.1933	1.00277e+06	1.47591e+06	1.78434e+06	-55.8067	0.0000000E+000	0.0000000E+000	0.0000000E+000	55.8067	0.0000000E+000	0.0000000E+000	0.0000000E+000	-55.8067	0.0000000E+000	0.0000000E+000	0.0000000E+000	-34.1933	0.0000000E+000	0.0000000E+000	0.0000000E+000	34.1933	1.47183	55.8067	1.80444e-06
0.251222	188.702	138.076	233.823	-36.1935	739.681	0.459487	0.000335374	4588.23	1599.95	2	41	0.00505975	2.16392e-05	0	5.35394e-05	0.31191	0.185011	5.85338	8.67808e-06	6.57582e-06	5.22931e-06	4.55396e-06	4.5742e-06	5.8879e-06	0.340358	0.147132	0.556545	6.68157e-08	7.68776e-09	5.56381e-09	2.79169e-08	5.78431e-09	3.59501e-09	0.00345144	0.00252547	0.00427673	36.1935	1.59995e+06	2.18657e+06	2.70941e+06	-53.8065	0.0000000E+000	0.0000000E+000	0.0000000E+000	53.8065	0.0000000E+000	0.0000000E+000	0.0000000E+000	-53.8065	0.0000000E+000	0.0000000E+000	0.0000000E+000	-36.1935	0.0000000E+000	0.0000000E+000	0.0000000E+000	36.1935	1.36665	53.8065	-1.5751e-06
0.125939	246.78	192.148	312.764	-37.905	858.242	0.459488	0.000383308	6576.96	2482.35	2	41	0.00505902	1.61752e-05	0	6.96063e-05	0.227899	0.139941	4.04068	6.33383e-06	3.21704e-06	4.15713e-06	3.87294e-06	3.76106e-06	4.82633e-06	0.322123	0.153686	0.759425	4.49783e-08	6.66328e-09	6.97721e-09	2.28706e-08	4.70671e-09	3.37758e-09	0.00252276	0.00196427	0.0031973	37.905	2.48235e+06	3.18814e+06	4.04058e+06	-52.095	0.0000000E+000	0.0000000E+000	0.0000000E+000	52.095	0.0000000E+000	0.0000000E+000	0.0000000E+000	-52.095	0.0000000E+000	0.0000000E+000	0.0000000E+000	-37.905	0.0000000E+000	0.0000000E+000	0.0000000E+000	37.905	1.28432	52.095	9.75288e-06
317705	3.32628	1.12554	3.51155	-18.6946	923.681	0.459565	-0.00110254	0.445078	0.0457254	3	38	0.00505936	0.00144078	0	7.5936e-05	-1	-1	-1	0	0	0	0	0	0	-1	-1	-1	0	0	0	0	0	0	0.26975	0.0912771	0.284774	18.6946	45.7254	135.132	142.658	-71.3054	0.0000000E+000	0.0000000E+000	0.0000000E+000	71.3054	0.0000000E+000	0.0000000E+000	0.0000000E+000	-71.3054	0.0000000E+000	0.0000000E+000	0.0000000E+000	-18.6946	0.0000000E+000	0.0000000E+000	0.0000000E+000	18.6946	2.95528	71.3054	1.47665e-06
159201	3.25236	0.711027	3.32918	-12.3319	927.124	0.459582	-0.000287004	1.40601	0.0641339	3	38	0.0051864	0.00155786	0	7.51027e-05	-1	-1	-1	0	0	0	0	0	0	-1	-1	-1	0	0	0	0	0	0	0.293444	0.0641523	0.300375	12.3319	64.1339	293.36	300.289	-77.6681	0.0000000E+000	0.0000000E+000	0.0000000E+000	77.6681	0.0000000E+000	0.0000000E+000	0.0000000E+000	-77.6681	0.0000000E+000	0.0000000E+000	0.0000000E+000	-12.3319	0.0000000E+000	0.0000000E+000	0.0000000E+000	12.3319	4.57418	77.6681	-2.11502e-06
79767.3	3.33192	0.654469	3.39559	-11.1128	930.565	0.459585	-0.00125522	3.04864	0.113254	3	38	0.00515944	0.00151946	0	7.23836e-05	1.22259	0.798189	28.5595	2.09977e-05	2.34137e-05	1.68378e-05	2.88918e-05	1.59568e-05	3.03361e-05	0.101532	0.065879	2.13302	5.35859e-07	8.84917e-07	5.65227e-07	5.07927e-07	4.99006e-07	4.65676e-07	0.288978	0.0567623	0.2945	11.1128	113.254	576.581	587.598	-78.8872	0.0000000E+000	0.0000000E+000	0.0000000E+000	78.8872	0.0000000E+000	0.0000000E+000	0.0000000E+000	-78.8872	0.0000000E+000	0.0000000E+000	0.0000000E+000	-11.1128	0.0000000E+000	0.0000000E+000	0.0000000E+000	11.1128	5.09102	78.8872	6.3897e-07
39971.8	3.54432	0.713815	3.61548	-11.3869	934.009	0.459607	-0.000635194	5.57803	0.21743	3	38	0.00515158	0.00142487	0	6.83038e-05	1.36814	0.971079	28.489	2.71879e-05	3.68669e-05	2.76548e-05	3.0395e-05	2.85516e-05	1.55615e-05	0.116272	0.0709019	2.27253	6.39355e-07	7.61123e-07	6.6052e-07	7.10295e-07	6.00761e-07	5.27357e-07	0.271144	0.0546076	0.276588	11.3869	217.43	1079.61	1101.29	-78.6131	0.0000000E+000	0.0000000E+000	0.0000000E+000	78.6131	0.0000000E+000	0.0000000E+000	0.0000000E+000	-78.6131	0.0000000E+000	0.0000000E+000	0.0000000E+000	-11.3869	0.0000000E+000	0.0000000E+000	0.0000000E+000	11.3869	4.96532	78.6131	1.06779e-06
20032.3	3.77214	0.833732	3.86317	-12.4634	937.45	0.459598	-0.000886554	9.52934	0.443841	3	38	0.00517939	0.00134071	0	7.07744e-05	1.25835	0.70593	30.0403	2.907e-05	2.57985e-05	1.46361e-05	2.34463e-05	2.69248e-05	2.63635e-05	0.126853	0.0891158	2.46722	5.28145e-07	8.03693e-07	6.73418e-07	6.25839e-07	6.8581e-07	6.54689e-07	0.252754	0.0558648	0.258855	12.4634	443.841	2008.11	2056.58	-77.5366	0.0000000E+000	0.0000000E+000	0.0000000E+000	77.5366	0.0000000E+000	0.0000000E+000	0.0000000E+000	-77.5366	0.0000000E+000	0.0000000E+000	0.0000000E+000	-12.4634	0.0000000E+000	0.0000000E+000	0.0000000E+000	12.4634	4.5244	77.5366	-1.2836e-06
10039.3	3.97386	1.13931	4.13395	-15.9976	940.891	0.459584	-0.000594232	13.9147	1.05688	3	38	0.00513543	0.00124226	0	6.89427e-05	1.45767	0.551458	29.3301	2.22819e-05	2.58717e-05	4.71946e-05	2.88469e-05	2.35202e-05	9.04476e-06	0.141691	0.0870856	2.62494	1.04525e-06	4.68338e-07	8.22416e-07	6.67586e-07	3.27697e-07	5.27976e-07	0.232531	0.0666669	0.241899	15.9976	1056.88	3686.35	3834.86	-74.0024	0.0000000E+000	0.0000000E+000	0.0000000E+000	74.0024	0.0000000E+000	0.0000000E+000	0.0000000E+000	-74.0024	0.0000000E+000	0.0000000E+000	0.0000000E+000	-15.9976	0.0000000E+000	0.0000000E+000	0.0000000E+000	15.9976	3.48796	74.0024	-5.68962e-07
5028.39	4.20843	1.81903	4.58473	-23.3757	944.648	0.459432	-0.0011342	17.4001	2.73907	3	38	0.00510707	0.00111393	0	6.53473e-05	1.68961	0.898435	29.4642	3.86596e-05	2.40948e-05	2.62128e-05	3.33723e-05	3.17867e-05	2.98441e-05	0.20038	0.0656877	2.92586	1.09367e-06	9.46464e-07	4.79984e-07	9.61644e-07	6.53006e-07	6.99215e-07	0.200213	0.0865392	0.218116	23.3757	2739.08	6337.01	6903.64	-66.6243	0.0000000E+000	0.0000000E+000	0.0000000E+000	66.6243	0.0000000E+000	0.0000000E+000	0.0000000E+000	-66.6243	0.0000000E+000	0.0000000E+000	0.0000000E+000	-23.3757	0.0000000E+000	0.0000000E+000	0.0000000E+000	23.3757	2.31356	66.6243	-8.03783e-07
2519.19	4.63412	3.16277	5.61054	-34.3134	948.188	0.459435	-0.00208193	19.9752	6.34772	3	38	0.00533413	0.000950734	0	6.28988e-05	1.09208	0.705279	27.8164	1.30658e-05	2.4156e-05	3.04517e-05	1.46625e-05	1.54943e-05	2.83747e-05	0.242169	0.17225	3.50398	1.66815e-06	4.75089e-07	7.0844e-07	8.28146e-07	3.68133e-07	6.49865e-07	0.147217	0.100475	0.178236	34.3134	6347.72	9300.72	11260.4	-55.6866	0.0000000E+000	0.0000000E+000	0.0000000E+000	55.6866	0.0000000E+000	0.0000000E+000	0.0000000E+000	-55.6866	0.0000000E+000	0.0000000E+000	0.0000000E+000	-34.3134	0.0000000E+000	0.0000000E+000	0.0000000E+000	34.3134	1.46521	55.6866	-3.27975e-07
1262.98	5.61671	5.61535	7.94227	-44.9931	951.507	0.459451	-0.00276526	22.4413	11.2179	3	38	0.00521372	0.000656453	0	6.10392e-05	1.69865	1.05813	27.5363	1.53707e-05	3.15601e-05	3.39733e-05	3.35001e-05	5.25726e-05	2.42009e-05	0.320721	0.145282	4.95462	1.40277e-06	4.89301e-07	7.75809e-07	5.88761e-07	7.28931e-07	6.13009e-07	0.0890416	0.0890201	0.125909	44.9931	11217.9	11220.6	15866.5	-45.0069	0.0000000E+000	0.0000000E+000	0.0000000E+000	45.0069	0.0000000E+000	0.0000000E+000	0.0000000E+000	-45.0069	0.0000000E+000	0.0000000E+000	0.0000000E+000	-44.9931	0.0000000E+000	0.0000000E+000	0.0000000E+000	44.9931	1.00024	45.0069	-2.9746e-07
632.773	7.97226	9.4369	12.3536	-49.809	954.828	0.4595	0.000109556	26.6528	15.553	3	38	0.0050003	0.000404763	0	5.97115e-05	1.65237	0.886165	29.4056	2.80737e-05	2.07265e-05	3.96905e-05	3.10585e-05	1.68163e-05	4.74938e-05	0.657027	0.206975	8.07568	1.91086e-06	7.96037e-07	8.0498e-07	8.67579e-07	7.74425e-07	6.48694e-07	0.0522387	0.0618359	0.0809479	49.809	15553	13139.1	20360	-40.191	0.0000000E+000	0.0000000E+000	0.0000000E+000	40.191	0.0000000E+000	0.0000000E+000	0.0000000E+000	-40.191	0.0000000E+000	0.0000000E+000	0.0000000E+000	-49.809	0.0000000E+000	0.0000000E+000	0.0000000E+000	49.809	0.844796	40.191	-8.01266e-08
316.927	13.0837	14.3974	19.4543	-47.737	958.148	0.45948	0.000306915	34.8799	19.1036	3	38	0.00496691	0.000255312	0	6.01228e-05	1.5192	0.885298	30.4604	2.65489e-05	2.54694e-05	2.4784e-05	3.08619e-05	2.99743e-05	3.38091e-05	1.05955	0.404849	13.0342	1.85725e-06	1.09371e-06	7.46489e-07	7.05012e-07	6.54677e-07	3.5734e-07	0.03457	0.0380412	0.0514025	47.737	19103.6	17360.4	25813.4	-42.263	0.0000000E+000	0.0000000E+000	0.0000000E+000	42.263	0.0000000E+000	0.0000000E+000	0.0000000E+000	-42.263	0.0000000E+000	0.0000000E+000	0.0000000E+000	-47.737	0.0000000E+000	0.0000000E+000	0.0000000E+000	47.737	0.908751	42.263	1.73436e-07
158.831	21.3453	18.4149	28.1909	-40.7847	961.72	0.459437	0.00073114	54.4148	23.2185	3	39	0.00499626	0.000177229	0	6.06227e-05	1.38374	1.01363	30.0338	2.12265e-05	1.68413e-05	2.19845e-05	1.18049e-05	4.1424e-05	3.49972e-05	0.619016	0.331887	8.7202	5.5149e-07	3.18302e-07	2.04403e-07	5.79115e-07	4.59629e-07	3.34515e-07	0.0268586	0.0231712	0.0354724	40.7847	23218.5	26913.4	35544.8	-49.2153	0.0000000E+000	0.0000000E+000	0.0000000E+000	49.2153	0.0000000E+000	0.0000000E+000	0.0000000E+000	-49.2153	0.0000000E+000	0.0000000E+000	0.0000000E+000	-40.7847	0.0000000E+000	0.0000000E+000	0.0000000E+000	40.7847	1.15914	49.2153	-8.41569e-08
79.6177	30.3844	20.7454	36.7911	-34.3239	965.007	0.45947	0.000264072	96.3582	30.637	3	39	0.00490315	0.00013327	0	6.10544e-05	1.67182	0.705817	31.387	3.89932e-05	2.79567e-05	2.49107e-05	3.22791e-05	3.66601e-05	2.95596e-05	0.67132	0.265536	11.971	3.60756e-07	5.08373e-07	2.8637e-07	3.24175e-07	2.36821e-07	2.84897e-07	0.0224474	0.0153263	0.0271805	34.3239	30637.1	44872.1	54333.5	-55.6761	0.0000000E+000	0.0000000E+000	0.0000000E+000	55.6761	0.0000000E+000	0.0000000E+000	0.0000000E+000	-55.6761	0.0000000E+000	0.0000000E+000	0.0000000E+000	-34.3239	0.0000000E+000	0.0000000E+000	0.0000000E+000	34.3239	1.46463	55.6761	6.73459e-08
39.8851	39.6331	22.6166	45.6321	-29.7112	968.223	0.459477	0.000498164	176.434	43.3406	3	39	0.0048806	0.000106955	0	6.13193e-05	1.61853	0.82175	30.7354	3.86283e-05	2.67289e-05	3.30364e-05	2.4861e-05	1.55156e-05	2.88977e-05	0.717951	0.328173	14.4638	4.56264e-07	1.81376e-07	2.77326e-07	1.12406e-07	3.69008e-07	1.87492e-07	0.0190334	0.0108614	0.0219144	29.7112	43340.6	75949.6	87445.7	-60.2888	0.0000000E+000	0.0000000E+000	0.0000000E+000	60.2888	0.0000000E+000	0.0000000E+000	0.0000000E+000	-60.2888	0.0000000E+000	0.0000000E+000	0.0000000E+000	-29.7112	0.0000000E+000	0.0000000E+000	0.0000000E+000	29.7112	1.75239	60.2888	2.61254e-08
19.9808	49.6581	26.4935	56.2836	-28.0808	971.398	0.459499	0.000280286	300.654	66.6168	3	39	0.00493525	8.76855e-05	0	6.1555e-05	1.4832	1.28506	30.9669	3.62449e-05	2.92936e-05	2.41685e-05	3.21339e-05	2.24782e-05	2.44656e-05	0.870978	0.87409	18.3116	2.42392e-07	3.8273e-07	1.00196e-07	2.93605e-07	3.57254e-07	1.56518e-07	0.0156757	0.00836329	0.0177672	28.0808	66616.8	124863	141522	-61.9192	0.0000000E+000	0.0000000E+000	0.0000000E+000	61.9192	0.0000000E+000	0.0000000E+000	0.0000000E+000	-61.9192	0.0000000E+000	0.0000000E+000	0.0000000E+000	-28.0808	0.0000000E+000	0.0000000E+000	0.0000000E+000	28.0808	1.87435	61.9192	2.07469e-07
10.016	60.6733	31.3804	68.308	-27.3481	974.666	0.459466	0.000475424	506.367	106.866	3	39	0.00492619	7.21174e-05	0	6.20023e-05	1.51748	0.90772	31.1263	2.34526e-05	1.68976e-05	1.03483e-05	3.86739e-05	3.26145e-05	2.87658e-05	1.06661	0.617196	22.2311	3.09483e-07	1.54507e-07	1.90699e-07	4.412e-07	3.63887e-07	2.71126e-07	0.0130033	0.00672536	0.0146396	27.3481	106866	206623	232623	-62.6519	0.0000000E+000	0.0000000E+000	0.0000000E+000	62.6519	0.0000000E+000	0.0000000E+000	0.0000000E+000	-62.6519	0.0000000E+000	0.0000000E+000	0.0000000E+000	-27.3481	0.0000000E+000	0.0000000E+000	0.0000000E+000	27.3481	1.93348	62.6519	3.44444e-08
5.01766	73.5894	39.2051	83.3813	-28.0467	978.871	0.459452	0.000729088	809.052	178.864	3	39	0.00491376	5.89311e-05	0	6.29487e-05	1.07217	0.323842	17.9634	1.71784e-05	1.94468e-05	2.1526e-05	1.11193e-05	2.52314e-05	2.20621e-05	1.01454	0.376562	15.9431	4.2317e-07	2.2201e-07	2.01157e-07	9.32271e-08	1.60397e-07	1.02663e-07	0.0105847	0.00563904	0.0119931	28.0467	178864	335735	380408	-61.9533	0.0000000E+000	0.0000000E+000	0.0000000E+000	61.9533	0.0000000E+000	0.0000000E+000	0.0000000E+000	-61.9533	0.0000000E+000	0.0000000E+000	0.0000000E+000	-28.0467	0.0000000E+000	0.0000000E+000	0.0000000E+000	28.0467	1.87704	61.9533	1.59394e-07
2.51368	89.8133	50.4533	103.014	-29.3254	986.451	0.459497	0.000447845	1254.94	301.026	3	40	0.00491136	4.76765e-05	0	6.34299e-05	1.14391	0.455708	19.71	2.34059e-05	1.60311e-05	2.32372e-05	2.24321e-05	2.14326e-05	2.04288e-05	0.287255	0.269355	2.63945	8.31923e-08	6.11684e-08	2.21916e-08	5.22386e-08	4.18505e-08	1.83756e-08	0.0084634	0.00475438	0.00970739	29.3254	301026	535865	614629	-60.6746	0.0000000E+000	0.0000000E+000	0.0000000E+000	60.6746	0.0000000E+000	0.0000000E+000	0.0000000E+000	-60.6746	0.0000000E+000	0.0000000E+000	0.0000000E+000	-29.3254	0.0000000E+000	0.0000000E+000	0.0000000E+000	29.3254	1.78013	60.6746	2.11561e-07
1.25968	110.883	66.8704	129.487	-31.0929	999.286	0.459469	0.000508242	1889.41	503.9	3	40	0.00491339	3.79451e-05	0	6.45743e-05	0.801602	0.318861	14.2878	1.80749e-05	9.57662e-06	1.88997e-05	1.18211e-05	1.44691e-05	1.41951e-05	0.406571	0.269864	2.39069	1.13548e-07	4.55151e-08	4.70046e-08	6.66396e-08	3.0018e-08	2.04254e-08	0.00661328	0.00398826	0.0077228	31.0929	503900	835560	975744	-58.9071	0.0000000E+000	0.0000000E+000	0.0000000E+000	58.9071	0.0000000E+000	0.0000000E+000	0.0000000E+000	-58.9071	0.0000000E+000	0.0000000E+000	0.0000000E+000	-31.0929	0.0000000E+000	0.0000000E+000	0.0000000E+000	31.0929	1.65818	58.9071	-1.66532e-06
0.631645	138.117	89.9516	164.826	-33.0749	1026.96	0.459483	0.00049831	2801.16	834.263	3	41	0.00490455	2.97559e-05	0	6.87431e-05	0.790309	0.413741	13.6753	1.82803e-05	1.4543e-05	1.04388e-05	1.9279e-05	1.52138e-05	4.7918e-06	0.394028	0.12245	0.744647	1.01148e-07	2.4306e-08	2.02522e-08	3.51965e-08	1.42168e-08	1.59871e-08	0.00508388	0.00331097	0.00606699	33.0749	834263	1.28098e+06	1.52869e+06	-56.9251	0.0000000E+000	0.0000000E+000	0.0000000E+000	56.9251	0.0000000E+000	0.0000000E+000	0.0000000E+000	-56.9251	0.0000000E+000	0.0000000E+000	0.0000000E+000	-33.0749	0.0000000E+000	0.0000000E+000	0.0000000E+000	33.0749	1.53546	56.9251	1.7451e-06
0.316193	175.644	124.177	215.106	-35.2596	1074.73	0.459469	0.000485248	4053.47	1350.84	3	41	0.00490657	2.281e-05	0	7.29328e-05	0.563036	0.326944	9.92733	1.00304e-05	9.2282e-06	6.73643e-06	8.23044e-06	1.28844e-05	1.53436e-05	0.36705	0.1409	0.834165	7.34172e-08	1.80665e-08	9.67408e-09	2.78175e-08	5.53545e-09	8.35809e-09	0.00379601	0.00268371	0.00464887	35.2596	1.35084e+06	1.91071e+06	2.34e+06	-54.7404	0.0000000E+000	0.0000000E+000	0.0000000E+000	54.7404	0.0000000E+000	0.0000000E+000	0.0000000E+000	-54.7404	0.0000000E+000	0.0000000E+000	0.0000000E+000	-35.2596	0.0000000E+000	0.0000000E+000	0.0000000E+000	35.2596	1.41447	54.7404	-9.86666e-07
0.158419	228.098	171.98	285.667	-37.0154	1169.11	0.459486	0.000516359	5841.64	2117.25	3	41	0.00490463	1.7169e-05	0	9.37271e-05	0.32073	0.312657	6.63385	5.08873e-06	9.88974e-06	6.03176e-06	3.68951e-06	2.62536e-06	6.12874e-06	0.415517	0.167349	0.977619	6.19415e-08	1.52225e-08	7.82388e-09	2.89626e-08	5.42964e-09	6.45331e-09	0.00279512	0.00210745	0.00350058	37.0154	2.11724e+06	2.80811e+06	3.51684e+06	-52.9846	0.0000000E+000	0.0000000E+000	0.0000000E+000	52.9846	0.0000000E+000	0.0000000E+000	0.0000000E+000	-52.9846	0.0000000E+000	0.0000000E+000	0.0000000E+000	-37.0154	0.0000000E+000	0.0000000E+000	0.0000000E+000	37.0154	1.3263	52.9846	9.13068e-06
0.0999518	273.914	215.88	348.759	-38.2427	1279.31	0.459461	0.000603718	7375.95	2826.11	3	41	0.00490479	1.40635e-05	0	0.000106772	0.304064	0.167422	6.14977	6.0785e-06	8.12195e-06	3.9038e-06	6.63236e-06	5.05001e-06	2.81362e-06	0.357776	0.181259	0.966623	4.39525e-08	9.59747e-09	5.4761e-09	1.98772e-08	3.95088e-09	4.40323e-09	0.00225197	0.00177484	0.00286731	38.2427	2.82611e+06	3.58585e+06	4.56566e+06	-51.7573	0.0000000E+000	0.0000000E+000	0.0000000E+000	51.7573	0.0000000E+000	0.0000000E+000	0.0000000E+000	-51.7573	0.0000000E+000	0.0000000E+000	0.0000000E+000	-38.2427	0.0000000E+000	0.0000000E+000	0.0000000E+000	38.2427	1.26883	51.7573	6.10543e-06