File: Python/Data/GoldElectrode/240319/Gold/240319-CVEIS_PostActivation-Fe2Fe3_5mM-HCl1M-0225RPM-Ag_AgCl_BLF8-Au_RDE_02_PEIS_C15.mpt
EC-Lab ASCII FILE
Nb header lines : 66

Potentio Electrochemical Impedance Spectroscopy

Run on channel : 15 (SN 19485)
User :
Electrode connection : standard
Potential control : Ewe
Ewe ctrl range : min = -1.00 V, max = 1.00 V
Ewe,I filtering : <None>
Safety Limits :
	Do not start on E overload
Channel : Floating
Acquisition started on : 03/19/2024 16:25:12.456
Loaded Setting File :  NONE
Saved on :
	File : 240319-CVEIS_PostActivation-Fe2Fe3_5mM-HCl1M-0225RPM-Ag_AgCl_BLF8-Au_RDE_02_PEIS_C15.mpr
	Directory : C:\Data\mathias\GoldElectrode\
	Host : 192.168.0.1
Device : VMP-300 (SN 0826)
Address : USB
EC-Lab for windows v11.52 (software)
Internet server v11.52 (firmware)
Command interpretor v11.52 (firmware)
Electrode material :
Initial state :
Electrolyte :
Comments :
Cable : special
Electrode surface area : 0.001 cm²
Characteristic mass : 0.001 g
Equivalent Weight : 0.000 g/eq.
Density : 0.000 g/cm3
Volume (V) : 0.001 cm³
Record EIS quality indicators
Cycle Definition : Charge/Discharge alternance
Mode                Single sine
E (V)               0.0000
vs.                 Eoc
tE (h:m:s)          0:01:0.0000
record              0
dI                  0.000
unit dI             mA
dt (s)              0.000
fi                  400.000
unit fi             kHz
ff                  100.000
unit ff             mHz
Nd                  10
Points              per decade
spacing             Logarithmic
Va (mV)             5.0
pw                  0.10
Na                  3
corr                0
E range min (V)     -1.000
E range max (V)     1.000
I Range             Auto
Bandwidth           8
nc cycles           2
goto Ns'            0
nr cycles           0
inc. cycle          1

freq/Hz	Re(Z)/Ohm	-Im(Z)/Ohm	|Z|/Ohm	Phase(Z)/deg	time/s	<Ewe>/V	<I>/mA	Cs/µF	Cp/µF	cycle number	I Range	|Ewe|/V	|I|/A	Ns	(Q-Qo)/mA.h	THD Ewe/%	NSD Ewe/%	NSR Ewe/%	|Ewe h2|/V	|Ewe h3|/V	|Ewe h4|/V	|Ewe h5|/V	|Ewe h6|/V	|Ewe h7|/V	THD I/%	NSD I/%	NSR I/%	|I h2|/A	|I h3|/A	|I h4|/A	|I h5|/A	|I h6|/A	|I h7|/A	Re(Y)/Ohm-1	Im(Y)/Ohm-1	|Y|/Ohm-1	Phase(Y)/deg	Re(C)/nF	Im(C)/nF	|C|/nF	Phase(C)/deg	Re(M)	Im(M)	|M|	Phase(M)/deg	Re(Permittivity)	Im(Permittivity)	|Permittivity|	Phase(Permittivity)/deg	Re(Resistivity)/Ohm.cm	Im(Resistivity)/Ohm.cm	|Resistivity|/Ohm.cm	Phase(Resistivity)/deg	Re(Conductivity)/mS/cm	Im(Conductivity)/mS/cm	|Conductivity|/mS/cm	Phase(Conductivity)/deg	Tan(Delta)	Loss Angle(Delta)/deg	dq/mA.h
399996	3.25252	1.45582	3.56347	-24.1133	203.067	0.458304	-0.0107716	0.27331	0.0456171	1	38	0.00450438	0.00126405	0	5.28823e-06	-1	-1	-1	0	0	0	0	0	0	-1	-1	-1	0	0	0	0	0	0	0.256138	0.114647	0.280626	24.1133	45.6171	101.915	111.658	-65.8867	0.0000000E+000	0.0000000E+000	0.0000000E+000	65.8867	0.0000000E+000	0.0000000E+000	0.0000000E+000	-65.8867	0.0000000E+000	0.0000000E+000	0.0000000E+000	-24.1133	0.0000000E+000	0.0000000E+000	0.0000000E+000	24.1133	2.23414	65.8867	5.28823e-06
200434	3.19348	0.316098	3.20909	-5.65285	206.944	0.458295	-0.0221505	2.51204	0.0243728	1	37	0.00472476	0.00147231	0	-6.39285e-06	-1	-1	-1	0	0	0	0	0	0	-1	-1	-1	0	0	0	0	0	0	0.3101	0.0306943	0.311615	5.65285	24.3728	246.235	247.438	-84.3472	0.0000000E+000	0.0000000E+000	0.0000000E+000	84.3472	0.0000000E+000	0.0000000E+000	0.0000000E+000	-84.3472	0.0000000E+000	0.0000000E+000	0.0000000E+000	-5.65285	0.0000000E+000	0.0000000E+000	0.0000000E+000	5.65285	10.1028	84.3472	-1.0337e-05
100431	3.14476	0.402713	3.17044	-7.29749	210.387	0.458307	-0.0269336	3.93512	0.0634907	1	37	0.00516546	0.00162925	0	-2.4913e-05	1.87753	1.07479	30.445	4.59385e-05	3.3116e-05	3.16884e-05	4.41554e-05	2.69467e-05	3.26846e-05	0.466885	0.321719	10.8642	3.86297e-06	1.93413e-06	2.31374e-06	3.76791e-06	1.88319e-06	2.23919e-06	0.312858	0.0400642	0.315413	7.29749	63.4907	495.795	499.844	-82.7025	0.0000000E+000	0.0000000E+000	0.0000000E+000	82.7025	0.0000000E+000	0.0000000E+000	0.0000000E+000	-82.7025	0.0000000E+000	0.0000000E+000	0.0000000E+000	-7.29749	0.0000000E+000	0.0000000E+000	0.0000000E+000	7.29749	7.80894	82.7025	-8.82964e-06
50326.6	3.30867	0.562348	3.35612	-9.64594	213.831	0.458306	-0.0238627	5.62364	0.15789	1	37	0.00521896	0.00155506	0	-4.64671e-05	1.47171	0.748279	28.4947	2.11258e-05	4.14015e-05	3.12735e-05	2.66997e-05	2.28179e-05	2.5974e-05	0.655649	0.606189	11.3726	3.03606e-06	5.57355e-06	2.47385e-06	4.01241e-06	3.77241e-06	3.73538e-06	0.293751	0.0499265	0.297963	9.64594	157.89	928.97	942.292	-80.3541	0.0000000E+000	0.0000000E+000	0.0000000E+000	80.3541	0.0000000E+000	0.0000000E+000	0.0000000E+000	-80.3541	0.0000000E+000	0.0000000E+000	0.0000000E+000	-9.64594	0.0000000E+000	0.0000000E+000	0.0000000E+000	9.64594	5.88366	80.3541	-4.81808e-06
25219	3.53093	0.700846	3.59981	-11.2266	217.275	0.458301	-0.0194891	9.00472	0.341315	1	37	0.00519039	0.00144185	0	-6.96154e-05	1.26089	0.447014	29.7645	2.80964e-05	1.4288e-05	3.33753e-05	1.761e-05	2.91782e-05	2.38452e-05	0.609462	0.56395	12.3204	4.57905e-06	2.88459e-06	3.14091e-06	4.37656e-06	2.47e-06	3.05986e-06	0.272477	0.0540833	0.277792	11.2266	341.315	1719.58	1753.13	-78.7734	0.0000000E+000	0.0000000E+000	0.0000000E+000	78.7734	0.0000000E+000	0.0000000E+000	0.0000000E+000	-78.7734	0.0000000E+000	0.0000000E+000	0.0000000E+000	-11.2266	0.0000000E+000	0.0000000E+000	0.0000000E+000	11.2266	5.0381	78.7734	-6.60449e-06
12637.3	3.71434	1.0024	3.84722	-15.1028	220.72	0.458256	-0.0267847	12.5639	0.852929	1	37	0.00510064	0.0013258	0	-9.47774e-05	1.45656	0.902519	29.6282	1.42925e-05	3.06148e-05	3.83866e-05	3.75933e-05	2.11424e-05	2.07618e-05	0.759165	0.445081	13.5123	3.40334e-06	2.2949e-06	4.28164e-06	5.05011e-06	5.36999e-06	2.01462e-06	0.25095	0.0677248	0.259928	15.1028	852.929	3160.47	3273.54	-74.8972	0.0000000E+000	0.0000000E+000	0.0000000E+000	74.8972	0.0000000E+000	0.0000000E+000	0.0000000E+000	-74.8972	0.0000000E+000	0.0000000E+000	0.0000000E+000	-15.1028	0.0000000E+000	0.0000000E+000	0.0000000E+000	15.1028	3.70543	74.8972	-8.7649e-06
6332.63	3.94867	1.57429	4.25092	-21.7366	224.314	0.458162	-0.00264795	15.9643	2.18955	1	38	0.00458166	0.0010778	0	-0.0001165	1.50752	1.17111	31.5873	2.58795e-05	1.36868e-05	2.36617e-05	3.48481e-05	2.70553e-05	2.35377e-05	0.158982	0.294124	3.0278	9.64688e-07	6.71999e-07	6.53798e-07	4.99448e-07	4.47296e-07	6.55372e-07	0.218516	0.0871201	0.235243	21.7366	2189.55	5491.87	5912.25	-68.2634	0.0000000E+000	0.0000000E+000	0.0000000E+000	68.2634	0.0000000E+000	0.0000000E+000	0.0000000E+000	-68.2634	0.0000000E+000	0.0000000E+000	0.0000000E+000	-21.7366	0.0000000E+000	0.0000000E+000	0.0000000E+000	21.7366	2.50822	68.2634	-2.72474e-06
3171.96	4.26068	2.72049	5.05514	-32.5586	227.87	0.458159	-0.00264982	18.4436	5.34162	1	38	0.00530015	0.00104847	0	-0.000119958	1.29387	0.724905	26.6044	3.24901e-05	2.11026e-05	2.90985e-05	1.86314e-05	3.0438e-05	2.94147e-05	0.224769	0.225523	3.09845	1.55355e-06	8.88191e-07	4.67026e-07	7.08221e-07	8.22306e-07	7.85216e-07	0.16673	0.106458	0.197818	32.5586	5341.62	8365.76	9925.66	-57.4414	0.0000000E+000	0.0000000E+000	0.0000000E+000	57.4414	0.0000000E+000	0.0000000E+000	0.0000000E+000	-57.4414	0.0000000E+000	0.0000000E+000	0.0000000E+000	-32.5586	0.0000000E+000	0.0000000E+000	0.0000000E+000	32.5586	1.56615	57.4414	-3.75211e-07
1589.49	4.95309	4.87563	6.95017	-44.5485	231.19	0.458148	-0.00252135	20.5367	10.1065	1	38	0.00532272	0.000765841	0	-0.000123204	1.52466	0.488198	28.6007	3.9967e-05	1.86679e-05	3.41573e-05	2.85136e-05	3.76155e-05	3.09283e-05	0.344927	0.191295	4.24919	1.82205e-06	9.2475e-07	5.1026e-07	9.69864e-07	7.6934e-07	8.82417e-07	0.102538	0.100935	0.143881	44.5485	10106.5	10267.1	14406.8	-45.4515	0.0000000E+000	0.0000000E+000	0.0000000E+000	45.4515	0.0000000E+000	0.0000000E+000	0.0000000E+000	-45.4515	0.0000000E+000	0.0000000E+000	0.0000000E+000	-44.5485	0.0000000E+000	0.0000000E+000	0.0000000E+000	44.5485	1.01589	45.4515	-4.00742e-07
796.787	6.61596	8.54338	10.8056	-52.2459	234.511	0.458146	-0.00273175	23.3802	14.6155	1	38	0.00505129	0.000467471	0	-0.000126127	1.37347	0.862849	28.7406	3.01967e-05	2.57988e-05	2.01777e-05	2.30392e-05	3.53246e-05	2.76145e-05	0.672912	0.236082	6.87911	2.26269e-06	1.10714e-06	4.97819e-07	9.40241e-07	1.28363e-06	7.05729e-07	0.0566628	0.0731703	0.0925449	52.2459	14615.5	11318.2	18485.5	-37.7541	0.0000000E+000	0.0000000E+000	0.0000000E+000	37.7541	0.0000000E+000	0.0000000E+000	0.0000000E+000	-37.7541	0.0000000E+000	0.0000000E+000	0.0000000E+000	-52.2459	0.0000000E+000	0.0000000E+000	0.0000000E+000	52.2459	0.774396	37.7541	-1.21875e-06
399.106	10.7685	14.0642	17.7134	-52.56	237.835	0.458171	0.00131981	28.3541	17.875	1	38	0.00496126	0.000280086	0	-0.000125442	1.44868	0.989412	30.286	2.85903e-05	3.83234e-05	2.00902e-05	3.03191e-05	2.01169e-05	2.50977e-05	0.828577	0.35508	11.4173	1.45278e-06	6.25573e-07	7.23734e-07	1.15613e-06	6.12201e-07	4.76785e-07	0.0343204	0.0448244	0.0564546	52.56	17875	13686.2	22512.9	-37.44	0.0000000E+000	0.0000000E+000	0.0000000E+000	37.44	0.0000000E+000	0.0000000E+000	0.0000000E+000	-37.44	0.0000000E+000	0.0000000E+000	0.0000000E+000	-52.56	0.0000000E+000	0.0000000E+000	0.0000000E+000	52.56	0.765663	37.44	4.38369e-07
199.936	18.7309	20.3313	27.6443	-47.3461	241.401	0.458203	0.000448962	39.1528	21.1778	1	39	0.00501205	0.000181305	0	-0.000124741	1.52668	0.802746	30.1689	2.21391e-05	1.89451e-05	1.78644e-05	3.21861e-05	3.91794e-05	3.3877e-05	0.687459	0.227381	8.63526	7.26851e-07	4.2201e-07	3.84019e-07	6.23228e-07	2.9046e-07	3.74507e-07	0.0245102	0.0266044	0.0361738	47.3461	21177.8	19510.8	28795.3	-42.6539	0.0000000E+000	0.0000000E+000	0.0000000E+000	42.6539	0.0000000E+000	0.0000000E+000	0.0000000E+000	-42.6539	0.0000000E+000	0.0000000E+000	0.0000000E+000	-47.3461	0.0000000E+000	0.0000000E+000	0.0000000E+000	47.3461	0.921284	42.6539	1.10862e-07
100.224	30.4773	24.6369	39.1898	-38.951	244.716	0.458188	0.000565633	64.4555	25.4733	1	39	0.00496398	0.000126665	0	-0.000124162	1.60514	0.721318	29.855	3.25447e-05	3.1688e-05	2.9303e-05	3.01879e-05	2.28425e-05	3.40593e-05	0.575803	0.222904	11.7137	3.14427e-07	3.2514e-07	3.3123e-07	2.09416e-07	1.35535e-07	3.11716e-07	0.019844	0.0160413	0.0255168	38.951	25473.3	31512	40520.3	-51.049	0.0000000E+000	0.0000000E+000	0.0000000E+000	51.049	0.0000000E+000	0.0000000E+000	0.0000000E+000	-51.049	0.0000000E+000	0.0000000E+000	0.0000000E+000	-38.951	0.0000000E+000	0.0000000E+000	0.0000000E+000	38.951	1.23706	51.049	1.21342e-07
50.2089	42.4688	26.7029	50.1661	-32.1603	247.944	0.458177	0.000397146	118.708	33.6339	1	39	0.00493783	9.84296e-05	0	-0.000123639	1.73856	1.101	30.05	3.09491e-05	2.99007e-05	4.08617e-05	2.66062e-05	3.972e-05	2.65288e-05	0.913017	0.504194	15.6269	4.78638e-07	3.60143e-07	2.15229e-07	1.87474e-07	4.51786e-07	3.2603e-07	0.0168752	0.0106105	0.0199338	32.1603	33633.9	53491.9	63187.2	-57.8397	0.0000000E+000	0.0000000E+000	0.0000000E+000	57.8397	0.0000000E+000	0.0000000E+000	0.0000000E+000	-57.8397	0.0000000E+000	0.0000000E+000	0.0000000E+000	-32.1603	0.0000000E+000	0.0000000E+000	0.0000000E+000	32.1603	1.59042	57.8397	1.6842e-07
25.1691	53.6326	28.5982	60.7808	-28.0677	251.121	0.458178	0.000540098	221.112	48.9506	1	39	0.00491081	8.07954e-05	0	-0.000123649	1.40686	0.907446	29.7058	3.39385e-05	1.5756e-05	2.99114e-05	2.21374e-05	3.22041e-05	1.34957e-05	0.96696	0.917949	19.3066	3.56279e-07	2.87671e-07	4.29495e-07	1.77866e-07	2.763e-07	1.40615e-07	0.0145176	0.00774116	0.0164526	28.0677	48950.6	91801	104036	-61.9323	0.0000000E+000	0.0000000E+000	0.0000000E+000	61.9323	0.0000000E+000	0.0000000E+000	0.0000000E+000	-61.9323	0.0000000E+000	0.0000000E+000	0.0000000E+000	-28.0677	0.0000000E+000	0.0000000E+000	0.0000000E+000	28.0677	1.87538	61.9323	-6.60462e-08
12.6144	65.8818	32.3277	73.3859	-26.1369	254.399	0.458176	0.000318772	390.283	75.7365	1	39	0.00493316	6.72223e-05	0	-0.000123014	1.18478	0.611385	21.5829	1.68915e-05	1.15844e-05	2.74464e-05	2.70688e-05	2.03763e-05	2.49607e-05	0.908961	0.467209	16.4725	2.02233e-07	1.40726e-07	1.12584e-07	2.35864e-07	2.753e-07	3.52133e-07	0.0122332	0.00600275	0.0136266	26.1369	75736.5	154346	171926	-63.8631	0.0000000E+000	0.0000000E+000	0.0000000E+000	63.8631	0.0000000E+000	0.0000000E+000	0.0000000E+000	-63.8631	0.0000000E+000	0.0000000E+000	0.0000000E+000	-26.1369	0.0000000E+000	0.0000000E+000	0.0000000E+000	26.1369	2.03793	63.8631	5.36098e-07
6.31569	79.4105	38.4135	88.2136	-25.8146	258.048	0.458166	0.000467316	656.018	124.398	1	39	0.00492646	5.5847e-05	0	-0.000122116	1.21066	0.627684	21.1476	1.85167e-05	2.87493e-05	3.28787e-05	1.44708e-05	9.84809e-06	2.45719e-05	1.07127	0.477684	19.7463	2.05896e-07	3.06367e-07	2.7271e-07	2.19468e-07	1.81067e-07	2.2371e-07	0.0102049	0.00493643	0.0113361	25.8146	124398	257162	285670	-64.1854	0.0000000E+000	0.0000000E+000	0.0000000E+000	64.1854	0.0000000E+000	0.0000000E+000	0.0000000E+000	-64.1854	0.0000000E+000	0.0000000E+000	0.0000000E+000	-25.8146	0.0000000E+000	0.0000000E+000	0.0000000E+000	25.8146	2.06726	64.1854	8.88364e-07
3.16616	94.6969	48.3962	106.347	-27.07	264.341	0.45818	0.000580341	1038.66	215.104	1	40	0.00491117	4.61806e-05	0	-0.000121653	0.935922	0.757794	22.1703	1.2933e-05	1.08528e-05	1.70804e-05	1.56163e-05	2.72371e-05	1.38109e-05	0.324582	0.0963612	2.97386	1.21193e-07	4.31844e-08	1.58857e-08	5.01922e-08	3.28348e-08	2.48363e-08	0.00837307	0.00427918	0.00940317	27.07	215104	420893	472674	-62.93	0.0000000E+000	0.0000000E+000	0.0000000E+000	62.93	0.0000000E+000	0.0000000E+000	0.0000000E+000	-62.93	0.0000000E+000	0.0000000E+000	0.0000000E+000	-27.07	0.0000000E+000	0.0000000E+000	0.0000000E+000	27.07	1.9567	62.93	-5.4674e-07
1.5871	115.92	61.8893	131.407	-28.0976	274.77	0.458192	0.000650602	1620.32	359.415	1	40	0.00490501	3.7327e-05	0	-0.000118062	0.774248	0.555054	15.3938	1.50827e-05	1.29688e-05	1.60901e-05	1.85816e-05	9.20344e-06	1.33196e-05	0.302091	0.284348	2.6456	6.68106e-08	4.46641e-08	3.09181e-08	5.27919e-08	1.58765e-08	2.09571e-08	0.0067131	0.00358411	0.00760997	28.0976	359415	673192	763130	-61.9024	0.0000000E+000	0.0000000E+000	0.0000000E+000	61.9024	0.0000000E+000	0.0000000E+000	0.0000000E+000	-61.9024	0.0000000E+000	0.0000000E+000	0.0000000E+000	-28.0976	0.0000000E+000	0.0000000E+000	0.0000000E+000	28.0976	1.87302	61.9024	2.30177e-06
0.79456	144.921	82.6711	166.843	-29.7028	297.011	0.458171	0.000643367	2422.92	594.879	1	41	0.00490847	2.94196e-05	0	-0.000116507	0.778539	0.419569	14.221	1.34241e-05	1.17119e-05	1.72113e-05	1.67594e-05	1.32541e-05	1.29472e-05	0.31219	0.0516684	0.652737	8.22029e-08	1.58232e-08	8.4765e-09	3.44391e-08	9.22053e-09	6.41541e-09	0.00520612	0.00296985	0.00599364	29.7028	594879	1.04282e+06	1.20056e+06	-60.2972	0.0000000E+000	0.0000000E+000	0.0000000E+000	60.2972	0.0000000E+000	0.0000000E+000	0.0000000E+000	-60.2972	0.0000000E+000	0.0000000E+000	0.0000000E+000	-29.7028	0.0000000E+000	0.0000000E+000	0.0000000E+000	29.7028	1.75299	60.2972	-8.38743e-07
0.398211	192.709	108.275	221.043	-29.3298	335.139	0.45817	0.000620331	3691.3	885.685	1	41	0.004911	2.22174e-05	0	-0.000108994	0.654759	0.372059	10.3541	6.57565e-06	1.15622e-05	1.67856e-05	8.56661e-06	1.31447e-05	1.6343e-05	0.383192	0.132082	0.812987	7.34813e-08	2.22992e-08	1.25625e-08	2.99275e-08	1.04054e-08	8.67184e-09	0.00394409	0.00221602	0.004524	29.3298	885685	1.57635e+06	1.80813e+06	-60.6703	0.0000000E+000	0.0000000E+000	0.0000000E+000	60.6703	0.0000000E+000	0.0000000E+000	0.0000000E+000	-60.6703	0.0000000E+000	0.0000000E+000	0.0000000E+000	-29.3298	0.0000000E+000	0.0000000E+000	0.0000000E+000	29.3298	1.77981	60.6703	-1.79558e-07
0.199573	266.361	113.354	289.478	-23.0529	410.292	0.458185	0.000780363	7035.27	1078.75	1	41	0.00491282	1.69713e-05	0	-8.99142e-05	0.488772	0.287905	7.48206	1.00551e-05	5.97898e-06	8.68827e-06	7.97739e-06	8.52014e-06	1.2417e-05	0.331223	0.146766	0.869509	4.83897e-08	9.05877e-09	5.8765e-09	2.35628e-08	7.03307e-09	5.31368e-09	0.00317863	0.00135271	0.00345449	23.0529	1.07875e+06	2.53488e+06	2.75487e+06	-66.9471	0.0000000E+000	0.0000000E+000	0.0000000E+000	66.9471	0.0000000E+000	0.0000000E+000	0.0000000E+000	-66.9471	0.0000000E+000	0.0000000E+000	0.0000000E+000	-23.0529	0.0000000E+000	0.0000000E+000	0.0000000E+000	23.0529	2.34982	66.9471	1.0302e-05
0.0999518	328.954	82.3622	339.108	-14.0565	559.346	0.45818	0.000925981	19333.1	1140.46	1	41	0.00490456	1.44631e-05	0	-6.0186e-05	0.326497	0.181066	5.94324	8.89941e-06	6.71363e-06	6.62562e-06	4.5463e-06	5.33863e-06	4.48672e-06	0.251876	0.113003	0.779944	2.99388e-08	9.0658e-09	5.72557e-09	1.62816e-08	3.75558e-09	4.16895e-09	0.00286061	0.00071623	0.00294892	14.0565	1.14046e+06	4.55501e+06	4.69561e+06	-75.9435	0.0000000E+000	0.0000000E+000	0.0000000E+000	75.9435	0.0000000E+000	0.0000000E+000	0.0000000E+000	-75.9435	0.0000000E+000	0.0000000E+000	0.0000000E+000	-14.0565	0.0000000E+000	0.0000000E+000	0.0000000E+000	14.0565	3.99399	75.9435	1.00579e-05
252347	3.15044	0.987603	3.30161	-17.4052	564.374	0.458267	-0.00119749	0.638614	0.0571417	2	38	0.00516327	0.00156387	0	-6.01071e-05	-1	-1	-1	0	0	0	0	0	0	-1	-1	-1	0	0	0	0	0	0	0.289015	0.0906008	0.302883	17.4052	57.1417	182.281	191.027	-72.5948	0.0000000E+000	0.0000000E+000	0.0000000E+000	72.5948	0.0000000E+000	0.0000000E+000	0.0000000E+000	-72.5948	0.0000000E+000	0.0000000E+000	0.0000000E+000	-17.4052	0.0000000E+000	0.0000000E+000	0.0000000E+000	17.4052	3.18998	72.5948	5.0445e-07
126447	3.15316	0.348172	3.17232	-6.30108	568.252	0.458271	-0.0155993	3.61507	0.0435461	2	37	0.00525001	0.00165494	0	-7.86499e-05	-1	-1	-1	0	0	0	0	0	0	-1	-1	-1	0	0	0	0	0	0	0.313322	0.0345971	0.315227	6.30108	43.5461	394.368	396.764	-83.6989	0.0000000E+000	0.0000000E+000	0.0000000E+000	83.6989	0.0000000E+000	0.0000000E+000	0.0000000E+000	-83.6989	0.0000000E+000	0.0000000E+000	0.0000000E+000	-6.30108	0.0000000E+000	0.0000000E+000	0.0000000E+000	6.30108	9.05633	83.6989	-5.74752e-06
63362.9	3.22563	0.507356	3.26529	-8.93876	571.696	0.458284	-0.0188563	4.95077	0.119524	2	37	0.0051749	0.00158482	0	-9.13322e-05	1.84966	0.884492	30.8644	3.67556e-05	4.41144e-05	4.0286e-05	5.3335e-05	2.02791e-05	2.07903e-05	0.597993	0.323551	11.1198	3.08676e-06	3.66392e-06	4.50467e-06	4.28339e-06	2.87967e-06	3.61976e-06	0.302532	0.047585	0.306252	8.93876	119.524	759.901	769.244	-81.0612	0.0000000E+000	0.0000000E+000	0.0000000E+000	81.0612	0.0000000E+000	0.0000000E+000	0.0000000E+000	-81.0612	0.0000000E+000	0.0000000E+000	0.0000000E+000	-8.93876	0.0000000E+000	0.0000000E+000	0.0000000E+000	8.93876	6.35773	81.0612	-6.83883e-06
31751	3.45311	0.672153	3.51792	-11.0149	575.14	0.458302	-0.0204941	7.45752	0.272243	2	37	0.00517726	0.00147168	0	-0.000109316	1.69422	0.988089	30.7465	2.38075e-05	2.81115e-05	3.65527e-05	3.51328e-05	2.83296e-05	4.00523e-05	0.756222	0.347922	12.1031	6.68412e-06	2.28719e-06	4.2684e-06	2.378e-06	4.90626e-06	3.51362e-06	0.279022	0.0543119	0.284259	11.0149	272.243	1398.62	1424.87	-78.9851	0.0000000E+000	0.0000000E+000	0.0000000E+000	78.9851	0.0000000E+000	0.0000000E+000	0.0000000E+000	-78.9851	0.0000000E+000	0.0000000E+000	0.0000000E+000	-11.0149	0.0000000E+000	0.0000000E+000	0.0000000E+000	11.0149	5.1374	78.9851	-4.13003e-06
15912.6	3.65575	0.914255	3.76834	-14.0409	578.584	0.458254	-0.00893647	10.9398	0.64394	2	37	0.00512642	0.00136039	0	-0.000123806	1.83673	0.794318	31.4935	2.54047e-05	2.21841e-05	3.88121e-05	3.98971e-05	5.45931e-05	3.60879e-05	0.702528	0.479985	13.0877	3.06883e-06	2.79807e-06	1.36045e-06	4.99826e-06	3.79057e-06	4.51848e-06	0.25744	0.0643824	0.265369	14.0409	643.94	2574.87	2654.17	-75.9591	0.0000000E+000	0.0000000E+000	0.0000000E+000	75.9591	0.0000000E+000	0.0000000E+000	0.0000000E+000	-75.9591	0.0000000E+000	0.0000000E+000	0.0000000E+000	-14.0409	0.0000000E+000	0.0000000E+000	0.0000000E+000	14.0409	3.99861	75.9591	-2.69737e-06
7967.67	3.85886	1.34192	4.08553	-19.1751	582.057	0.458135	-0.0101462	14.8855	1.6059	2	37	0.00514633	0.00125965	0	-0.000134383	1.97076	0.627661	30.8983	4.63782e-05	2.81103e-05	4.36779e-05	4.45073e-05	3.6966e-05	1.78978e-05	0.72811	0.423829	14.2072	2.09628e-06	3.32517e-06	3.94316e-06	3.76325e-06	3.77375e-06	3.10227e-06	0.231187	0.0803951	0.244766	19.1751	1605.9	4617.98	4889.24	-70.8249	0.0000000E+000	0.0000000E+000	0.0000000E+000	70.8249	0.0000000E+000	0.0000000E+000	0.0000000E+000	-70.8249	0.0000000E+000	0.0000000E+000	0.0000000E+000	-19.1751	0.0000000E+000	0.0000000E+000	0.0000000E+000	19.1751	2.87563	70.8249	-1.7529e-06
3993.72	4.16464	2.3476	4.78074	-29.4098	586.365	0.45816	9.46772e-05	16.9753	4.09332	2	38	0.00511046	0.00106897	0	-0.00013641	1.57253	0.971452	29.6409	3.63363e-05	3.13821e-05	3.05156e-05	2.00459e-05	3.27955e-05	2.27259e-05	0.168005	0.233954	3.18641	1.09341e-06	7.52806e-07	5.16184e-07	4.67701e-07	5.82145e-07	4.48563e-07	0.182216	0.102715	0.209173	29.4098	4093.32	7261.56	8335.8	-60.5901	0.0000000E+000	0.0000000E+000	0.0000000E+000	60.5901	0.0000000E+000	0.0000000E+000	0.0000000E+000	-60.5901	0.0000000E+000	0.0000000E+000	0.0000000E+000	-29.4098	0.0000000E+000	0.0000000E+000	0.0000000E+000	29.4098	1.774	60.5901	2.1521e-06
2001.92	4.63034	4.2133	6.26034	-42.3001	589.683	0.458152	-0.000164134	18.8691	8.54672	2	38	0.00541104	0.000864336	0	-0.000136468	1.33466	1.04383	27.2918	3.99686e-05	3.4369e-05	2.27919e-05	2.15442e-05	1.98047e-05	2.11244e-05	0.274807	0.195355	3.80548	1.45808e-06	8.52596e-07	8.10867e-07	1.1122e-06	5.16972e-07	4.57048e-07	0.118145	0.107504	0.159736	42.3001	8546.72	9392.69	12699.2	-47.6999	0.0000000E+000	0.0000000E+000	0.0000000E+000	47.6999	0.0000000E+000	0.0000000E+000	0.0000000E+000	-47.6999	0.0000000E+000	0.0000000E+000	0.0000000E+000	-42.3001	0.0000000E+000	0.0000000E+000	0.0000000E+000	42.3001	1.09898	47.6999	-3.36436e-07
1002.75	5.77592	7.51266	9.47636	-52.446	593.005	0.458201	-0.00107091	21.1268	13.2782	2	38	0.00510532	0.000538743	0	-0.000136805	1.4319	0.765819	30.0574	1.85243e-05	3.4606e-05	3.04796e-05	2.49739e-05	2.02161e-05	3.40707e-05	0.452686	0.205764	6.09076	1.63714e-06	1.0326e-06	3.77121e-07	7.83983e-07	2.05261e-07	8.6695e-07	0.0643188	0.0836587	0.105526	52.446	13278.2	10208.6	16748.9	-37.554	0.0000000E+000	0.0000000E+000	0.0000000E+000	37.554	0.0000000E+000	0.0000000E+000	0.0000000E+000	-37.554	0.0000000E+000	0.0000000E+000	0.0000000E+000	-52.446	0.0000000E+000	0.0000000E+000	0.0000000E+000	52.446	0.768824	37.554	-3.09877e-07
502.588	8.78582	13.2263	15.8785	-56.4052	596.326	0.458202	0.00296017	23.9425	16.6123	2	38	0.00499646	0.000314668	0	-0.000135436	1.90107	0.781974	29.9144	3.44611e-05	2.547e-05	5.04512e-05	4.05394e-05	1.98369e-05	4.8471e-05	0.716762	0.336357	10.2599	9.68191e-07	1.24005e-06	5.17787e-07	4.42724e-07	8.01485e-07	8.5484e-07	0.0348469	0.0524591	0.0629783	56.4052	16612.3	11035	19943.4	-33.5948	0.0000000E+000	0.0000000E+000	0.0000000E+000	33.5948	0.0000000E+000	0.0000000E+000	0.0000000E+000	-33.5948	0.0000000E+000	0.0000000E+000	0.0000000E+000	-56.4052	0.0000000E+000	0.0000000E+000	0.0000000E+000	56.4052	0.664268	33.5948	4.24783e-07
251.853	15.6459	20.6425	25.9019	-52.8399	599.64	0.458176	0.00146876	30.6132	19.4434	2	38	0.00493725	0.000190613	0	-0.000134061	1.39763	0.706769	31.6612	2.6589e-05	3.46606e-05	1.22556e-05	3.54573e-05	2.24854e-05	2.11445e-05	1.12535	0.371893	17.1764	1.26805e-06	7.66139e-07	8.44849e-07	6.35608e-07	8.31894e-07	5.66499e-07	0.0233205	0.030768	0.0386072	52.8399	19443.4	14737	24397.2	-37.1601	0.0000000E+000	0.0000000E+000	0.0000000E+000	37.1601	0.0000000E+000	0.0000000E+000	0.0000000E+000	-37.1601	0.0000000E+000	0.0000000E+000	0.0000000E+000	-52.8399	0.0000000E+000	0.0000000E+000	0.0000000E+000	52.8399	0.757945	37.1601	5.18369e-07
126.171	27.9105	27.4577	39.1525	-44.5314	603.209	0.458198	0.000817058	45.9406	22.5946	2	39	0.00495755	0.000126621	0	-0.000132961	1.45703	0.456735	30.2907	3.00627e-05	2.84785e-05	2.72506e-05	2.91008e-05	2.37228e-05	2.12297e-05	0.753127	0.272813	12.134	4.40938e-07	4.09066e-07	3.14455e-07	4.35122e-07	2.33046e-07	4.17573e-07	0.0182074	0.017912	0.0255411	44.5314	22594.6	22967.2	32218.1	-45.4686	0.0000000E+000	0.0000000E+000	0.0000000E+000	45.4686	0.0000000E+000	0.0000000E+000	0.0000000E+000	-45.4686	0.0000000E+000	0.0000000E+000	0.0000000E+000	-44.5314	0.0000000E+000	0.0000000E+000	0.0000000E+000	44.5314	1.01649	45.4686	2.02086e-07
63.2394	42.839	30.7509	52.7333	-35.6717	606.479	0.458188	0.000855452	81.8417	27.8305	2	39	0.00493252	9.35373e-05	0	-0.000132096	1.54287	0.759461	30.0232	2.60175e-05	2.85457e-05	2.49382e-05	3.34081e-05	3.49567e-05	3.29371e-05	0.840807	0.49252	16.247	3.7655e-07	1.88201e-07	2.28329e-07	1.56936e-07	4.20905e-07	3.29323e-07	0.0154053	0.0110583	0.0189634	35.6717	27830.5	38770.6	47725.2	-54.3283	0.0000000E+000	0.0000000E+000	0.0000000E+000	54.3283	0.0000000E+000	0.0000000E+000	0.0000000E+000	-54.3283	0.0000000E+000	0.0000000E+000	0.0000000E+000	-35.6717	0.0000000E+000	0.0000000E+000	0.0000000E+000	35.6717	1.3931	54.3283	2.43664e-07
31.6723	57.2181	32.3189	65.7147	-29.4594	609.654	0.458189	0.00105171	155.483	37.6073	2	39	0.00492981	7.50184e-05	0	-0.000130884	1.20426	0.723351	30.8536	1.50791e-05	2.86123e-05	2.0248e-05	2.35838e-05	2.16332e-05	2.48247e-05	1.03662	0.379124	20.5712	3.22031e-07	2.65655e-07	3.2445e-07	2.74906e-07	2.46399e-07	3.32603e-07	0.0132498	0.00748395	0.0152173	29.4594	37607.3	66580.8	76467.7	-60.5406	0.0000000E+000	0.0000000E+000	0.0000000E+000	60.5406	0.0000000E+000	0.0000000E+000	0.0000000E+000	-60.5406	0.0000000E+000	0.0000000E+000	0.0000000E+000	-29.4594	0.0000000E+000	0.0000000E+000	0.0000000E+000	29.4594	1.77042	60.5406	3.6815e-07
15.879	70.0993	34.1968	77.9957	-26.0047	612.826	0.458182	0.00113353	293.096	56.3429	2	39	0.00490708	6.29148e-05	0	-0.000129787	1.72315	1.0641	30.6859	2.6632e-05	2.7195e-05	3.3043e-05	1.85979e-05	5.31117e-05	3.32515e-05	1.27712	0.686993	24.5919	3.59658e-07	2.27288e-07	2.89451e-07	2.65092e-07	2.81666e-07	3.93085e-07	0.0115232	0.00562139	0.0128212	26.0047	56342.9	115496	128506	-63.9953	0.0000000E+000	0.0000000E+000	0.0000000E+000	63.9953	0.0000000E+000	0.0000000E+000	0.0000000E+000	-63.9953	0.0000000E+000	0.0000000E+000	0.0000000E+000	-26.0047	0.0000000E+000	0.0000000E+000	0.0000000E+000	26.0047	2.04988	63.9953	5.31162e-07
7.95573	85.11	37.9819	93.2005	-24.0497	616.262	0.458192	0.000991881	526.7	87.4742	2	39	0.00491674	5.27545e-05	0	-0.000128877	1.10843	0.311296	20.6402	2.45194e-05	1.25931e-05	2.62978e-05	2.23759e-05	1.85805e-05	1.85673e-05	1.07525	0.401029	20.3041	1.58606e-07	1.77381e-07	2.08866e-07	2.63933e-07	2.76507e-07	1.26728e-07	0.00979815	0.0043726	0.0107296	24.0497	87474.2	196013	214646	-65.9503	0.0000000E+000	0.0000000E+000	0.0000000E+000	65.9503	0.0000000E+000	0.0000000E+000	0.0000000E+000	-65.9503	0.0000000E+000	0.0000000E+000	0.0000000E+000	-24.0497	0.0000000E+000	0.0000000E+000	0.0000000E+000	24.0497	2.24081	65.9503	5.00788e-07
3.98597	100.404	46.214	110.53	-24.7156	621.631	0.458172	0.00101526	863.998	151.044	2	40	0.00491018	4.44242e-05	0	-0.000128429	1.72238	0.76173	26.5887	2.20586e-05	2.10858e-05	3.23697e-05	4.11654e-05	4.75658e-05	2.02894e-05	0.489596	0.310734	3.66867	1.73492e-07	6.76154e-08	5.83039e-08	5.29571e-08	5.92801e-08	3.49134e-08	0.00821857	0.00378283	0.00904736	24.7156	151044	328157	361250	-65.2844	0.0000000E+000	0.0000000E+000	0.0000000E+000	65.2844	0.0000000E+000	0.0000000E+000	0.0000000E+000	-65.2844	0.0000000E+000	0.0000000E+000	0.0000000E+000	-24.7156	0.0000000E+000	0.0000000E+000	0.0000000E+000	24.7156	2.1726	65.2844	-3.24778e-07
1.99783	120.429	57.9123	133.63	-25.682	630.16	0.458185	0.00100672	1375.6	258.358	2	40	0.00491207	3.67586e-05	0	-0.000125729	0.935411	0.34515	16.7061	2.22383e-05	1.85419e-05	7.43964e-06	1.51195e-05	2.08571e-05	2.10539e-05	0.438752	0.282082	2.84029	1.42375e-07	3.53989e-08	2.09764e-08	4.14346e-08	2.85707e-08	2.77924e-08	0.00674407	0.0032431	0.00748333	25.682	258358	537260	596152	-64.318	0.0000000E+000	0.0000000E+000	0.0000000E+000	64.318	0.0000000E+000	0.0000000E+000	0.0000000E+000	-64.318	0.0000000E+000	0.0000000E+000	0.0000000E+000	-25.682	0.0000000E+000	0.0000000E+000	0.0000000E+000	25.682	2.07952	64.318	3.19813e-07
1.00122	146.343	76.2997	165.039	-27.5364	648.074	0.45819	0.00102641	2083.38	445.287	2	41	0.00492304	2.98295e-05	0	-0.000121813	0.841217	0.465343	16.7217	1.619e-05	1.17934e-05	1.42402e-05	1.91149e-05	9.41887e-06	2.06192e-05	0.325843	0.0722201	0.69168	8.855e-08	1.978e-08	6.41573e-09	2.88508e-08	6.08708e-09	1.34308e-08	0.00537276	0.00280122	0.00605916	27.5364	445287	854062	963173	-62.4636	0.0000000E+000	0.0000000E+000	0.0000000E+000	62.4636	0.0000000E+000	0.0000000E+000	0.0000000E+000	-62.4636	0.0000000E+000	0.0000000E+000	0.0000000E+000	-27.5364	0.0000000E+000	0.0000000E+000	0.0000000E+000	27.5364	1.91801	62.4636	1.31805e-07
0.501541	186.194	100.334	211.507	-28.319	678.57	0.458162	0.00104025	3162.74	711.73	2	41	0.00490828	2.32063e-05	0	-0.000113985	0.804363	0.522135	11.6088	1.15292e-05	1.36176e-05	1.39146e-05	2.28735e-05	1.16275e-05	1.86288e-05	0.384454	0.213057	0.786959	7.88636e-08	1.7517e-08	9.47256e-09	3.04396e-08	8.92797e-09	1.06475e-08	0.00416214	0.00224286	0.00472798	28.319	711730	1.32078e+06	1.50034e+06	-61.681	0.0000000E+000	0.0000000E+000	0.0000000E+000	61.681	0.0000000E+000	0.0000000E+000	0.0000000E+000	-61.681	0.0000000E+000	0.0000000E+000	0.0000000E+000	-28.319	0.0000000E+000	0.0000000E+000	0.0000000E+000	28.319	1.85573	61.681	9.69252e-07
0.251222	252.541	116.147	277.969	-24.6984	738.465	0.458171	0.00108833	5454.49	952.31	2	41	0.00490777	1.76558e-05	0	-9.20459e-05	0.436855	0.328668	8.69327	7.19257e-06	7.77263e-06	6.16453e-06	1.03419e-05	5.97375e-06	1.1649e-05	0.340098	0.095924	0.881867	5.50979e-08	1.24933e-08	6.57445e-09	1.62462e-08	7.16384e-09	6.56083e-09	0.00326842	0.0015032	0.00359752	24.6984	952310	2.07062e+06	2.27912e+06	-65.3016	0.0000000E+000	0.0000000E+000	0.0000000E+000	65.3016	0.0000000E+000	0.0000000E+000	0.0000000E+000	-65.3016	0.0000000E+000	0.0000000E+000	0.0000000E+000	-24.6984	0.0000000E+000	0.0000000E+000	0.0000000E+000	24.6984	2.17431	65.3016	6.98402e-06
0.125939	323.511	95.2769	337.249	-16.4102	857.026	0.458176	0.00118807	13264	1058.64	2	41	0.00490878	1.45554e-05	0	-6.06275e-05	0.373539	0.263136	6.00489	5.95144e-06	8.14112e-06	7.98617e-06	7.60577e-06	7.00914e-06	4.82446e-06	0.278263	0.125909	0.869852	3.55586e-08	6.59786e-09	3.53952e-09	1.5848e-08	4.16042e-09	4.78031e-09	0.00284438	0.000837696	0.00296517	16.4102	1.05864e+06	3.59458e+06	3.74723e+06	-73.5898	0.0000000E+000	0.0000000E+000	0.0000000E+000	73.5898	0.0000000E+000	0.0000000E+000	0.0000000E+000	-73.5898	0.0000000E+000	0.0000000E+000	0.0000000E+000	-16.4102	0.0000000E+000	0.0000000E+000	0.0000000E+000	16.4102	3.39548	73.5898	1.6003e-05
317705	3.1651	1.1886	3.38092	-20.5829	922.466	0.458268	0.00152838	0.421462	0.052091	3	38	0.00506917	0.00149935	0	-3.62044e-05	-1	-1	-1	0	0	0	0	0	0	-1	-1	-1	0	0	0	0	0	0	0.276896	0.103984	0.295777	20.5829	52.091	138.712	148.17	-69.4171	0.0000000E+000	0.0000000E+000	0.0000000E+000	69.4171	0.0000000E+000	0.0000000E+000	0.0000000E+000	-69.4171	0.0000000E+000	0.0000000E+000	0.0000000E+000	-20.5829	0.0000000E+000	0.0000000E+000	0.0000000E+000	20.5829	2.66287	69.4171	2.43591e-06
159201	3.1411	0.357593	3.16139	-6.49478	926.345	0.458298	-0.00370671	2.79567	0.0357692	3	37	0.00514573	0.00162768	0	-3.39582e-05	-1	-1	-1	0	0	0	0	0	0	-1	-1	-1	0	0	0	0	0	0	0.314287	0.0357794	0.316317	6.49478	35.7691	314.197	316.226	-83.5052	0.0000000E+000	0.0000000E+000	0.0000000E+000	83.5052	0.0000000E+000	0.0000000E+000	0.0000000E+000	-83.5052	0.0000000E+000	0.0000000E+000	0.0000000E+000	-6.49478	0.0000000E+000	0.0000000E+000	0.0000000E+000	6.49478	8.78401	83.5052	2.37099e-06
79767.3	3.18965	0.455685	3.22204	-8.13046	929.789	0.458271	0.00239779	4.37856	0.0875787	3	37	0.00518014	0.00160772	0	-3.29198e-05	1.60949	0.888739	29.8125	1.9192e-05	5.83767e-05	2.4579e-05	2.69477e-05	1.5327e-05	3.65458e-05	0.494799	0.427353	11.0145	3.11699e-06	3.2514e-06	2.8174e-06	2.23219e-06	3.13117e-06	3.92485e-06	0.307243	0.0438938	0.310363	8.13046	87.5787	613.024	619.248	-81.8695	0.0000000E+000	0.0000000E+000	0.0000000E+000	81.8695	0.0000000E+000	0.0000000E+000	0.0000000E+000	-81.8695	0.0000000E+000	0.0000000E+000	0.0000000E+000	-8.13046	0.0000000E+000	0.0000000E+000	0.0000000E+000	8.13046	6.99969	81.8695	1.64843e-06
39971.8	3.36497	0.620427	3.42169	-10.4468	933.233	0.458293	0.00524532	6.41764	0.210996	3	37	0.00515989	0.00150799	0	-3.58857e-05	1.34009	1.15958	29.7905	3.25132e-05	2.70769e-05	3.01915e-05	1.74844e-05	2.178e-05	2.34526e-05	0.637317	0.340883	11.8935	3.32652e-06	5.42225e-06	2.69694e-06	3.03896e-06	3.18983e-06	3.63709e-06	0.287409	0.0529918	0.292253	10.4468	210.996	1144.37	1163.66	-79.5532	0.0000000E+000	0.0000000E+000	0.0000000E+000	79.5532	0.0000000E+000	0.0000000E+000	0.0000000E+000	-79.5532	0.0000000E+000	0.0000000E+000	0.0000000E+000	-10.4468	0.0000000E+000	0.0000000E+000	0.0000000E+000	10.4468	5.42364	79.5532	-3.64252e-07
20032.3	3.60294	0.835735	3.6986	-13.0593	936.678	0.458278	0.00792534	9.5065	0.485382	3	37	0.0051038	0.00137993	0	-3.55394e-05	1.61009	0.663194	30.8515	3.33657e-05	3.58537e-05	2.06617e-05	3.75135e-05	2.81103e-05	2.76652e-05	0.66571	0.573021	12.9619	2.23713e-06	3.56902e-06	3.87496e-06	4.32005e-06	3.41482e-06	4.0717e-06	0.26338	0.0610933	0.270373	13.0593	485.382	2092.53	2148.09	-76.9407	0.0000000E+000	0.0000000E+000	0.0000000E+000	76.9407	0.0000000E+000	0.0000000E+000	0.0000000E+000	-76.9407	0.0000000E+000	0.0000000E+000	0.0000000E+000	-13.0593	0.0000000E+000	0.0000000E+000	0.0000000E+000	13.0593	4.3111	76.9407	3.72875e-07
10039.3	3.8052	1.21381	3.99411	-17.692	940.121	0.458269	0.00208141	13.0607	1.20621	3	37	0.0050629	0.00126759	0	-3.57269e-05	1.82958	0.872389	30.8793	3.36159e-05	2.71446e-05	4.67284e-05	2.05139e-05	4.18511e-05	3.73982e-05	0.732605	0.728433	14.1601	2.8757e-06	3.11756e-06	3.88489e-06	3.01941e-06	2.66931e-06	4.17337e-06	0.238527	0.0760869	0.250369	17.692	1206.21	3781.4	3969.13	-72.308	0.0000000E+000	0.0000000E+000	0.0000000E+000	72.308	0.0000000E+000	0.0000000E+000	0.0000000E+000	-72.308	0.0000000E+000	0.0000000E+000	0.0000000E+000	-17.692	0.0000000E+000	0.0000000E+000	0.0000000E+000	17.692	3.13493	72.308	-1.78058e-07
5028.39	4.02274	2.00952	4.49673	-26.5439	943.687	0.458135	0.00132356	15.7507	3.14549	3	38	0.00523215	0.00116355	0	-3.45322e-05	1.35252	1.09322	28.4353	2.04938e-05	2.11222e-05	3.34932e-05	2.6085e-05	2.71175e-05	2.65874e-05	0.200557	0.250731	2.78852	1.07145e-06	4.11029e-07	1.28775e-06	8.21884e-07	6.19304e-07	8.70261e-07	0.198943	0.0993797	0.222384	26.5439	3145.49	6296.79	7038.73	-63.4561	0.0000000E+000	0.0000000E+000	0.0000000E+000	63.4561	0.0000000E+000	0.0000000E+000	0.0000000E+000	-63.4561	0.0000000E+000	0.0000000E+000	0.0000000E+000	-26.5439	0.0000000E+000	0.0000000E+000	0.0000000E+000	26.5439	2.00184	63.4561	-3.22854e-07
2519.19	4.39741	3.57462	5.66702	-39.1074	947.227	0.458145	0.000251079	17.6738	7.03201	3	38	0.00545345	0.000962314	0	-3.4262e-05	1.40745	0.914156	28.0583	3.24353e-05	3.53917e-05	2.11183e-05	3.21788e-05	3.02504e-05	2.62177e-05	0.274296	0.257526	3.41185	1.94152e-06	8.47396e-07	6.12762e-07	9.96817e-07	4.06654e-07	6.26143e-07	0.136926	0.111306	0.17646	39.1074	7032.01	8650.61	11148.2	-50.8926	0.0000000E+000	0.0000000E+000	0.0000000E+000	50.8926	0.0000000E+000	0.0000000E+000	0.0000000E+000	-50.8926	0.0000000E+000	0.0000000E+000	0.0000000E+000	-39.1074	0.0000000E+000	0.0000000E+000	0.0000000E+000	39.1074	1.23018	50.8926	8.97708e-07
1262.98	5.22846	6.46633	8.31566	-51.0421	950.545	0.458135	0.000346028	19.488	11.7839	3	38	0.00522157	0.00062792	0	-3.41062e-05	1.62556	1.14952	29.0165	4.34078e-05	3.26711e-05	2.68769e-05	2.48786e-05	2.52015e-05	3.56446e-05	0.428758	0.205015	5.16287	1.9699e-06	1.06647e-06	6.0423e-07	9.77175e-07	3.52113e-07	4.54992e-07	0.0756102	0.0935113	0.120255	51.0421	11783.9	9528.07	15154	-38.9579	0.0000000E+000	0.0000000E+000	0.0000000E+000	38.9579	0.0000000E+000	0.0000000E+000	0.0000000E+000	-38.9579	0.0000000E+000	0.0000000E+000	0.0000000E+000	-51.0421	0.0000000E+000	0.0000000E+000	0.0000000E+000	51.0421	0.808568	38.9579	6.51595e-07
632.773	7.44115	11.5735	13.7593	-57.2612	953.867	0.458184	0.0020441	21.7323	15.3762	3	38	0.00504017	0.000366311	0	-3.26908e-05	1.35633	0.525135	28.7311	1.83895e-05	3.28956e-05	2.67116e-05	2.6154e-05	2.72943e-05	2.3578e-05	0.743648	0.205788	8.80479	1.52611e-06	7.56358e-07	7.27523e-07	5.40635e-07	1.33087e-06	1.17987e-06	0.0393052	0.0611329	0.0726783	57.2612	15376.2	9886.03	18280	-32.7388	0.0000000E+000	0.0000000E+000	0.0000000E+000	32.7388	0.0000000E+000	0.0000000E+000	0.0000000E+000	-32.7388	0.0000000E+000	0.0000000E+000	0.0000000E+000	-57.2612	0.0000000E+000	0.0000000E+000	0.0000000E+000	57.2612	0.642946	32.7388	1.09798e-06
316.927	12.7379	19.3265	23.1467	-56.6115	957.187	0.458166	0.0033698	25.9841	18.115	3	38	0.00493152	0.000213055	0	-3.04189e-05	1.47031	0.713274	30.7129	1.04326e-05	3.10488e-05	2.43868e-05	2.97257e-05	3.45489e-05	2.54935e-05	1.03108	0.42663	15.1964	1.39643e-06	8.75458e-07	7.19934e-07	6.49141e-07	5.3884e-07	7.40063e-07	0.023775	0.0360725	0.0432028	56.6115	18115	11939.4	21695.7	-33.3885	0.0000000E+000	0.0000000E+000	0.0000000E+000	33.3885	0.0000000E+000	0.0000000E+000	0.0000000E+000	-33.3885	0.0000000E+000	0.0000000E+000	0.0000000E+000	-56.6115	0.0000000E+000	0.0000000E+000	0.0000000E+000	56.6115	0.65909	33.3885	1.04716e-06
158.831	23.9736	27.8254	36.7285	-49.2528	960.758	0.458166	0.0013091	36.0118	20.669	3	39	0.00494749	0.000134704	0	-2.8523e-05	1.74065	0.640631	29.2794	2.37339e-05	5.44173e-05	2.51225e-05	2.10317e-05	2.60483e-05	3.71463e-05	0.869362	0.294236	10.921	6.73408e-07	6.39826e-07	1.87661e-07	4.74105e-07	1.98856e-07	3.45729e-07	0.0177716	0.0206269	0.0272268	49.2528	20669	17807.8	27282.4	-40.7472	0.0000000E+000	0.0000000E+000	0.0000000E+000	40.7472	0.0000000E+000	0.0000000E+000	0.0000000E+000	-40.7472	0.0000000E+000	0.0000000E+000	0.0000000E+000	-49.2528	0.0000000E+000	0.0000000E+000	0.0000000E+000	49.2528	0.861571	40.7472	5.87597e-07
79.6177	39.6654	34.022	52.2574	-40.6205	964.045	0.458162	0.00127089	58.7558	24.9043	3	39	0.0049014	9.37934e-05	0	-2.75977e-05	1.8147	0.595067	30.096	4.32299e-05	3.42139e-05	3.46101e-05	3.5151e-05	1.30186e-05	3.35991e-05	0.981892	0.328048	16.1637	3.43164e-07	4.74527e-07	2.96285e-07	3.33599e-07	2.58655e-07	3.68299e-07	0.014525	0.0124584	0.019136	40.6205	24904.3	29035.3	38252.7	-49.3795	0.0000000E+000	0.0000000E+000	0.0000000E+000	49.3795	0.0000000E+000	0.0000000E+000	0.0000000E+000	-49.3795	0.0000000E+000	0.0000000E+000	0.0000000E+000	-40.6205	0.0000000E+000	0.0000000E+000	0.0000000E+000	40.6205	1.16587	49.3795	3.23025e-07
39.8851	57.1035	35.7583	67.3756	-32.0549	967.261	0.458174	0.00117472	111.592	31.4327	3	39	0.0049069	7.28291e-05	0	-2.64577e-05	1.44457	0.802877	30.7746	1.35265e-05	3.07298e-05	2.76547e-05	2.98319e-05	1.38322e-05	3.32614e-05	0.980889	0.706836	21.9635	2.81718e-07	1.92736e-07	4.17232e-07	2.29139e-07	1.43601e-07	2.75157e-07	0.0125793	0.0078772	0.0148422	32.0549	31432.7	50195.8	59225.2	-57.9451	0.0000000E+000	0.0000000E+000	0.0000000E+000	57.9451	0.0000000E+000	0.0000000E+000	0.0000000E+000	-57.9451	0.0000000E+000	0.0000000E+000	0.0000000E+000	-32.0549	0.0000000E+000	0.0000000E+000	0.0000000E+000	32.0549	1.59693	57.9451	3.21716e-07
19.9808	73.3264	36.797	82.0413	-26.6486	970.435	0.45815	0.001658	216.468	43.5465	3	39	0.00490764	5.98191e-05	0	-2.53319e-05	2.18678	0.72613	30.2088	5.12192e-05	2.75298e-05	4.4682e-05	4.71037e-05	3.21563e-05	4.54082e-05	1.71675	0.539007	25.3045	3.93094e-07	1.7556e-07	3.59679e-07	4.86967e-07	4.17868e-07	3.41992e-07	0.0108942	0.00546697	0.012189	26.6486	43546.5	86776.4	97089.9	-63.3514	0.0000000E+000	0.0000000E+000	0.0000000E+000	63.3514	0.0000000E+000	0.0000000E+000	0.0000000E+000	-63.3514	0.0000000E+000	0.0000000E+000	0.0000000E+000	-26.6486	0.0000000E+000	0.0000000E+000	0.0000000E+000	26.6486	1.99273	63.3514	4.40629e-07
10.016	87.9297	39.4341	96.3674	-24.1549	973.704	0.458189	0.00126642	402.951	67.4738	3	39	0.00490279	5.0876e-05	0	-2.40378e-05	1.50467	1.03813	30.3984	3.12893e-05	2.19831e-05	2.5297e-05	3.65457e-05	1.95391e-05	3.04861e-05	1.57293	0.988492	30.1526	4.06758e-07	2.50402e-07	1.75825e-07	3.10841e-07	2.21615e-07	4.26093e-07	0.00946837	0.0042463	0.010377	24.1549	67473.8	150452	164890	-65.8451	0.0000000E+000	0.0000000E+000	0.0000000E+000	65.8451	0.0000000E+000	0.0000000E+000	0.0000000E+000	-65.8451	0.0000000E+000	0.0000000E+000	0.0000000E+000	-24.1549	0.0000000E+000	0.0000000E+000	0.0000000E+000	24.1549	2.22979	65.8451	7.55772e-07
5.01766	104.187	45.8645	113.836	-23.7597	978.279	0.45817	0.0012754	691.58	112.264	3	40	0.00491743	4.31977e-05	0	-2.24349e-05	1.82267	0.819008	29.6279	4.01564e-05	3.03947e-05	2.65908e-05	3.74071e-05	3.08906e-05	3.87493e-05	0.38664	0.256243	4.12338	1.27958e-07	5.02936e-08	4.16755e-08	3.44564e-08	3.65793e-08	5.10121e-08	0.00804005	0.00353932	0.0087846	23.7597	112264	255022	278638	-66.2403	0.0000000E+000	0.0000000E+000	0.0000000E+000	66.2403	0.0000000E+000	0.0000000E+000	0.0000000E+000	-66.2403	0.0000000E+000	0.0000000E+000	0.0000000E+000	-23.7597	0.0000000E+000	0.0000000E+000	0.0000000E+000	23.7597	2.27163	66.2403	7.5793e-07
2.51368	123.219	55.1698	135.006	-24.1198	985.306	0.458176	0.00129583	1147.65	191.648	3	40	0.00490658	3.63433e-05	0	-1.98527e-05	0.989603	0.517023	19.4054	1.12354e-05	6.78914e-06	1.85323e-05	2.39193e-05	2.35267e-05	2.46303e-05	0.44731	0.216868	3.32417	1.4337e-07	3.55607e-08	2.78088e-08	3.45727e-08	2.84306e-08	2.04563e-08	0.00676037	0.00302687	0.00740706	24.1198	191648	428037	468983	-65.8802	0.0000000E+000	0.0000000E+000	0.0000000E+000	65.8802	0.0000000E+000	0.0000000E+000	0.0000000E+000	-65.8802	0.0000000E+000	0.0000000E+000	0.0000000E+000	-24.1198	0.0000000E+000	0.0000000E+000	0.0000000E+000	24.1198	2.23346	65.8802	1.12638e-06
1.25968	147.321	71.1512	163.603	-25.779	998.143	0.458175	0.00131225	1775.74	335.862	3	40	0.00491569	3.00464e-05	0	-1.46065e-05	0.820935	0.285181	13.6441	1.35809e-05	1.43959e-05	8.52886e-06	1.99045e-05	1.60705e-05	1.65922e-05	0.400797	0.310925	2.89957	9.64954e-08	3.51463e-08	2.92937e-08	3.78257e-08	2.11035e-08	1.76987e-08	0.00550405	0.00265828	0.00611236	25.779	335862	695413	772271	-64.221	0.0000000E+000	0.0000000E+000	0.0000000E+000	64.221	0.0000000E+000	0.0000000E+000	0.0000000E+000	-64.221	0.0000000E+000	0.0000000E+000	0.0000000E+000	-25.779	0.0000000E+000	0.0000000E+000	0.0000000E+000	25.779	2.07053	64.221	3.65077e-06
0.631645	182.06	92.885	204.386	-27.0301	1024.65	0.458191	0.00131901	2712.7	560.262	3	41	0.00492057	2.40749e-05	0	-4.8477e-06	0.613232	0.430287	13.2225	7.25171e-06	9.51399e-06	1.02153e-05	1.62691e-05	1.39999e-05	1.1279e-05	0.440825	0.280557	0.803528	9.70593e-08	2.01016e-08	1.35792e-08	2.35398e-08	1.38011e-08	1.58051e-08	0.00435827	0.00222354	0.00489271	27.0301	560262	1.09815e+06	1.23281e+06	-62.9699	0.0000000E+000	0.0000000E+000	0.0000000E+000	62.9699	0.0000000E+000	0.0000000E+000	0.0000000E+000	-62.9699	0.0000000E+000	0.0000000E+000	0.0000000E+000	-27.0301	0.0000000E+000	0.0000000E+000	0.0000000E+000	27.0301	1.96006	62.9699	3.8451e-06
0.316193	239.105	114.482	265.099	-25.5848	1072.41	0.458198	0.00138281	4396.74	819.954	3	41	0.00490775	1.85129e-05	0	1.45742e-05	0.543809	0.254243	9.60126	7.88556e-06	7.1689e-06	9.21599e-06	1.09064e-05	1.54309e-05	7.83584e-06	0.359827	0.14657	0.832173	5.89027e-08	1.4e-08	9.27702e-09	1.88479e-08	7.20238e-09	7.65528e-09	0.00340231	0.001629	0.00377218	25.5848	819954	1.71254e+06	1.89872e+06	-64.4152	0.0000000E+000	0.0000000E+000	0.0000000E+000	64.4152	0.0000000E+000	0.0000000E+000	0.0000000E+000	-64.4152	0.0000000E+000	0.0000000E+000	0.0000000E+000	-25.5848	0.0000000E+000	0.0000000E+000	0.0000000E+000	25.5848	2.08858	64.4152	1.05729e-05
0.158419	313.6	105.817	330.971	-18.6457	1166.8	0.458205	0.00149565	9494.21	970.481	3	41	0.0049075	1.48276e-05	0	4.67554e-05	0.353649	0.125793	6.4459	5.94572e-06	9.99949e-06	7.72764e-06	5.34256e-06	3.39177e-06	6.91684e-06	0.309517	0.0852316	0.873144	4.03861e-08	5.40103e-09	6.26854e-09	1.93904e-08	2.24566e-09	2.23926e-09	0.00286282	0.000965992	0.00302141	18.6457	970481	2.87613e+06	3.03545e+06	-71.3543	0.0000000E+000	0.0000000E+000	0.0000000E+000	71.3543	0.0000000E+000	0.0000000E+000	0.0000000E+000	-71.3543	0.0000000E+000	0.0000000E+000	0.0000000E+000	-18.6457	0.0000000E+000	0.0000000E+000	0.0000000E+000	18.6457	2.96361	71.3543	1.24125e-05
0.0999518	352.151	82.0804	361.59	-13.1204	1276.99	0.458199	0.00154368	19399.5	999.623	3	41	0.00491166	1.35835e-05	0	9.43988e-05	0.272525	0.258524	5.94133	4.85859e-06	4.87769e-06	5.45148e-06	7.99416e-06	2.49583e-06	3.88114e-06	0.276412	0.0885947	0.819138	3.23393e-08	6.39777e-09	3.33274e-09	1.57986e-08	3.63292e-09	5.31881e-09	0.00269337	0.000627779	0.00276556	13.1204	999623	4.2887e+06	4.40366e+06	-76.8796	0.0000000E+000	0.0000000E+000	0.0000000E+000	76.8796	0.0000000E+000	0.0000000E+000	0.0000000E+000	-76.8796	0.0000000E+000	0.0000000E+000	0.0000000E+000	-13.1204	0.0000000E+000	0.0000000E+000	0.0000000E+000	13.1204	4.29031	76.8796	2.86484e-05