File: Python/Data/GoldElectrode/240319/Gold/240319-CVEIS_Activation-0p5H2SO4-Ag_AgCl_BLF8-Au_RDE-80cycles_01_CV_C15.mpt
EC-Lab ASCII FILE
Nb header lines : 60

Cyclic Voltammetry

Run on channel : 15 (SN 19485)
User :
Electrode connection : standard
Potential control : Ewe
Ewe ctrl range : min = -2.50 V, max = 2.50 V
Ewe,I filtering : 50 kHz
Safety Limits :
	Do not start on E overload
Channel : Floating
Acquisition started on : 03/19/2024 13:27:19.036
Loaded Setting File :  C:\Data\mathias\GoldElectrode\240313-CVEIS_Activation-0p5H2SO4-Ag_AgCl_BLF8-Au_RDE-80cycles.mps
Saved on :
	File : 240319-CVEIS_Activation-0p5H2SO4-Ag_AgCl_BLF8-Au_RDE-80cycles_01_CV_C15.mpr
	Directory : C:\Data\mathias\GoldElectrode\
	Host : 192.168.0.1
Device : VMP-300 (SN 0826)
Address : USB
EC-Lab for windows v11.52 (software)
Internet server v11.52 (firmware)
Command interpretor v11.52 (firmware)
Electrode material :
Initial state :
Electrolyte :
Comments :
Cable : special
Electrode surface area : 0.001 cm²
Characteristic mass : 0.001 g
Equivalent Weight : 0.000 g/eq.
Density : 0.000 g/cm3
Volume (V) : 0.001 cm³
Record EIS quality indicators
Cycle Definition : Charge/Discharge alternance
Ei (V)              0.000
vs.                 Eoc
dE/dt               200.000
dE/dt unit          mV/s
E1 (V)              1.500
vs.                 Ref
Step percent        50
N                   10
E range min (V)     -2.500
E range max (V)     2.500
I Range             Auto
I Range min         Unset
I Range max         Unset
I Range init        Unset
Bandwidth           8
E2 (V)              -0.300
vs.                 Ref
nc cycles           0
Reverse Scan        1
Ef (V)              0.000
vs.                 Eoc

mode	ox/red	error	control changes	counter inc.	time/s	control/V	Ewe/V	<I>/mA	cycle number	(Q-Qo)/C	I Range	step time/s	P/W
2	1	0	0	0	0.000000000000000E+000	0.632045	0.631303	0.000515194	1	0.0000000E+000	43	0.000000000000000E+000	3.25244e-07
2	1	0	1	0	0.0578	0.643589	0.643701	0.0054906	1	1.67053e-07	42	0.04	3.53431e-06
2	1	0	1	0	0.0878	0.649586	0.649692	0.00572099	1	3.34181e-07	42	0.07	3.71689e-06
2	1	0	1	0	0.1178	0.655583	0.655684	0.00587894	1	5.08184e-07	42	0.1	3.85472e-06
2	1	0	1	0	0.1478	0.66158	0.661692	0.00604068	1	6.86583e-07	42	0.13	3.99707e-06
2	1	0	1	0	0.1778	0.667577	0.66766	0.00607366	1	8.67945e-07	42	0.16	4.05514e-06
2	1	0	1	0	0.2077	0.673574	0.673659	0.00614198	1	1.05113e-06	42	0.1899	4.1376e-06
2	1	0	1	0	0.2377	0.679571	0.679664	0.00617484	1	1.23609e-06	42	0.2199	4.19682e-06
2	1	0	1	0	0.2677	0.685568	0.685662	0.00621893	1	1.42191e-06	42	0.2499	4.26408e-06
2	1	0	1	0	0.2977	0.691565	0.691663	0.0062346	1	1.60817e-06	42	0.2799	4.31224e-06
2	1	0	1	0	0.3277	0.697562	0.697661	0.00623935	1	1.795e-06	42	0.3099	4.35295e-06
2	1	0	1	0	0.3577	0.703559	0.70365	0.00625844	1	1.98191e-06	42	0.3399	4.40375e-06
2	1	0	1	0	0.3877	0.709556	0.709655	0.00625335	1	2.16911e-06	42	0.3699	4.43772e-06
2	1	0	1	0	0.4176	0.715553	0.715637	0.00623418	1	2.35583e-06	42	0.3998	4.46141e-06
2	1	0	1	0	0.4476	0.72155	0.721634	0.00623807	1	2.54297e-06	42	0.4298	4.50161e-06
2	1	0	1	0	0.4776	0.727547	0.727629	0.00621777	1	2.72976e-06	42	0.4598	4.52424e-06
2	1	0	1	0	0.5076	0.733544	0.733652	0.00626272	1	2.91662e-06	42	0.4898	4.59466e-06
2	1	0	1	0	0.5376	0.739541	0.739634	0.00621544	1	3.10296e-06	42	0.5198	4.59715e-06
2	1	0	1	0	0.5676	0.745538	0.74564	0.00623449	1	3.28922e-06	42	0.5498	4.64869e-06
2	1	0	1	0	0.5975	0.751535	0.751609	0.00617812	1	3.47471e-06	42	0.5797	4.64353e-06
2	1	0	1	0	0.6275	0.757532	0.757626	0.0062111	1	3.66046e-06	42	0.6097	4.70569e-06
2	1	0	1	0	0.6575	0.763529	0.763616	0.00615428	1	3.84565e-06	42	0.6397	4.69951e-06
2	1	0	1	0	0.6875	0.769526	0.769632	0.00615674	1	4.03061e-06	42	0.6697	4.73842e-06
2	1	0	1	0	0.7175	0.775523	0.775617	0.00615692	1	4.215e-06	42	0.6997	4.77541e-06
2	1	0	1	0	0.7475	0.78152	0.781611	0.00613435	1	4.39919e-06	42	0.7297	4.79467e-06
2	1	0	1	0	0.7775	0.787517	0.787596	0.00613752	1	4.58275e-06	42	0.7597	4.83389e-06
2	1	0	1	0	0.8074	0.793514	0.793608	0.00612273	1	4.76568e-06	42	0.7896	4.85905e-06
2	1	0	1	0	0.8374	0.799511	0.799593	0.00609753	1	4.94836e-06	42	0.8196	4.87554e-06
2	1	0	1	0	0.8674	0.805508	0.805604	0.00611286	1	5.13084e-06	42	0.8496	4.92454e-06
2	1	0	1	0	0.8974	0.811505	0.811601	0.0060542	1	5.31252e-06	42	0.8796	4.91359e-06
2	1	0	1	0	0.9274	0.817502	0.817574	0.00608654	1	5.49384e-06	42	0.9096	4.9762e-06
2	1	0	1	0	0.9574	0.823499	0.823579	0.00600829	1	5.67449e-06	42	0.9396	4.9483e-06
2	1	0	1	0	0.9874	0.829514	0.829583	0.00606181	1	5.8547e-06	42	0.9696	5.02877e-06
2	1	0	1	0	1.0173	0.835492	0.835593	0.00595975	1	6.03369e-06	42	0.9995	4.97992e-06
2	1	0	1	0	1.0473	0.841489	0.841574	0.00596306	1	6.21249e-06	42	1.0295	5.01836e-06
2	1	0	1	0	1.0773	0.847486	0.847579	0.00594566	1	6.39052e-06	42	1.0595	5.03941e-06
2	1	0	1	0	1.1073	0.853483	0.853562	0.00591909	1	6.56807e-06	42	1.0895	5.05231e-06
2	1	0	1	0	1.1373	0.85948	0.859539	0.00589299	1	6.74475e-06	42	1.1195	5.06525e-06
2	1	0	1	0	1.1673	0.865477	0.865561	0.00586014	1	6.92077e-06	42	1.1495	5.07231e-06
2	1	0	1	0	1.1972	0.871474	0.871539	0.00582066	1	7.09562e-06	42	1.1794	5.07293e-06
2	1	0	1	0	1.2272	0.877471	0.877542	0.00582725	1	7.27033e-06	42	1.2094	5.11366e-06
2	1	0	1	0	1.2572	0.883468	0.883569	0.00576604	1	7.44426e-06	42	1.2394	5.09469e-06
2	1	0	1	0	1.2872	0.889465	0.889552	0.00579004	1	7.61755e-06	42	1.2694	5.15054e-06
2	1	0	1	0	1.3172	0.895462	0.895529	0.00575463	1	7.79005e-06	42	1.2994	5.15344e-06
2	1	0	1	0	1.3472	0.901459	0.901541	0.00575743	1	7.96204e-06	42	1.3294	5.19056e-06
2	1	0	1	0	1.3772	0.907456	0.907541	0.00572171	1	8.13319e-06	42	1.3594	5.19269e-06
2	1	0	1	0	1.4071	0.913453	0.91354	0.00567564	1	8.30345e-06	42	1.3893	5.18492e-06
2	1	0	1	0	1.4371	0.91945	0.919526	0.00565844	1	8.47323e-06	42	1.4193	5.20308e-06
2	1	0	1	0	1.4671	0.925447	0.925553	0.00564632	1	8.64238e-06	42	1.4493	5.22597e-06
2	1	0	1	0	1.4971	0.931444	0.931524	0.00560058	1	8.81059e-06	42	1.4793	5.21708e-06
2	1	0	1	0	1.5271	0.937441	0.937534	0.0055804	1	8.97826e-06	42	1.5093	5.23182e-06
2	1	0	1	0	1.5571	0.943438	0.943523	0.00556781	1	9.1449e-06	42	1.5393	5.25336e-06
2	1	0	1	0	1.587	0.949435	0.949532	0.00553576	1	9.31064e-06	42	1.5692	5.25638e-06
2	1	0	1	0	1.617	0.955432	0.955518	0.00547644	1	9.47566e-06	42	1.5992	5.23283e-06
2	1	0	1	0	1.647	0.961429	0.961509	0.00549246	1	9.64009e-06	42	1.6292	5.28105e-06
2	1	0	1	0	1.677	0.967426	0.967514	0.00544441	1	9.8035e-06	42	1.6592	5.26754e-06
2	1	0	1	0	1.707	0.973423	0.973492	0.00544576	1	9.96626e-06	42	1.6892	5.30141e-06
2	1	0	1	0	1.737	0.97942	0.979473	0.00539471	1	1.0128e-05	42	1.7192	5.28397e-06
2	1	0	1	0	1.767	0.985417	0.985496	0.00535646	1	1.02892e-05	42	1.7492	5.27877e-06
2	1	0	1	0	1.7969	0.991414	0.991505	0.00534253	1	1.04491e-05	42	1.7791	5.29715e-06
2	1	0	1	0	1.8269	0.997411	0.997497	0.00532071	1	1.06087e-05	42	1.8091	5.30739e-06
2	1	0	1	0	1.8569	1.00341	1.00349	0.00529634	1	1.07674e-05	42	1.8391	5.31481e-06
2	1	0	1	0	1.8869	1.0094	1.00948	0.0052872	1	1.09254e-05	42	1.8691	5.33735e-06
2	1	0	1	0	1.9169	1.0154	1.01549	0.00525632	1	1.10828e-05	42	1.8991	5.33774e-06
2	1	0	1	0	1.9469	1.0214	1.02147	0.00522676	1	1.12395e-05	42	1.9291	5.339e-06
2	1	0	1	0	1.9768	1.02739	1.02746	0.00522519	1	1.13952e-05	42	1.959	5.36867e-06
2	1	0	1	0	2.0068	1.03339	1.03348	0.00519124	1	1.15509e-05	42	1.989	5.36507e-06
2	1	0	1	0	2.0368	1.03939	1.03948	0.00516227	1	1.1706e-05	42	2.019	5.36609e-06
2	1	0	1	0	2.0668	1.04539	1.04548	0.0051982	1	1.18607e-05	42	2.049	5.43461e-06
2	1	0	1	0	2.0968	1.05138	1.05148	0.00513826	1	1.20151e-05	42	2.079	5.4028e-06
2	1	0	1	0	2.1268	1.05738	1.05747	0.0051673	1	1.21693e-05	42	2.109	5.46425e-06
2	1	0	1	0	2.1568	1.06338	1.06346	0.00515155	1	1.23233e-05	42	2.139	5.47847e-06
2	1	0	1	0	2.1867	1.06937	1.06946	0.0051867	1	1.24772e-05	42	2.1689	5.54696e-06
2	1	0	1	0	2.2167	1.07537	1.07545	0.00516283	1	1.26318e-05	42	2.1989	5.55238e-06
2	1	0	1	0	2.2467	1.08137	1.08146	0.00521231	1	1.27871e-05	42	2.2289	5.63688e-06
2	1	0	1	0	2.2767	1.08737	1.08746	0.00524241	1	1.29433e-05	42	2.2589	5.70092e-06
2	1	0	1	0	2.3067	1.09336	1.09344	0.00530731	1	1.3101e-05	42	2.2889	5.8032e-06
2	1	0	1	0	2.3367	1.09936	1.09944	0.00539379	1	1.32604e-05	42	2.3189	5.93013e-06
2	1	0	1	0	2.3667	1.10536	1.10543	0.00546121	1	1.34225e-05	42	2.3489	6.03696e-06
2	1	0	1	0	2.3966	1.11135	1.11142	0.00559245	1	1.35872e-05	42	2.3788	6.21558e-06
2	1	0	1	0	2.4266	1.11735	1.11743	0.00573905	1	1.37565e-05	42	2.4088	6.41297e-06
2	1	0	1	0	2.4566	1.12335	1.12341	0.00589407	1	1.39303e-05	42	2.4388	6.62146e-06
2	1	0	1	0	2.4866	1.12934	1.1294	0.00613453	1	1.41098e-05	42	2.4688	6.92834e-06
2	1	0	1	0	2.5166	1.13534	1.1354	0.00635207	1	1.42963e-05	42	2.4988	7.21216e-06
2	1	0	1	0	2.5466	1.14134	1.14138	0.00670079	1	1.44917e-05	42	2.5288	7.64817e-06
2	1	0	1	0	2.5765	1.14733	1.14739	0.00708061	1	1.46974e-05	42	2.5587	8.12425e-06
2	1	0	1	0	2.6065	1.15333	1.15338	0.00759188	1	1.49174e-05	42	2.5887	8.75629e-06
2	1	0	1	0	2.6365	1.15933	1.15938	0.00816426	1	1.51533e-05	42	2.6187	9.46549e-06
2	1	0	1	0	2.6665	1.16533	1.16538	0.00890807	1	1.54089e-05	42	2.6487	1.03813e-05
2	1	0	1	0	2.6965	1.17132	1.17137	0.00976463	1	1.56879e-05	42	2.6787	1.1438e-05
2	1	0	1	0	2.7265	1.17732	1.17737	0.0107558	1	1.5995e-05	42	2.7087	1.26636e-05
2	1	0	1	0	2.7864	1.18931	1.18942	0.0132726	1	1.66918e-05	41	2.7686	1.57867e-05
2	1	0	1	0	2.8164	1.19531	1.19542	0.0147389	1	1.71113e-05	41	2.7986	1.76191e-05
2	1	0	1	0	2.8464	1.20131	1.20139	0.0164071	1	1.75782e-05	41	2.8286	1.97113e-05
2	1	0	1	0	2.8764	1.2073	1.2074	0.0182398	1	1.80977e-05	41	2.8586	2.20227e-05
2	1	0	1	0	2.9064	1.2133	1.21338	0.0202437	1	1.86746e-05	41	2.8886	2.45634e-05
2	1	0	1	0	2.9364	1.2193	1.21939	0.022374	1	1.93138e-05	41	2.9186	2.72826e-05
2	1	0	1	0	2.9664	1.22531	1.2254	0.0246795	1	2.0019e-05	41	2.9486	3.02422e-05
2	1	0	1	0	2.9963	1.23129	1.23138	0.0270126	1	2.07917e-05	41	2.9785	3.32626e-05
2	1	0	1	0	3.0263	1.23729	1.23738	0.0294832	1	2.16393e-05	41	3.0085	3.6482e-05
2	1	0	1	0	3.0563	1.24329	1.24339	0.0320204	1	2.25619e-05	41	3.0385	3.98139e-05
2	1	0	1	0	3.0863	1.24928	1.24937	0.0346553	1	2.3562e-05	41	3.0685	4.32974e-05
2	1	0	1	0	3.1163	1.25528	1.25535	0.0373293	1	2.46417e-05	41	3.0985	4.68612e-05
2	1	0	1	0	3.1463	1.26128	1.26136	0.0401162	1	2.58035e-05	41	3.1285	5.06009e-05
2	1	0	1	0	3.1762	1.26727	1.26736	0.0430269	1	2.70463e-05	41	3.1584	5.45306e-05
2	1	0	1	0	3.2062	1.27327	1.27336	0.0460107	1	2.83816e-05	41	3.1884	5.8588e-05
2	1	0	1	0	3.2362	1.27927	1.27935	0.0491388	1	2.98085e-05	41	3.2184	6.28655e-05
2	1	0	1	0	3.2662	1.28527	1.28535	0.0524005	1	3.13313e-05	41	3.2484	6.73528e-05
2	1	0	1	0	3.2962	1.29126	1.29135	0.0558357	1	3.29544e-05	41	3.2784	7.21036e-05
2	1	0	1	0	3.3262	1.29726	1.29735	0.0594372	1	3.46833e-05	41	3.3084	7.71109e-05
2	1	0	1	0	3.3562	1.30326	1.30333	0.063231	1	3.65234e-05	41	3.3384	8.24108e-05
2	1	0	1	0	3.3861	1.30925	1.30931	0.0672498	1	3.84745e-05	41	3.3683	8.80511e-05
2	1	0	1	0	3.4161	1.31525	1.31531	0.0714251	1	4.05546e-05	41	3.3983	9.39458e-05
2	1	0	1	0	3.4461	1.32125	1.32131	0.0758345	1	4.27637e-05	41	3.4283	0.000100201
2	1	0	1	0	3.4761	1.32724	1.32731	0.0803885	1	4.51069e-05	41	3.4583	0.000106701
2	1	0	1	0	3.5061	1.33324	1.3333	0.0851383	1	4.75899e-05	41	3.4883	0.000113515
2	1	0	1	0	3.5361	1.33924	1.33931	0.0900081	1	5.02172e-05	41	3.5183	0.000120549
2	1	0	1	0	3.566	1.34523	1.34529	0.0949991	1	5.29829e-05	41	3.5482	0.000127802
2	1	0	1	0	3.596	1.35123	1.35127	0.0999718	1	5.59082e-05	41	3.5782	0.000135089
2	1	0	1	0	3.626	1.35723	1.35729	0.104933	1	5.89824e-05	41	3.6082	0.000142425
2	1	0	1	0	3.671	1.36622	1.3663	0.111639	1	6.38548e-05	41	3.6532	0.000152532
2	1	0	1	0	3.716	1.37522	1.37531	0.118429	1	6.89888e-05	40	3.6982	0.000162876
2	1	0	1	0	3.746	1.38122	1.38129	0.12212	1	7.25988e-05	40	3.7282	0.000168683
2	1	0	1	0	3.7759	1.38721	1.38731	0.125273	1	7.62995e-05	40	3.7581	0.000173791
2	1	0	1	0	3.8059	1.39321	1.39329	0.127782	1	8.00972e-05	40	3.7881	0.000178038
2	1	0	1	0	3.8359	1.39921	1.3993	0.1295	1	8.39584e-05	40	3.8181	0.000181209
2	1	0	1	0	3.8659	1.4052	1.40529	0.130603	1	8.7862e-05	40	3.8481	0.000183535
2	1	0	1	0	3.8959	1.4112	1.41129	0.131009	1	9.17876e-05	40	3.8781	0.000184892
2	1	0	1	0	3.9259	1.4172	1.41727	0.130852	1	9.57171e-05	40	3.9081	0.000185453
2	1	0	1	0	3.9558	1.42318	1.42327	0.130244	1	9.96207e-05	40	3.938	0.000185371
2	1	0	1	0	3.9858	1.42919	1.42928	0.129158	1	0.000103512	40	3.968	0.000184603
2	1	0	1	0	4.0158	1.43519	1.43528	0.1277	1	0.000107365	40	3.998	0.000183286
2	1	0	1	0	4.0458	1.44119	1.44126	0.125945	1	0.00011117	40	4.028	0.000181519
2	1	0	1	0	4.0758	1.44718	1.44726	0.12405	1	0.00011492	40	4.058	0.000179533
2	1	0	1	0	4.1058	1.45318	1.45328	0.122155	1	0.000118613	40	4.088	0.000177524
2	1	0	1	0	4.1358	1.45918	1.45926	0.120222	1	0.000122248	40	4.118	0.000175435
2	1	0	1	0	4.1657	1.46517	1.46527	0.11837	1	0.000125814	40	4.1479	0.000173445
2	1	0	1	0	4.1957	1.47117	1.47127	0.116635	1	0.000129338	40	4.1779	0.000171601
2	1	0	1	0	4.2257	1.47717	1.47726	0.115014	1	0.000132811	40	4.2079	0.000169906
2	1	0	1	0	4.2557	1.48317	1.48324	0.113582	1	0.000136239	40	4.2379	0.000168469
2	1	0	1	0	4.2857	1.48916	1.48924	0.112369	1	0.000139628	40	4.2679	0.000167344
2	1	0	1	0	4.3157	1.49516	1.49524	0.11137	1	0.000142984	40	4.2979	0.000166525
2	1	0	0	0	4.34	1.50001	1.50007	0.111089	1	0.000145683	40	4.3222	0.000166641
2	1	0	1	0	4.3677	1.49446	1.49448	0.0896235	1	0.000148408	40	4.3499	0.000133941
2	1	0	1	0	4.3977	1.48846	1.48847	0.0741424	1	0.000150852	40	4.3799	0.000110359
2	1	0	1	0	4.4277	1.48247	1.4825	0.0621111	1	0.000152886	40	4.4099	9.20797e-05
2	1	0	1	0	4.4577	1.47647	1.47651	0.0525521	1	0.0001546	40	4.4399	7.7594e-05
2	1	0	1	0	4.4877	1.47047	1.47051	0.0448344	1	0.000156056	40	4.4699	6.59294e-05
2	1	0	1	0	4.5177	1.46447	1.46452	0.0385528	1	0.000157302	40	4.4999	5.64613e-05
2	1	0	1	0	4.5476	1.45848	1.45852	0.0332877	1	0.000158372	40	4.5298	4.85508e-05
2	1	0	1	0	4.5776	1.45248	1.45252	0.0288739	1	0.000159302	40	4.5598	4.19397e-05
2	1	0	1	0	4.6376	1.44049	1.44049	0.0219983	1	0.00016089	41	4.6198	3.16884e-05
2	1	0	1	0	4.6676	1.43449	1.43454	0.0192805	1	0.000161508	41	4.6498	2.76586e-05
2	1	0	1	0	4.6976	1.42849	1.42851	0.0169015	1	0.000162049	41	4.6798	2.41439e-05
2	1	0	1	0	4.7275	1.4225	1.42254	0.0148981	1	0.000162523	41	4.7097	2.11931e-05
2	1	0	1	0	4.7575	1.4165	1.41652	0.0130759	1	0.000162941	41	4.7397	1.85222e-05
2	1	0	1	0	4.7875	1.4105	1.41053	0.0114937	1	0.000163309	41	4.7697	1.62121e-05
2	1	0	1	0	4.8175	1.4045	1.40454	0.0101501	1	0.000163633	41	4.7997	1.42562e-05
2	1	0	1	0	4.8475	1.39851	1.39855	0.00890343	1	0.000163918	41	4.8297	1.24519e-05
2	1	0	1	0	4.8775	1.39251	1.39254	0.00782843	1	0.000164169	41	4.8597	1.09014e-05
2	1	0	1	0	4.9075	1.38651	1.38654	0.00686198	1	0.000164388	41	4.8897	9.51438e-06
2	1	0	1	0	4.9374	1.38052	1.38055	0.00599588	1	0.00016458	41	4.9196	8.2776e-06
2	1	0	1	0	4.9674	1.37452	1.37457	0.00524422	1	0.000164749	41	4.9496	7.20853e-06
2	1	0	1	0	4.9974	1.36852	1.36856	0.00457491	1	0.000164895	41	4.9796	6.26104e-06
2	1	0	1	0	5.0574	1.35653	1.3568	0.00255939	1	0.000165148	42	5.0396	3.47259e-06
2	1	0	1	0	5.0874	1.35053	1.35049	0.00316196	1	0.00016524	42	5.0696	4.27019e-06
2	1	0	1	0	5.1174	1.34453	1.34457	0.00232769	1	0.000165319	42	5.0996	3.12974e-06
2	1	0	1	0	5.1473	1.33854	1.33856	0.00199991	1	0.000165385	42	5.1295	2.677e-06
2	1	0	1	0	5.1773	1.33254	1.33259	0.00160642	1	0.000165439	42	5.1595	2.1407e-06
2	1	0	1	0	5.2073	1.32654	1.32657	0.00130428	1	0.000165481	42	5.1895	1.73022e-06
2	1	0	1	0	5.2373	1.32055	1.32056	0.000930731	1	0.000165514	42	5.2195	1.22909e-06
2	1	0	1	0	5.2673	1.31455	1.31459	0.000682265	1	0.000165538	42	5.2495	8.96897e-07
2	1	0	1	0	5.2973	1.30855	1.30858	0.000364981	1	0.000165553	42	5.2795	4.77607e-07
2	1	0	1	0	5.3272	1.30256	1.30261	0.000155372	1	0.00016556	42	5.3094	2.02389e-07
2	0	0	1	0	5.3572	1.29656	1.29658	-0.000138316	1	0.000165559	42	0.01	-1.79338e-07
2	0	0	1	0	5.3872	1.29056	1.29056	-0.000358255	1	0.000165552	42	0.04	-4.6235e-07
2	0	0	1	0	5.4172	1.28457	1.28457	-0.000548445	1	0.000165538	42	0.07	-7.04515e-07
2	0	0	1	0	5.4472	1.27857	1.27862	-0.000760626	1	0.000165517	42	0.1	-9.72552e-07
2	0	0	1	0	5.4772	1.27257	1.27263	-0.00096121	1	0.000165491	42	0.13	-1.22326e-06
2	0	0	1	0	5.5072	1.26657	1.26663	-0.0011522	1	0.000165459	42	0.16	-1.45941e-06
2	0	0	1	0	5.5371	1.26058	1.26061	-0.00131317	1	0.000165422	42	0.1899	-1.6554e-06
2	0	0	1	0	5.5671	1.25458	1.25462	-0.00149886	1	0.000165379	42	0.2199	-1.8805e-06
2	0	0	1	0	5.5971	1.24858	1.24862	-0.00168798	1	0.000165331	42	0.2499	-2.10764e-06
2	0	0	1	0	5.6271	1.24259	1.24263	-0.00184829	1	0.000165277	42	0.2799	-2.29674e-06
2	0	0	1	0	5.6571	1.23659	1.23663	-0.00204408	1	0.000165219	42	0.3099	-2.52778e-06
2	0	0	1	0	5.6871	1.23059	1.23064	-0.00220949	1	0.000165155	42	0.3399	-2.71908e-06
2	0	0	1	0	5.717	1.2246	1.22463	-0.00244938	1	0.000165086	42	0.3698	-2.99958e-06
2	0	0	1	0	5.747	1.2186	1.21863	-0.00254696	1	0.000165011	42	0.3998	-3.1038e-06
2	0	0	1	0	5.777	1.2126	1.21262	-0.00276085	1	0.000164931	42	0.4298	-3.34786e-06
2	0	0	1	0	5.807	1.2066	1.20663	-0.00295985	1	0.000164845	42	0.4598	-3.57145e-06
2	0	0	1	0	5.837	1.20061	1.20065	-0.00314865	1	0.000164754	42	0.4898	-3.78042e-06
2	0	0	1	0	5.867	1.19461	1.19465	-0.00335314	1	0.000164656	42	0.5198	-4.00581e-06
2	0	0	1	0	5.897	1.18861	1.18863	-0.0035861	1	0.000164552	42	0.5498	-4.26254e-06
2	0	0	1	0	5.9269	1.18262	1.18263	-0.00381997	1	0.000164442	42	0.5797	-4.51761e-06
2	0	0	1	0	5.9569	1.17662	1.17666	-0.00406149	1	0.000164324	42	0.6097	-4.77899e-06
2	0	0	1	0	5.9869	1.17062	1.17065	-0.00427744	1	0.000164199	42	0.6397	-5.00737e-06
2	0	0	1	0	6.0169	1.16463	1.16465	-0.00459842	1	0.000164065	42	0.6697	-5.35556e-06
2	0	0	1	0	6.0469	1.15863	1.15866	-0.0048297	1	0.000163924	42	0.6997	-5.59599e-06
2	0	0	1	0	6.0769	1.15263	1.15267	-0.00521122	1	0.000163773	42	0.7297	-6.00681e-06
2	0	0	1	0	6.1069	1.14664	1.14667	-0.00554275	1	0.000163612	42	0.7597	-6.35568e-06
2	0	0	1	0	6.1368	1.14064	1.14068	-0.00592725	1	0.000163441	42	0.7896	-6.7611e-06
2	0	0	1	0	6.1668	1.13464	1.13467	-0.00627706	1	0.000163258	42	0.8196	-7.12237e-06
2	0	0	1	0	6.1968	1.12864	1.12869	-0.00672703	1	0.000163062	42	0.8496	-7.59276e-06
2	0	0	1	0	6.2268	1.12265	1.12269	-0.00719798	1	0.000162853	42	0.8796	-8.08111e-06
2	0	0	1	0	6.2568	1.11665	1.11671	-0.00770369	1	0.00016263	42	0.9096	-8.60275e-06
2	0	0	1	0	6.2868	1.11065	1.11071	-0.00829017	1	0.00016239	42	0.9396	-9.20797e-06
2	0	0	1	0	6.3167	1.10466	1.10469	-0.00887696	1	0.000162133	42	0.9695	-9.80632e-06
2	0	0	1	0	6.3467	1.09866	1.09871	-0.00954238	1	0.000161857	42	0.9995	-1.04843e-05
2	0	0	1	0	6.3767	1.09266	1.09271	-0.0103388	1	0.000161559	42	1.0295	-1.12973e-05
2	0	0	1	0	6.4367	1.08067	1.0807	-0.0120154	1	0.000160903	41	1.0895	-1.2985e-05
2	0	0	1	0	6.4667	1.07467	1.0747	-0.0129844	1	0.000160528	41	1.1195	-1.39543e-05
2	0	0	1	0	6.4967	1.06867	1.0687	-0.0141416	1	0.00016012	41	1.1495	-1.51132e-05
2	0	0	1	0	6.5266	1.06268	1.06272	-0.0153905	1	0.000159679	41	1.1794	-1.63558e-05
2	0	0	1	0	6.5566	1.05668	1.05671	-0.0167849	1	0.000159196	41	1.2094	-1.77367e-05
2	0	0	1	0	6.5866	1.05068	1.05071	-0.0183447	1	0.000158669	41	1.2394	-1.9275e-05
2	0	0	1	0	6.6166	1.04469	1.04473	-0.0201085	1	0.000158093	41	1.2694	-2.10081e-05
2	0	0	1	0	6.6466	1.03869	1.03872	-0.0221049	1	0.00015746	41	1.2994	-2.29608e-05
2	0	0	1	0	6.6766	1.03269	1.03275	-0.0243403	1	0.000156763	41	1.3294	-2.51374e-05
2	0	0	1	0	6.7065	1.0267	1.02675	-0.0269421	1	0.000155997	41	1.3593	-2.76627e-05
2	0	0	1	0	6.7365	1.0207	1.02068	-0.0298785	1	0.000155146	41	1.3893	-3.04965e-05
2	0	0	1	0	6.7665	1.0147	1.01475	-0.0331867	1	0.0001542	41	1.4193	-3.36762e-05
2	0	0	1	0	6.7965	1.0087	1.00874	-0.0370932	1	0.000153146	41	1.4493	-3.74174e-05
2	0	0	1	0	6.8265	1.00271	1.00276	-0.0415138	1	0.000151967	41	1.4793	-4.16283e-05
2	0	0	1	0	6.8565	0.996711	0.99674	-0.0467038	1	0.000150645	41	1.5093	-4.65515e-05
2	0	0	1	0	6.8865	0.990714	0.990768	-0.0526298	1	0.000149155	41	1.5393	-5.21439e-05
2	0	0	1	0	6.9164	0.984717	0.984774	-0.0596444	1	0.000147478	41	1.5692	-5.87362e-05
2	0	0	1	0	6.9464	0.97872	0.978781	-0.0676648	1	0.000145569	41	1.5992	-6.6229e-05
2	0	0	1	0	6.9764	0.972723	0.972772	-0.0769856	1	0.0001434	41	1.6292	-7.48894e-05
2	0	0	1	0	7.0064	0.966726	0.96679	-0.087683	1	0.000140932	41	1.6592	-8.4771e-05
2	0	0	1	0	7.0364	0.960729	0.960797	-0.0999181	1	0.000138119	41	1.6892	-9.60009e-05
2	0	0	1	0	7.0964	0.948735	0.948743	-0.129205	1	0.000131492	40	1.7492	-0.000122582
2	0	0	1	0	7.1263	0.942738	0.942765	-0.145879	1	0.000127379	40	1.7791	-0.00013753
2	0	0	1	0	7.1563	0.936741	0.936784	-0.16334	1	0.000122739	40	1.8091	-0.000153014
2	0	0	1	0	7.1863	0.930744	0.930784	-0.180756	1	0.000117573	40	1.8391	-0.000168244
2	0	0	1	0	7.2163	0.924747	0.924795	-0.196866	1	0.000111902	40	1.8691	-0.000182061
2	0	0	1	0	7.2463	0.91875	0.918778	-0.21014	1	0.000105786	40	1.8991	-0.000193072
2	0	0	1	0	7.2763	0.912753	0.912801	-0.219161	1	9.93325e-05	40	1.9291	-0.00020005
2	0	0	1	0	7.3062	0.906757	0.906775	-0.222758	1	9.27112e-05	40	1.959	-0.000201991
2	0	0	1	0	7.3362	0.90076	0.900792	-0.219796	1	8.60566e-05	40	1.989	-0.000197991
2	0	0	1	0	7.3662	0.894763	0.894803	-0.210319	1	7.95909e-05	40	2.019	-0.000188194
2	0	0	1	0	7.3962	0.888766	0.888782	-0.195037	1	7.34995e-05	40	2.049	-0.000173345
2	0	0	1	0	7.4262	0.882769	0.882807	-0.175256	1	6.79396e-05	40	2.079	-0.000154717
2	0	0	1	0	7.4562	0.876772	0.876808	-0.153197	1	6.3012e-05	40	2.109	-0.000134325
2	0	0	1	0	7.4862	0.870775	0.870801	-0.130792	1	5.87569e-05	40	2.139	-0.000113894
2	0	0	1	0	7.5161	0.864778	0.864808	-0.110242	1	5.51613e-05	40	2.1689	-9.53386e-05
2	0	0	1	0	7.5461	0.858781	0.858801	-0.092176	1	5.21357e-05	40	2.1989	-7.91609e-05
2	0	0	1	0	7.5761	0.852784	0.852816	-0.0772936	1	4.96035e-05	40	2.2289	-6.59172e-05
2	0	0	1	0	7.6061	0.846787	0.846815	-0.0652879	1	4.7474e-05	40	2.2589	-5.52867e-05
2	0	0	1	0	7.6361	0.84079	0.84082	-0.055866	1	4.56639e-05	40	2.2889	-4.69733e-05
2	0	0	1	0	7.6661	0.834793	0.834813	-0.048509	1	4.41036e-05	40	2.3189	-4.04959e-05
2	0	0	1	0	7.726	0.822799	0.822828	-0.0382809	1	4.14294e-05	41	2.3788	-3.14986e-05
2	0	0	1	0	7.756	0.816802	0.816825	-0.0346502	1	4.03376e-05	41	2.4088	-2.83031e-05
2	0	0	1	0	7.786	0.810805	0.810839	-0.0317316	1	3.93434e-05	41	2.4388	-2.57292e-05
2	0	0	1	0	7.816	0.804808	0.804831	-0.0294284	1	3.84276e-05	41	2.4688	-2.36849e-05
2	0	0	1	0	7.846	0.798811	0.79883	-0.0274579	1	3.75754e-05	41	2.4988	-2.19342e-05
2	0	0	1	0	7.876	0.792814	0.792813	-0.0259242	1	3.67748e-05	41	2.5288	-2.05531e-05
2	0	0	1	0	7.9059	0.786817	0.786852	-0.0246336	1	3.60196e-05	41	2.5587	-1.9383e-05
2	0	0	1	0	7.9359	0.78082	0.780867	-0.0236001	1	3.52968e-05	41	2.5887	-1.84285e-05
2	0	0	1	0	7.9659	0.774823	0.774857	-0.0226664	1	3.46027e-05	41	2.6187	-1.75632e-05
2	0	0	1	0	7.9959	0.768826	0.768853	-0.021944	1	3.39333e-05	41	2.6487	-1.68717e-05
2	0	0	1	0	8.0259	0.762829	0.762848	-0.0212667	1	3.32845e-05	41	2.6787	-1.62233e-05
2	0	0	1	0	8.0559	0.756832	0.756877	-0.0207695	1	3.26535e-05	41	2.7087	-1.572e-05
2	0	0	1	0	8.0859	0.750835	0.750895	-0.0202619	1	3.20377e-05	41	2.7387	-1.52145e-05
2	0	0	1	0	8.1158	0.744838	0.744871	-0.0198301	1	3.14374e-05	41	2.7686	-1.47709e-05
2	0	0	1	0	8.1458	0.738841	0.738876	-0.0193751	1	3.08486e-05	41	2.7986	-1.43158e-05
2	0	0	1	0	8.1758	0.732844	0.732863	-0.0189598	1	3.02727e-05	41	2.8286	-1.38949e-05
2	0	0	1	0	8.2058	0.726847	0.726888	-0.0185418	1	2.97095e-05	41	2.8586	-1.34778e-05
2	0	0	1	0	8.2358	0.72085	0.720876	-0.0181251	1	2.91591e-05	41	2.8886	-1.3066e-05
2	0	0	1	0	8.2658	0.714853	0.714884	-0.0176719	1	2.86218e-05	41	2.9186	-1.26334e-05
2	0	0	1	0	8.2957	0.708856	0.708857	-0.0173194	1	2.80985e-05	41	2.9485	-1.2277e-05
2	0	0	1	0	8.3257	0.702859	0.702898	-0.0168335	1	2.75858e-05	41	2.9785	-1.18322e-05
2	0	0	1	0	8.3557	0.696862	0.696891	-0.016518	1	2.70847e-05	41	3.0085	-1.15112e-05
2	0	0	1	0	8.3857	0.690866	0.690914	-0.0161326	1	2.65943e-05	41	3.0385	-1.11462e-05
2	0	0	1	0	8.4157	0.684869	0.6849	-0.0158772	1	2.61134e-05	41	3.0685	-1.08743e-05
2	0	0	1	0	8.4457	0.678872	0.67891	-0.0155502	1	2.56411e-05	41	3.0985	-1.05572e-05
2	0	0	1	0	8.4757	0.672875	0.672928	-0.015353	1	2.51763e-05	41	3.1285	-1.03315e-05
2	0	0	1	0	8.5056	0.666878	0.6669	-0.0151621	1	2.47192e-05	41	3.1584	-1.01116e-05
2	0	0	1	0	8.5356	0.660881	0.660936	-0.0149759	1	2.42665e-05	41	3.1884	-9.89813e-06
2	0	0	1	0	8.5656	0.654884	0.654945	-0.014776	1	2.38194e-05	41	3.2184	-9.67744e-06
2	0	0	1	0	8.5956	0.648887	0.648923	-0.0146349	1	2.33767e-05	41	3.2484	-9.4969e-06
2	0	0	1	0	8.6256	0.64289	0.642942	-0.0145189	1	2.29388e-05	41	3.2784	-9.33484e-06
2	0	0	1	0	8.6556	0.636893	0.636948	-0.0144217	1	2.25048e-05	41	3.3084	-9.18587e-06
2	0	0	1	0	8.6856	0.630882	0.630926	-0.0143555	1	2.20741e-05	41	3.3384	-9.05725e-06
2	0	0	1	0	8.7155	0.624899	0.624944	-0.0142064	1	2.1648e-05	41	3.3683	-8.8782e-06
2	0	0	1	0	8.7455	0.618902	0.618955	-0.0140589	1	2.12235e-05	41	3.3983	-8.70179e-06
2	0	0	1	0	8.7755	0.612905	0.612949	-0.0140377	1	2.08017e-05	41	3.4283	-8.60438e-06
2	0	0	1	0	8.8055	0.606908	0.606948	-0.0139195	1	2.03814e-05	41	3.4583	-8.4484e-06
2	0	0	1	0	8.8355	0.600911	0.600947	-0.0139078	1	1.99632e-05	41	3.4883	-8.35782e-06
2	0	0	1	0	8.8655	0.594914	0.594964	-0.0138337	1	1.95464e-05	41	3.5183	-8.23055e-06
2	0	0	1	0	8.8954	0.588917	0.588948	-0.0138251	1	1.91316e-05	41	3.5482	-8.14225e-06
2	0	0	1	0	8.9254	0.58292	0.582956	-0.0137685	1	1.87167e-05	41	3.5782	-8.02641e-06
2	0	0	1	0	8.9554	0.576923	0.576968	-0.013734	1	1.83025e-05	41	3.6082	-7.92406e-06
2	0	0	1	0	8.9854	0.570926	0.570968	-0.0137416	1	1.7889e-05	41	3.6382	-7.84603e-06
2	0	0	1	0	9.0154	0.564929	0.564971	-0.0137363	1	1.74759e-05	41	3.6682	-7.76061e-06
2	0	0	1	0	9.0454	0.558932	0.558987	-0.0137114	1	1.70633e-05	41	3.6982	-7.6645e-06
2	0	0	1	0	9.0754	0.552935	0.552997	-0.0137083	1	1.66516e-05	41	3.7282	-7.58067e-06
2	0	0	1	0	9.1053	0.546938	0.546964	-0.0136984	1	1.62405e-05	41	3.7581	-7.4925e-06
2	0	0	1	0	9.1353	0.540941	0.540985	-0.0137112	1	1.58296e-05	41	3.7881	-7.41757e-06
2	0	0	1	0	9.1653	0.534944	0.53498	-0.0136176	1	1.54189e-05	41	3.8181	-7.28514e-06
2	0	0	1	0	9.1953	0.528947	0.529003	-0.0136113	1	1.50097e-05	41	3.8481	-7.20042e-06
2	0	0	1	0	9.2253	0.52295	0.522999	-0.0136056	1	1.46012e-05	41	3.8781	-7.11571e-06
2	0	0	1	0	9.2553	0.516953	0.517005	-0.0135877	1	1.41938e-05	41	3.9081	-7.02489e-06
2	0	0	1	0	9.2852	0.510956	0.510998	-0.0135333	1	1.3788e-05	41	3.938	-6.9155e-06
2	0	0	1	0	9.3152	0.504959	0.505028	-0.0134547	1	1.33824e-05	41	3.968	-6.795e-06
2	0	0	1	0	9.3452	0.498962	0.499008	-0.0134549	1	1.2978e-05	41	3.998	-6.71412e-06
2	0	0	1	0	9.3752	0.492965	0.493008	-0.0134146	1	1.25747e-05	41	4.028	-6.61353e-06
2	0	0	1	0	9.4052	0.486969	0.487035	-0.0133624	1	1.2173e-05	41	4.058	-6.50798e-06
2	0	0	1	0	9.4352	0.480972	0.481017	-0.0133077	1	1.17727e-05	41	4.088	-6.40121e-06
2	0	0	1	0	9.4652	0.474975	0.475039	-0.0132218	1	1.13741e-05	41	4.118	-6.28086e-06
2	0	0	1	0	9.4951	0.468978	0.469029	-0.0132588	1	1.09777e-05	41	4.1479	-6.21874e-06
2	0	0	1	0	9.5251	0.462981	0.463034	-0.0130933	1	1.05826e-05	41	4.1779	-6.06264e-06
2	0	0	1	0	9.5551	0.456984	0.457045	-0.0130766	1	1.01891e-05	41	4.2079	-5.97661e-06
2	0	0	1	0	9.5851	0.450987	0.451035	-0.0129383	1	9.79849e-06	41	4.2379	-5.83564e-06
2	0	0	1	0	9.6151	0.44499	0.445056	-0.0128998	1	9.40992e-06	41	4.2679	-5.74111e-06
2	0	0	1	0	9.6451	0.438993	0.439023	-0.0127699	1	9.02422e-06	41	4.2979	-5.6063e-06
2	0	0	1	0	9.675	0.433005	0.433068	-0.012781	1	8.6425e-06	41	4.3278	-5.53503e-06
2	0	0	1	0	9.705	0.426999	0.427062	-0.0125827	1	8.26252e-06	41	4.3578	-5.37361e-06
2	0	0	1	0	9.735	0.421002	0.421071	-0.0124707	1	7.88634e-06	41	4.3878	-5.25103e-06
2	0	0	1	0	9.765	0.415005	0.415066	-0.0123064	1	7.51395e-06	41	4.4178	-5.10796e-06
2	0	0	1	0	9.795	0.409008	0.409075	-0.0122319	1	7.14526e-06	41	4.4478	-5.00376e-06
2	0	0	1	0	9.825	0.403011	0.403054	-0.0120407	1	6.7809e-06	41	4.4778	-4.85307e-06
2	0	0	1	0	9.855	0.397014	0.397066	-0.0119199	1	6.42123e-06	41	4.5078	-4.73299e-06
2	0	0	1	0	9.8849	0.391017	0.391053	-0.0117788	1	6.06627e-06	41	4.5377	-4.60615e-06
2	0	0	1	0	9.9149	0.38502	0.385084	-0.011609	1	5.71512e-06	41	4.5677	-4.47043e-06
2	0	0	1	0	9.9449	0.379023	0.379077	-0.0114458	1	5.36844e-06	41	4.5977	-4.33885e-06
2	0	0	1	0	9.9749	0.373026	0.373074	-0.0113291	1	5.026e-06	41	4.6277	-4.22661e-06
2	0	0	1	0	10.0049	0.367029	0.367115	-0.0111934	1	4.68778e-06	41	4.6577	-4.10928e-06
2	0	0	1	0	10.0349	0.361032	0.361098	-0.0110722	1	4.35401e-06	41	4.6877	-3.99816e-06
2	0	0	1	0	10.0649	0.355035	0.355102	-0.010902	1	4.02425e-06	41	4.7177	-3.87131e-06
2	0	0	1	0	10.0948	0.349038	0.349083	-0.0107973	1	3.6992e-06	41	4.7476	-3.76917e-06
2	0	0	1	0	10.1248	0.343041	0.343106	-0.010638	1	3.37738e-06	41	4.7776	-3.64996e-06
2	0	0	1	0	10.1548	0.337044	0.337127	-0.0104964	1	3.05974e-06	41	4.8076	-3.53861e-06
2	0	0	1	0	10.1848	0.331047	0.331125	-0.0104228	1	2.74597e-06	41	4.8376	-3.45124e-06
2	0	0	1	0	10.2148	0.32505	0.325137	-0.0102958	1	2.43596e-06	41	4.8676	-3.34756e-06
2	0	0	1	0	10.2448	0.319053	0.319138	-0.0101284	1	2.12945e-06	41	4.8976	-3.23234e-06
2	0	0	1	0	10.2747	0.313056	0.313134	-0.0100446	1	1.82726e-06	41	4.9275	-3.14529e-06
2	0	0	1	0	10.3047	0.307059	0.307128	-0.00990481	1	1.52757e-06	41	4.9575	-3.04205e-06
2	0	0	1	0	10.3347	0.301062	0.301129	-0.0098321	1	1.23112e-06	41	4.9875	-2.96073e-06
2	0	0	1	0	10.3647	0.295065	0.29513	-0.00972816	1	9.37571e-07	41	5.0175	-2.87107e-06
2	0	0	1	0	10.3947	0.289068	0.289109	-0.00967796	1	6.46873e-07	41	5.0475	-2.79798e-06
2	0	0	1	0	10.4247	0.283071	0.283092	-0.00951734	1	3.58931e-07	41	5.0775	-2.69428e-06
2	0	0	1	0	10.4547	0.277075	0.277124	-0.00947795	1	7.37021e-08	41	5.1075	-2.62657e-06
2	0	0	1	0	10.4846	0.271078	0.271141	-0.00938814	1	-2.08594e-07	41	5.1374	-2.54551e-06
2	0	0	1	0	10.5146	0.265081	0.265142	-0.00928094	1	-4.89526e-07	41	5.1674	-2.46077e-06
2	0	0	1	0	10.5446	0.259084	0.259148	-0.00924257	1	-7.68051e-07	41	5.1974	-2.3952e-06
2	0	0	1	0	10.5746	0.253087	0.253149	-0.00920517	1	-1.04483e-06	41	5.2274	-2.33028e-06
2	0	0	1	0	10.6046	0.24709	0.247159	-0.00911062	1	-1.31961e-06	41	5.2574	-2.25177e-06
2	0	0	1	0	10.6346	0.241093	0.241165	-0.00912262	1	-1.59285e-06	41	5.2874	-2.20006e-06
2	0	0	1	0	10.6646	0.235091	0.235155	-0.00904234	1	-1.86465e-06	41	5.3174	-2.12635e-06
2	0	0	1	0	10.6945	0.229099	0.229169	-0.00902344	1	-2.13427e-06	41	5.3473	-2.06789e-06
2	0	0	1	0	10.7245	0.223102	0.223204	-0.00891819	1	-2.40343e-06	41	5.3773	-1.99058e-06
2	0	0	1	0	10.7545	0.217105	0.217183	-0.00892071	1	-2.6712e-06	41	5.4073	-1.93743e-06
2	0	0	1	0	10.7845	0.211108	0.211164	-0.00888655	1	-2.93827e-06	41	5.4373	-1.87652e-06
2	0	0	1	0	10.8145	0.205111	0.205175	-0.00888381	1	-3.20417e-06	41	5.4673	-1.82274e-06
2	0	0	1	0	10.8445	0.199114	0.199187	-0.00882241	1	-3.46966e-06	41	5.4973	-1.75731e-06
2	0	0	1	0	10.8744	0.193117	0.193172	-0.00880199	1	-3.73374e-06	41	5.5272	-1.7003e-06
2	0	0	1	0	10.9044	0.18712	0.18719	-0.00878701	1	-3.99802e-06	41	5.5572	-1.64484e-06
2	0	0	1	0	10.9344	0.181123	0.181162	-0.0087919	1	-4.26161e-06	41	5.5872	-1.59276e-06
2	0	0	1	0	10.9644	0.175126	0.175204	-0.00876419	1	-4.52483e-06	41	5.6172	-1.53552e-06
2	0	0	1	0	10.9944	0.169129	0.169177	-0.00878032	1	-4.78762e-06	41	5.6472	-1.48542e-06
2	0	0	1	0	11.0244	0.163132	0.163203	-0.00872305	1	-5.05037e-06	41	5.6772	-1.42363e-06
2	0	0	1	0	11.0544	0.157135	0.157215	-0.0087694	1	-5.31291e-06	41	5.7072	-1.37868e-06
2	0	0	1	0	11.0843	0.151138	0.151194	-0.00874726	1	-5.57502e-06	41	5.7371	-1.32253e-06
2	0	0	1	0	11.1143	0.145141	0.145224	-0.00877254	1	-5.83775e-06	41	5.7671	-1.27398e-06
2	0	0	1	0	11.1443	0.139144	0.139224	-0.00880267	1	-6.10095e-06	41	5.7971	-1.22555e-06
2	0	0	1	0	11.1743	0.133147	0.133215	-0.00884821	1	-6.36482e-06	41	5.8271	-1.17871e-06
2	0	0	1	0	11.2043	0.12715	0.127211	-0.00882338	1	-6.62961e-06	41	5.8571	-1.12243e-06
2	0	0	1	0	11.2343	0.121153	0.12125	-0.00889921	1	-6.89554e-06	41	5.8871	-1.07903e-06
2	0	0	1	0	11.2642	0.115156	0.115242	-0.00893488	1	-7.16245e-06	41	5.917	-1.02967e-06
2	0	0	1	0	11.2942	0.109159	0.10923	-0.00903739	1	-7.43219e-06	41	5.947	-9.87155e-07
2	0	0	1	0	11.3242	0.103162	0.103261	-0.00910333	1	-7.70383e-06	41	5.977	-9.40022e-07
2	0	0	1	0	11.3542	0.0971654	0.0972242	-0.00919399	1	-7.97836e-06	41	6.007	-8.93879e-07
2	0	0	1	0	11.3842	0.0911684	0.0912327	-0.00931541	1	-8.25594e-06	41	6.037	-8.4987e-07
2	0	0	1	0	11.4142	0.0851715	0.0852421	-0.00947333	1	-8.5373e-06	41	6.067	-8.07526e-07
2	0	0	1	0	11.4442	0.0791745	0.0792612	-0.00961371	1	-8.82288e-06	41	6.097	-7.61994e-07
2	0	0	1	0	11.4741	0.0731775	0.0732267	-0.00976383	1	-9.11285e-06	41	6.1269	-7.14973e-07
2	0	0	1	0	11.5041	0.0671805	0.0672409	-0.00995836	1	-9.40886e-06	41	6.1569	-6.69609e-07
2	0	0	1	0	11.5341	0.0611836	0.0612766	-0.0102207	1	-9.71128e-06	41	6.1869	-6.26288e-07
2	0	0	1	0	11.5641	0.0551866	0.0552732	-0.010435	1	-1.00207e-05	41	6.2169	-5.76775e-07
2	0	0	1	0	11.5941	0.0491896	0.0492681	-0.0107206	1	-1.03376e-05	41	6.2469	-5.28182e-07
2	0	0	1	0	11.6241	0.0431927	0.0432838	-0.0110244	1	-1.06634e-05	41	6.2769	-4.77178e-07
2	0	0	1	0	11.6541	0.0371957	0.0372888	-0.0113515	1	-1.09984e-05	41	6.3069	-4.23285e-07
2	0	0	1	0	11.684	0.0311987	0.0312986	-0.0116908	1	-1.13431e-05	41	6.3368	-3.65907e-07
2	0	0	1	0	11.714	0.0252017	0.0252882	-0.0121094	1	-1.16997e-05	41	6.3668	-3.06226e-07
2	0	0	1	0	11.744	0.0192048	0.0192754	-0.0124807	1	-1.20684e-05	41	6.3968	-2.4057e-07
2	0	0	1	0	11.774	0.0132078	0.0133083	-0.0129443	1	-1.24494e-05	41	6.4268	-1.72267e-07
2	0	0	1	0	11.804	0.00721083	0.00732261	-0.0133817	1	-1.2844e-05	41	6.4568	-9.79889e-08
2	0	0	1	0	11.834	0.00121386	0.00132496	-0.0138714	1	-1.32523e-05	41	6.4868	-1.8379e-08
2	0	0	1	0	11.8639	-0.00478312	-0.0047008	-0.0143178	1	-1.36741e-05	41	6.5167	6.73052e-08
2	0	0	1	0	11.8939	-0.0107801	-0.0106865	-0.0148273	1	-1.4111e-05	41	6.5467	1.58452e-07
2	0	0	1	0	11.9239	-0.0167771	-0.0166836	-0.0152909	1	-1.45625e-05	41	6.5767	2.55107e-07
2	0	0	1	0	11.9539	-0.022774	-0.0226964	-0.015733	1	-1.50278e-05	41	6.6067	3.57083e-07
2	0	0	1	0	11.9839	-0.028771	-0.0286871	-0.0161641	1	-1.55064e-05	41	6.6367	4.637e-07
2	0	0	1	0	12.0139	-0.034768	-0.0346773	-0.0165983	1	-1.59976e-05	41	6.6667	5.75584e-07
2	0	0	1	0	12.0439	-0.040765	-0.0406779	-0.0169354	1	-1.65e-05	41	6.6967	6.88896e-07
2	0	0	1	0	12.0738	-0.0467619	-0.0466829	-0.0172219	1	-1.70109e-05	41	6.7266	8.03969e-07
2	0	0	1	0	12.1038	-0.0527589	-0.0526869	-0.0174785	1	-1.75316e-05	41	6.7566	9.20888e-07
2	0	0	1	0	12.1338	-0.0587559	-0.0586996	-0.0176933	1	-1.80584e-05	41	6.7866	1.03859e-06
2	0	0	1	0	12.1638	-0.0647529	-0.0646875	-0.0177839	1	-1.85899e-05	41	6.8166	1.1504e-06
2	0	0	1	0	12.1938	-0.0707498	-0.0706734	-0.0178654	1	-1.91244e-05	41	6.8466	1.26261e-06
2	0	0	1	0	12.2238	-0.0767468	-0.0766648	-0.0178462	1	-1.96596e-05	41	6.8766	1.36818e-06
2	0	0	1	0	12.2537	-0.0827438	-0.0826586	-0.0178568	1	-2.01925e-05	41	6.9065	1.47602e-06
2	0	0	1	0	12.2837	-0.0887408	-0.0886554	-0.0176853	1	-2.07249e-05	41	6.9365	1.5679e-06
2	0	0	1	0	12.3137	-0.0947377	-0.0946503	-0.017566	1	-2.12536e-05	41	6.9665	1.66262e-06
2	0	0	1	0	12.3437	-0.100735	-0.10066	-0.017397	1	-2.17776e-05	41	6.9965	1.75118e-06
2	0	0	1	0	12.3737	-0.106732	-0.106653	-0.0172063	1	-2.22959e-05	41	7.0265	1.8351e-06
2	0	0	1	0	12.4037	-0.112729	-0.11264	-0.0169812	1	-2.28078e-05	41	7.0565	1.91276e-06
2	0	0	1	0	12.4337	-0.118726	-0.118651	-0.0167229	1	-2.33129e-05	41	7.0865	1.98419e-06
2	0	0	1	0	12.4636	-0.124723	-0.124618	-0.0164935	1	-2.38096e-05	41	7.1164	2.05539e-06
2	0	0	1	0	12.4936	-0.13072	-0.130622	-0.0162645	1	-2.43002e-05	41	7.1464	2.12449e-06
2	0	0	1	0	12.5236	-0.136717	-0.136612	-0.0160015	1	-2.47836e-05	41	7.1764	2.186e-06
2	0	0	1	0	12.5536	-0.142714	-0.142623	-0.015785	1	-2.52595e-05	41	7.2064	2.2513e-06
2	0	0	1	0	12.5836	-0.14871	-0.148602	-0.015512	1	-2.57281e-05	41	7.2364	2.30511e-06
2	0	0	1	0	12.6136	-0.154707	-0.154617	-0.0153156	1	-2.61896e-05	41	7.2664	2.36805e-06
2	0	0	1	0	12.6436	-0.160704	-0.160617	-0.0150243	1	-2.66439e-05	41	7.2964	2.41315e-06
2	0	0	1	0	12.6735	-0.166701	-0.166603	-0.0148458	1	-2.70905e-05	41	7.3263	2.47337e-06
2	0	0	1	0	12.7035	-0.172698	-0.172604	-0.0146169	1	-2.75322e-05	41	7.3563	2.52293e-06
2	0	0	1	0	12.7335	-0.178695	-0.178616	-0.0144342	1	-2.79675e-05	41	7.3863	2.57816e-06
2	0	0	1	0	12.7635	-0.184692	-0.18458	-0.0142301	1	-2.8397e-05	41	7.4163	2.62659e-06
2	0	0	1	0	12.7935	-0.190689	-0.19058	-0.0140513	1	-2.88209e-05	41	7.4463	2.67789e-06
2	0	0	1	0	12.8235	-0.196686	-0.196599	-0.013875	1	-2.92399e-05	41	7.4763	2.72781e-06
2	0	0	1	0	12.8534	-0.202683	-0.20299	-0.0137317	1	-2.96527e-05	41	7.5062	2.78739e-06
2	0	0	1	0	12.8834	-0.20868	-0.208978	-0.0136123	1	-3.00626e-05	41	7.5362	2.84467e-06
2	0	0	1	0	12.9134	-0.214677	-0.214988	-0.0134694	1	-3.04682e-05	41	7.5662	2.89576e-06
2	0	0	1	0	12.9434	-0.220674	-0.220982	-0.0133459	1	-3.08704e-05	41	7.5962	2.94921e-06
2	0	0	1	0	12.9734	-0.226671	-0.226996	-0.0132856	1	-3.12695e-05	41	7.6262	3.01577e-06
2	0	0	1	0	13.0034	-0.232668	-0.232951	-0.0131896	1	-3.1666e-05	41	7.6562	3.07254e-06
2	0	0	1	0	13.0334	-0.238665	-0.238991	-0.0131253	1	-3.20606e-05	41	7.6862	3.13683e-06
2	0	0	1	0	13.0633	-0.244662	-0.244964	-0.0131232	1	-3.24529e-05	41	7.7161	3.21472e-06
2	0	0	1	0	13.0933	-0.250659	-0.250961	-0.0131284	1	-3.2846e-05	41	7.7461	3.29473e-06
2	0	0	1	0	13.1233	-0.256656	-0.25695	-0.0131798	1	-3.32401e-05	41	7.7761	3.38655e-06
2	0	0	1	0	13.1533	-0.262653	-0.262926	-0.0132738	1	-3.36361e-05	41	7.8061	3.49001e-06
2	0	0	1	0	13.1833	-0.26865	-0.268945	-0.0134107	1	-3.40359e-05	41	7.8361	3.60673e-06
2	0	0	1	0	13.2133	-0.274647	-0.274937	-0.0136299	1	-3.4441e-05	41	7.8661	3.74737e-06
2	0	0	1	0	13.2432	-0.280639	-0.280927	-0.0139158	1	-3.48522e-05	41	7.896	3.90933e-06
2	0	0	1	0	13.2732	-0.286641	-0.286921	-0.0142595	1	-3.52743e-05	41	7.926	4.09136e-06
2	0	0	1	0	13.3032	-0.292638	-0.292932	-0.0146731	1	-3.57081e-05	41	7.956	4.2982e-06
2	0	0	1	0	13.3332	-0.298635	-0.298889	-0.015224	1	-3.61562e-05	41	7.986	4.55028e-06
2	0	0	1	1	13.3581	-0.296436	-0.296671	-0.0113904	1	-3.64779e-05	41	8.0109	3.37922e-06
2	0	0	1	1	13.3881	-0.290439	-0.290679	-0.00994305	1	-3.67967e-05	41	8.0409	2.89024e-06
2	0	0	1	1	13.4181	-0.284442	-0.284695	-0.00893347	1	-3.70795e-05	41	8.0709	2.54331e-06
2	0	0	1	1	13.448	-0.278445	-0.278702	-0.00807875	1	-3.73331e-05	41	8.1008	2.25156e-06
2	0	0	1	1	13.478	-0.272448	-0.272685	-0.00740621	1	-3.75648e-05	41	8.1308	2.01957e-06
2	0	0	1	1	13.508	-0.266451	-0.266692	-0.00677469	1	-3.77772e-05	41	8.1608	1.80675e-06
2	0	0	1	1	13.538	-0.260454	-0.260703	-0.00630481	1	-3.79735e-05	41	8.1908	1.64368e-06
2	0	0	1	1	13.568	-0.254457	-0.254718	-0.00583307	1	-3.81558e-05	41	8.2208	1.48579e-06
2	0	0	1	1	13.598	-0.24846	-0.248713	-0.00551425	1	-3.83262e-05	41	8.2508	1.37147e-06
2	0	0	1	1	13.628	-0.242463	-0.242697	-0.00515005	1	-3.84861e-05	41	8.2808	1.2499e-06
2	0	0	1	1	13.6579	-0.236466	-0.23671	-0.00487784	1	-3.86362e-05	41	8.3107	1.15464e-06
2	0	0	1	1	13.6879	-0.230469	-0.230743	-0.00461322	1	-3.87787e-05	41	8.3407	1.06447e-06
2	0	0	1	1	13.7179	-0.224472	-0.224703	-0.00434488	1	-3.89137e-05	41	8.3707	9.76306e-07
2	0	0	1	1	13.7779	-0.212478	-0.212784	-0.00445868	1	-3.91705e-05	42	8.4307	9.48735e-07
2	0	0	1	1	13.8079	-0.206481	-0.206741	-0.00366001	1	-3.92859e-05	42	8.4607	7.56674e-07
2	0	0	1	1	13.8378	-0.200484	-0.200731	-0.00353489	1	-3.93948e-05	42	8.4906	7.09562e-07
2	0	0	1	1	13.8678	-0.194487	-0.19473	-0.00336934	1	-3.94986e-05	42	8.5206	6.56111e-07
2	0	0	1	1	13.8978	-0.18849	-0.188745	-0.00321628	1	-3.95969e-05	42	8.5506	6.07055e-07
2	0	0	1	1	13.9278	-0.182493	-0.182735	-0.00300868	1	-3.96898e-05	42	8.5806	5.4979e-07
2	0	0	1	1	13.9578	-0.176496	-0.176743	-0.00285316	1	-3.97775e-05	42	8.6106	5.04278e-07
2	0	0	1	1	13.9878	-0.170499	-0.17074	-0.00267204	1	-3.98599e-05	42	8.6406	4.56225e-07
2	0	0	1	1	14.0178	-0.164503	-0.164723	-0.00251113	1	-3.99371e-05	42	8.6706	4.1364e-07
2	0	0	1	1	14.0477	-0.158506	-0.158745	-0.0023241	1	-4.00088e-05	42	8.7005	3.68939e-07
2	0	0	1	1	14.0777	-0.152509	-0.152768	-0.00216771	1	-4.00757e-05	42	8.7305	3.31157e-07
2	0	0	1	1	14.1077	-0.146512	-0.146741	-0.00199878	1	-4.01373e-05	42	8.7605	2.93302e-07
2	0	0	1	1	14.1377	-0.140515	-0.140737	-0.00182936	1	-4.01939e-05	42	8.7905	2.57458e-07
2	0	0	1	1	14.1677	-0.134518	-0.134766	-0.00163776	1	-4.02453e-05	42	8.8205	2.20713e-07
2	0	0	1	1	14.1977	-0.128521	-0.128757	-0.00147825	1	-4.02914e-05	42	8.8505	1.90334e-07
2	0	0	1	1	14.2277	-0.122524	-0.122764	-0.00126731	1	-4.03323e-05	42	8.8805	1.5558e-07
2	0	0	1	1	14.2576	-0.116527	-0.116761	-0.00109816	1	-4.03674e-05	42	8.9104	1.28223e-07
2	0	0	1	1	14.2876	-0.11053	-0.110757	-0.000912393	1	-4.03975e-05	42	8.9404	1.01054e-07
2	0	0	1	1	14.3176	-0.104533	-0.104775	-0.000764888	1	-4.04222e-05	42	8.9704	8.01414e-08
2	0	0	1	1	14.3476	-0.0985358	-0.0987973	-0.000559349	1	-4.04414e-05	42	9.0004	5.52622e-08
2	0	0	1	1	14.3776	-0.0925388	-0.0927718	-0.000420319	1	-4.0455e-05	42	9.0304	3.89937e-08
2	0	0	1	1	14.4076	-0.0865419	-0.0867778	-0.000179367	1	-4.04629e-05	42	9.0604	1.55651e-08
2	0	0	1	1	14.4375	-0.0805449	-0.0807966	-1.95145e-05	1	-4.04649e-05	42	0.005	1.57671e-09
2	1	0	1	1	14.4675	-0.0745479	-0.0747892	0.00019457	1	-4.04614e-05	42	0.035	-1.45517e-08
2	1	0	1	1	14.4975	-0.0685509	-0.0687938	0.00038034	1	-4.04523e-05	42	0.065	-2.6165e-08
2	1	0	1	1	14.5275	-0.062554	-0.0628063	0.000593704	1	-4.04371e-05	42	0.095	-3.72884e-08
2	1	0	1	1	14.5575	-0.056557	-0.0568323	0.000756406	1	-4.04163e-05	42	0.125	-4.29883e-08
2	1	0	1	1	14.5875	-0.05056	-0.0508123	0.000979368	1	-4.03893e-05	42	0.155	-4.97639e-08
2	1	0	1	1	14.6175	-0.044563	-0.0448019	0.00116188	1	-4.03566e-05	42	0.185	-5.20545e-08
2	1	0	1	1	14.6474	-0.0385661	-0.0388047	0.00141938	1	-4.03178e-05	42	0.2149	-5.50787e-08
2	1	0	1	1	14.6774	-0.0325691	-0.0328251	0.00156226	1	-4.02732e-05	42	0.2449	-5.12812e-08
2	1	0	1	1	14.7074	-0.0265721	-0.0268154	0.00177138	1	-4.02228e-05	42	0.2749	-4.75002e-08
2	1	0	1	1	14.7374	-0.0205751	-0.0208248	0.0019435	1	-4.01664e-05	42	0.3049	-4.04729e-08
2	1	0	1	1	14.7674	-0.0145782	-0.0148484	0.00216823	1	-4.01043e-05	42	0.3349	-3.21946e-08
2	1	0	1	1	14.7974	-0.0085812	-0.00883552	0.00233306	1	-4.00362e-05	42	0.3649	-2.06138e-08
2	1	0	1	1	14.8274	-0.00256605	-0.00283084	0.00259956	1	-3.99624e-05	42	0.3949	-7.35895e-09
2	1	0	1	1	14.8573	0.00341275	0.00313963	0.00271284	1	-3.98832e-05	42	0.4248	8.5173e-09
2	1	0	1	1	14.8873	0.00940972	0.00916017	0.00291643	1	-3.97984e-05	42	0.4548	2.6715e-08
2	1	0	1	1	14.9173	0.0154067	0.0151622	0.00305181	1	-3.97082e-05	42	0.4848	4.62722e-08
2	1	0	1	1	14.9473	0.0214037	0.02116	0.00325442	1	-3.9613e-05	42	0.5148	6.88636e-08
2	1	0	1	1	14.9773	0.0274006	0.0271451	0.003391	1	-3.95126e-05	42	0.5448	9.20491e-08
2	1	0	1	1	15.0073	0.0333976	0.0331571	0.00359061	1	-3.94072e-05	42	0.5748	1.19054e-07
2	1	0	1	1	15.0372	0.0393946	0.0391662	0.00370436	1	-3.92973e-05	42	0.6047	1.45086e-07
2	1	0	1	1	15.0672	0.0453915	0.0451562	0.00388885	1	-3.91826e-05	42	0.6347	1.75606e-07
2	1	0	1	1	15.0972	0.0513885	0.0511543	0.00402665	1	-3.90634e-05	42	0.6647	2.05981e-07
2	1	0	1	1	15.1272	0.0573855	0.0571386	0.00417322	1	-3.89401e-05	42	0.6947	2.38452e-07
2	1	0	1	1	15.1572	0.0633825	0.0631307	0.00431255	1	-3.88125e-05	42	0.7247	2.72255e-07
2	1	0	1	1	15.1872	0.0693794	0.0691277	0.00445011	1	-3.86811e-05	42	0.7547	3.07626e-07
2	1	0	1	1	15.2172	0.0753764	0.0751197	0.00456143	1	-3.85457e-05	42	0.7847	3.42653e-07
2	1	0	1	1	15.2471	0.0813734	0.0811266	0.00468401	1	-3.84068e-05	42	0.8146	3.79998e-07
2	1	0	1	1	15.2771	0.0873703	0.0870753	0.00477015	1	-3.82643e-05	42	0.8446	4.15362e-07
2	1	0	1	1	15.3071	0.0933673	0.0931205	0.00491458	1	-3.81182e-05	42	0.8746	4.57648e-07
2	1	0	1	1	15.3371	0.0993643	0.0990921	0.00498853	1	-3.79691e-05	42	0.9046	4.94323e-07
2	1	0	1	1	15.3671	0.105361	0.105099	0.00513341	1	-3.78168e-05	42	0.9346	5.39515e-07
2	1	0	1	1	15.3971	0.111358	0.111105	0.00519552	1	-3.76616e-05	42	0.9646	5.7725e-07
2	1	0	1	1	15.427	0.117355	0.117108	0.00532324	1	-3.75038e-05	42	0.9945	6.23396e-07
2	1	0	1	1	15.457	0.123352	0.123102	0.00536932	1	-3.7343e-05	42	1.0245	6.60973e-07
2	1	0	1	1	15.487	0.129349	0.129075	0.00548448	1	-3.718e-05	42	1.0545	7.07911e-07
2	1	0	1	1	15.517	0.135346	0.135079	0.00552898	1	-3.70141e-05	42	1.0845	7.46847e-07
2	1	0	1	1	15.547	0.141343	0.141063	0.00562737	1	-3.6846e-05	42	1.1145	7.93814e-07
2	1	0	1	1	15.577	0.14734	0.147093	0.00570344	1	-3.66756e-05	42	1.1445	8.38937e-07
2	1	0	1	1	15.607	0.153337	0.153078	0.00580658	1	-3.65029e-05	42	1.1745	8.88857e-07
2	1	0	1	1	15.6369	0.159334	0.159066	0.00585111	1	-3.63284e-05	42	1.2044	9.30713e-07
2	1	0	1	1	15.6669	0.165331	0.165058	0.00594	1	-3.61516e-05	42	1.2344	9.80447e-07
2	1	0	1	1	15.6969	0.171328	0.171087	0.0059627	1	-3.59728e-05	42	1.2644	1.02014e-06
2	1	0	1	1	15.7269	0.177325	0.177084	0.00604857	1	-3.57922e-05	42	1.2944	1.07111e-06
2	1	0	1	1	15.7569	0.183322	0.183065	0.00608362	1	-3.56098e-05	42	1.3244	1.1137e-06
2	1	0	1	1	15.7869	0.189319	0.189055	0.00616446	1	-3.54258e-05	42	1.3544	1.16542e-06
2	1	0	1	1	15.8168	0.195311	0.195047	0.00622054	1	-3.52405e-05	42	1.3843	1.2133e-06
2	1	0	1	1	15.8468	0.201313	0.201053	0.00627182	1	-3.5053e-05	42	1.4143	1.26097e-06
2	1	0	1	1	15.8768	0.20731	0.207086	0.00630907	1	-3.48638e-05	42	1.4443	1.30652e-06
2	1	0	1	1	15.9068	0.213307	0.213069	0.00637619	1	-3.46735e-05	42	1.4743	1.35857e-06
2	1	0	1	1	15.9368	0.219304	0.219051	0.00638728	1	-3.44815e-05	42	1.5043	1.39914e-06
2	1	0	1	1	15.9668	0.225301	0.225057	0.00646648	1	-3.42882e-05	42	1.5343	1.45533e-06
2	1	0	1	1	15.9968	0.231298	0.231063	0.00649838	1	-3.40934e-05	42	1.5643	1.50153e-06
2	1	0	1	1	16.0267	0.237295	0.237059	0.0065301	1	-3.38978e-05	42	1.5942	1.54802e-06
2	1	0	1	1	16.0567	0.243292	0.24305	0.00657076	1	-3.37001e-05	42	1.6242	1.59703e-06
2	1	0	1	1	16.0867	0.249289	0.249029	0.00668577	1	-3.35011e-05	42	1.6542	1.66495e-06
2	1	0	1	1	16.1167	0.255285	0.255047	0.00668457	1	-3.33007e-05	42	1.6842	1.70488e-06
2	1	0	1	1	16.1467	0.261282	0.261011	0.00674693	1	-3.30987e-05	42	1.7142	1.76102e-06
2	1	0	1	1	16.1767	0.267279	0.267025	0.00681288	1	-3.28947e-05	42	1.7442	1.81921e-06
2	1	0	1	1	16.2067	0.273276	0.273037	0.0068956	1	-3.26889e-05	42	1.7742	1.88275e-06
2	1	0	1	1	16.2366	0.279273	0.279027	0.00693206	1	-3.24816e-05	42	1.8041	1.93423e-06
2	1	0	1	1	16.2666	0.28527	0.284996	0.0070215	1	-3.22719e-05	42	1.8341	2.0011e-06
2	1	0	1	1	16.2966	0.291267	0.291031	0.00707849	1	-3.20598e-05	42	1.8641	2.06006e-06
2	1	0	1	1	16.3266	0.297264	0.296997	0.00717361	1	-3.18454e-05	42	1.8941	2.13054e-06
2	1	0	1	1	16.3566	0.303261	0.303009	0.00723798	1	-3.16287e-05	42	1.9241	2.19318e-06
2	1	0	1	1	16.3866	0.309258	0.309021	0.00731023	1	-3.14101e-05	42	1.9541	2.25901e-06
2	1	0	1	1	16.4165	0.315255	0.315019	0.00737921	1	-3.11903e-05	42	1.984	2.3246e-06
2	1	0	1	1	16.4465	0.321252	0.320995	0.00740639	1	-3.09685e-05	42	2.014	2.37742e-06
2	1	0	1	1	16.4765	0.327249	0.326991	0.00740775	1	-3.07458e-05	42	2.044	2.42227e-06
2	1	0	1	1	16.5065	0.333246	0.333014	0.00744622	1	-3.05226e-05	42	2.074	2.4797e-06
2	1	0	1	1	16.5365	0.339243	0.338989	0.0074286	1	-3.02992e-05	42	2.104	2.51821e-06
2	1	0	1	1	16.5665	0.34524	0.344997	0.00747675	1	-3.00754e-05	42	2.134	2.57946e-06
2	1	0	1	1	16.5965	0.351237	0.350984	0.00744861	1	-2.98514e-05	42	2.164	2.61434e-06
2	1	0	1	1	16.6264	0.357234	0.357008	0.00749933	1	-2.96275e-05	42	2.1939	2.67732e-06
2	1	0	1	1	16.6564	0.363231	0.362984	0.00750977	1	-2.94024e-05	42	2.2239	2.72593e-06
2	1	0	1	1	16.6864	0.369228	0.36897	0.00754815	1	-2.91767e-05	42	2.2539	2.78504e-06
2	1	0	1	1	16.7164	0.375225	0.374986	0.00757948	1	-2.89497e-05	42	2.2839	2.8422e-06
2	1	0	1	1	16.7464	0.381222	0.380956	0.00761242	1	-2.8722e-05	42	2.3139	2.9e-06
2	1	0	1	1	16.7764	0.387219	0.386968	0.00763457	1	-2.8493e-05	42	2.3439	2.95434e-06
2	1	0	1	1	16.8064	0.393225	0.392965	0.00769163	1	-2.82631e-05	42	2.3739	3.02254e-06
2	1	0	1	1	16.8363	0.399213	0.398965	0.00770439	1	-2.80321e-05	42	2.4038	3.07378e-06
2	1	0	1	1	16.8663	0.40521	0.404953	0.00776873	1	-2.77995e-05	42	2.4338	3.14597e-06
2	1	0	1	1	16.8963	0.411207	0.410966	0.00779765	1	-2.75654e-05	42	2.4638	3.20457e-06
2	1	0	1	1	16.9263	0.417204	0.416971	0.00790442	1	-2.73298e-05	42	2.4938	3.29591e-06
2	1	0	1	1	16.9563	0.423201	0.422962	0.00791384	1	-2.70927e-05	42	2.5238	3.34725e-06
2	1	0	1	1	16.9863	0.429198	0.428956	0.00798293	1	-2.68537e-05	42	2.5538	3.42432e-06
2	1	0	1	1	17.0162	0.435195	0.434955	0.00801603	1	-2.66133e-05	42	2.5837	3.48661e-06
2	1	0	1	1	17.0462	0.441192	0.440934	0.0081284	1	-2.63708e-05	42	2.6137	3.58409e-06
2	1	0	1	1	17.0762	0.447189	0.446947	0.00820231	1	-2.61258e-05	42	2.6437	3.666e-06
2	1	0	1	1	17.1062	0.453186	0.452915	0.00825613	1	-2.5879e-05	42	2.6737	3.73933e-06
2	1	0	1	1	17.1362	0.459183	0.458928	0.00832696	1	-2.56294e-05	42	2.7037	3.82147e-06
2	1	0	1	1	17.1662	0.46518	0.464921	0.00844824	1	-2.53778e-05	42	2.7337	3.92777e-06
2	1	0	1	1	17.1962	0.471177	0.470927	0.00854285	1	-2.51233e-05	42	2.7637	4.02305e-06
2	1	0	1	1	17.2261	0.477173	0.476934	0.0086418	1	-2.48663e-05	42	2.7936	4.12157e-06
2	1	0	1	1	17.2561	0.48317	0.482922	0.00872434	1	-2.4606e-05	42	2.8236	4.21318e-06
2	1	0	1	1	17.2861	0.489167	0.488911	0.00888048	1	-2.43423e-05	42	2.8536	4.34177e-06
2	1	0	1	1	17.3161	0.495164	0.494893	0.00895883	1	-2.40748e-05	42	2.8836	4.43366e-06
2	1	0	1	1	17.3461	0.501161	0.500907	0.00913363	1	-2.38031e-05	42	2.9136	4.5751e-06
2	1	0	1	1	17.3761	0.507158	0.506899	0.00924089	1	-2.35267e-05	42	2.9436	4.6842e-06
2	1	0	1	1	17.406	0.513155	0.512909	0.00955786	1	-2.32456e-05	42	2.9735	4.90231e-06
2	1	0	1	1	17.436	0.519152	0.518911	0.00972486	1	-2.29575e-05	42	3.0035	5.04634e-06
2	1	0	1	1	17.466	0.525149	0.524914	0.00993267	1	-2.26626e-05	42	3.0335	5.2138e-06
2	1	0	1	1	17.496	0.531146	0.530909	0.0102459	1	-2.236e-05	42	3.0635	5.43966e-06
2	1	0	1	1	17.526	0.537143	0.536917	0.0104693	1	-2.20499e-05	42	3.0935	5.62114e-06
2	1	0	1	1	17.556	0.54314	0.5429	0.0107426	1	-2.17322e-05	42	3.1235	5.83213e-06
2	1	0	1	1	17.586	0.549137	0.548895	0.0109546	1	-2.14073e-05	42	3.1535	6.01291e-06
2	1	0	1	1	17.6464	0.561231	0.560993	0.0112749	1	-2.0737e-05	41	3.2139	6.32516e-06
2	1	0	1	1	17.6764	0.567228	0.566981	0.0113727	1	-2.03965e-05	41	3.2439	6.4481e-06
2	1	0	1	1	17.7064	0.573225	0.573001	0.0114781	1	-2.00534e-05	41	3.2739	6.57699e-06
2	1	0	1	1	17.7364	0.579222	0.578997	0.0114631	1	-1.97089e-05	41	3.3039	6.63711e-06
2	1	0	1	1	17.7664	0.585219	0.584971	0.0114105	1	-1.9365e-05	41	3.3339	6.67482e-06
2	1	0	1	1	17.7964	0.591225	0.590995	0.0114536	1	-1.90223e-05	41	3.3639	6.76902e-06
2	1	0	1	1	17.8263	0.597213	0.596973	0.0112823	1	-1.86834e-05	41	3.3938	6.73524e-06
2	1	0	1	1	17.8563	0.60321	0.602964	0.0111426	1	-1.83465e-05	41	3.4238	6.71858e-06
2	1	0	1	1	17.8863	0.609207	0.608955	0.0109745	1	-1.80139e-05	41	3.4538	6.68297e-06
2	1	0	1	1	17.9163	0.615204	0.614961	0.0108747	1	-1.7685e-05	41	3.4838	6.6875e-06
2	1	0	1	1	17.9463	0.621201	0.620961	0.010711	1	-1.73609e-05	41	3.5138	6.65115e-06
2	1	0	1	1	17.9763	0.627198	0.626979	0.0105562	1	-1.70409e-05	41	3.5438	6.6185e-06
2	1	0	0	1	17.996	0.631146	0.630943	0.0107131	1	-1.68335e-05	41	3.5635	6.75935e-06