File: Python/Data/GoldElectrode/240319/Gold/240319-CVEIS_PostActivation-Fe2Fe3_5mM-HCl1M-0RPM-Ag_AgCl_BLF8-Au_RDE_01_CV_C15.mpt
EC-Lab ASCII FILE
Nb header lines : 60

Cyclic Voltammetry

Run on channel : 15 (SN 19485)
User :
Electrode connection : standard
Potential control : Ewe
Ewe ctrl range : min = -1.00 V, max = 1.00 V
Ewe,I filtering : <None>
Safety Limits :
	Do not start on E overload
Channel : Floating
Acquisition started on : 03/19/2024 15:57:04.315
Loaded Setting File :  NONE
Saved on :
	File : 240319-CVEIS_PostActivation-Fe2Fe3_5mM-HCl1M-0RPM-Ag_AgCl_BLF8-Au_RDE_01_CV_C15.mpr
	Directory : C:\Data\mathias\GoldElectrode\
	Host : 192.168.0.1
Device : VMP-300 (SN 0826)
Address : USB
EC-Lab for windows v11.52 (software)
Internet server v11.52 (firmware)
Command interpretor v11.52 (firmware)
Electrode material :
Initial state :
Electrolyte :
Comments :
Cable : special
Electrode surface area : 0.001 cm²
Characteristic mass : 0.001 g
Equivalent Weight : 0.000 g/eq.
Density : 0.000 g/cm3
Volume (V) : 0.001 cm³
Record EIS quality indicators
Cycle Definition : Charge/Discharge alternance
Ei (V)              0.000
vs.                 Eoc
dE/dt               20.000
dE/dt unit          mV/s
E1 (V)              0.700
vs.                 Ref
Step percent        50
N                   10
E range min (V)     -1.000
E range max (V)     1.000
I Range             Auto
I Range min         Unset
I Range max         Unset
I Range init        Unset
Bandwidth           8
E2 (V)              0.000
vs.                 Ref
nc cycles           1
Reverse Scan        1
Ef (V)              0.000
vs.                 Eoc

mode	ox/red	error	control changes	counter inc.	time/s	control/V	Ewe/V	<I>/mA	cycle number	(Q-Qo)/C	I Range	step time/s	P/W
2	1	1	0	0	0.000000000000000E+000	0.462033	0.461565	0.0186797	1	0.0000000E+000	41	0.000000000000000E+000	8.6219e-06
2	1	0	1	0	0.2387	0.466806	0.466582	0.0407018	1	7.37886e-06	41	0.2249	1.89908e-05
2	1	0	1	0	0.4886	0.471803	0.471675	0.0558108	1	1.9535e-05	41	0.4748	2.63246e-05
2	1	0	1	0	0.7384	0.4768	0.476435	0.0671283	1	3.49587e-05	41	0.7246	3.19823e-05
2	1	0	1	0	0.9883	0.481799	0.481713	0.0759193	1	5.28928e-05	41	0.9745	3.65713e-05
2	1	0	1	0	1.2382	0.486796	0.487004	0.082349	1	7.27015e-05	41	1.2244	4.01043e-05
2	1	0	1	0	1.4881	0.491794	0.491762	0.0869498	1	9.38938e-05	41	1.4743	4.27587e-05
2	1	0	1	0	1.738	0.496792	0.496751	0.0899667	1	0.000116035	41	1.7242	4.4691e-05
2	1	0	1	0	1.9879	0.501789	0.501736	0.0916528	1	0.00013875	41	1.9741	4.59855e-05
2	1	0	1	0	2.2378	0.506788	0.506689	0.092223	1	0.000161753	41	2.224	4.67283e-05
2	1	0	1	0	2.4876	0.511785	0.51152	0.0919062	1	0.000184774	41	2.4738	4.70119e-05
2	1	0	1	0	2.7375	0.516782	0.516352	0.090904	1	0.000207632	41	2.7237	4.69385e-05
2	1	0	1	0	2.9874	0.52178	0.521531	0.0893657	1	0.000230163	41	2.9736	4.6607e-05
2	1	0	1	0	3.2373	0.526778	0.526213	0.0874032	1	0.000252259	41	3.2235	4.59927e-05
2	1	0	1	0	3.4872	0.531775	0.531302	0.0852434	1	0.00027384	41	3.4734	4.529e-05
2	1	0	1	0	3.7371	0.536773	0.536269	0.0829347	1	0.000294858	41	3.7233	4.44753e-05
2	1	0	1	0	3.9869	0.541771	0.541542	0.080544	1	0.000315277	41	3.9731	4.3618e-05
2	1	0	1	0	4.2368	0.546769	0.54669	0.0781196	1	0.000335105	41	4.223	4.27072e-05
2	1	0	1	0	4.4867	0.551766	0.551725	0.0757163	1	0.000354334	41	4.4729	4.17745e-05
2	1	0	1	0	4.7366	0.556764	0.55621	0.0734576	1	0.000372975	41	4.7228	4.08578e-05
2	1	0	1	0	4.9865	0.561762	0.56141	0.0712256	1	0.000391052	41	4.9727	3.99868e-05
2	1	0	1	0	5.2364	0.566759	0.566319	0.069149	1	0.000408588	41	5.2226	3.91604e-05
2	1	0	1	0	5.4862	0.571756	0.572332	0.0670929	1	0.000425606	41	5.4724	3.83994e-05
2	1	0	1	0	5.7361	0.576755	0.576168	0.0652239	1	0.000442145	41	5.7223	3.75799e-05
2	1	0	1	0	5.986	0.581752	0.581728	0.0634509	1	0.000458228	41	5.9722	3.69112e-05
2	1	0	1	0	6.2359	0.58675	0.586267	0.0618011	1	0.000473881	41	6.2221	3.6232e-05
2	1	0	1	0	6.4858	0.591748	0.591281	0.0602393	1	0.000489134	41	6.472	3.56183e-05
2	1	0	1	0	6.7357	0.596745	0.596518	0.058797	1	0.000504016	41	6.7219	3.50735e-05
2	1	0	1	0	6.9856	0.601744	0.601582	0.0574728	1	0.000518551	41	6.9718	3.45746e-05
2	1	0	1	0	7.2354	0.606741	0.606501	0.0561953	1	0.000532756	41	7.2216	3.40825e-05
2	1	0	1	0	7.4853	0.611738	0.611488	0.0550712	1	0.000546669	41	7.4715	3.36754e-05
2	1	0	1	0	7.7352	0.616736	0.616715	0.0540303	1	0.000560305	41	7.7214	3.33213e-05
2	1	0	1	0	7.9851	0.621734	0.621597	0.0530354	1	0.000573685	41	7.9713	3.29666e-05
2	1	0	1	0	8.235	0.626731	0.626433	0.0521387	1	0.000586832	41	8.2212	3.26614e-05
2	1	0	1	0	8.4849	0.631729	0.631308	0.0513628	1	0.000599765	41	8.4711	3.24257e-05
2	1	0	1	0	8.7347	0.636727	0.63646	0.0505655	1	0.000612498	41	8.7209	3.21829e-05
2	1	0	1	0	8.9846	0.641724	0.641403	0.0499356	1	0.00062506	41	8.9708	3.20288e-05
2	1	0	1	0	9.2345	0.646722	0.646484	0.0493344	1	0.000637467	41	9.2207	3.18939e-05
2	1	0	1	0	9.4844	0.65172	0.651847	0.0488344	1	0.00064974	41	9.4706	3.18326e-05
2	1	0	1	0	9.7343	0.656717	0.656207	0.0484191	1	0.000661899	41	9.7205	3.17729e-05
2	1	0	1	0	9.9842	0.661715	0.661386	0.0481061	1	0.000673964	41	9.9704	3.18167e-05
2	1	0	1	0	10.234	0.666713	0.666514	0.0478835	1	0.000685954	41	10.2202	3.1915e-05
2	1	0	1	0	10.4839	0.67171	0.671315	0.0477723	1	0.000697907	41	10.4701	3.20703e-05
2	1	0	1	0	10.7338	0.676708	0.676238	0.047758	1	0.000709847	41	10.72	3.22957e-05
2	1	0	1	0	10.9837	0.681706	0.682105	0.0478582	1	0.000721805	41	10.9699	3.26443e-05
2	1	0	1	0	11.2336	0.686704	0.686827	0.0481742	1	0.000733818	41	11.2198	3.30873e-05
2	1	0	1	0	11.4835	0.691701	0.691817	0.0486317	1	0.000745924	41	11.4697	3.36443e-05
2	1	0	1	0	11.7334	0.6967	0.696216	0.0493147	1	0.000758168	41	11.7196	3.43337e-05
2	1	0	1	0	11.9363	0.699248	0.699009	0.0477511	1	0.000768185	41	11.9225	3.33784e-05
2	1	0	1	0	12.1862	0.69425	0.693647	0.0434835	1	0.000779492	41	12.1724	3.01622e-05
2	1	0	1	0	12.4361	0.689252	0.688646	0.0411908	1	0.000790038	41	12.4223	2.83659e-05
2	1	0	1	0	12.686	0.684255	0.684104	0.0395652	1	0.000800108	41	12.6722	2.70667e-05
2	1	0	1	0	12.9358	0.679258	0.679186	0.0384224	1	0.000809834	41	12.922	2.60959e-05
2	1	0	1	0	13.1857	0.674259	0.67398	0.0375406	1	0.000819313	41	13.1719	2.53017e-05
2	1	0	1	0	13.4356	0.669262	0.669613	0.0368204	1	0.000828594	41	13.4218	2.46554e-05
2	1	0	1	0	13.6855	0.664264	0.663623	0.036291	1	0.00083772	41	13.6717	2.40836e-05
2	1	0	1	0	13.9354	0.659266	0.659057	0.0357677	1	0.000846717	41	13.9216	2.35729e-05
2	1	0	1	0	14.1853	0.654269	0.654037	0.0353878	1	0.000855609	41	14.1715	2.31449e-05
2	1	0	1	0	14.4352	0.64927	0.649241	0.0350507	1	0.000864407	41	14.4214	2.27564e-05
2	1	0	1	0	14.685	0.644273	0.643729	0.0347496	1	0.000873119	41	14.6712	2.23693e-05
2	1	0	1	0	14.9349	0.639276	0.638808	0.0344726	1	0.00088176	41	14.9211	2.20214e-05
2	1	0	1	0	15.1848	0.634278	0.633956	0.0341908	1	0.00089033	41	15.171	2.16755e-05
2	1	0	1	0	15.4347	0.62928	0.629	0.033904	1	0.000898829	41	15.4209	2.13256e-05
2	1	0	1	0	15.6846	0.624283	0.624108	0.0336146	1	0.000907258	41	15.6708	2.09791e-05
2	1	0	1	0	15.9344	0.619287	0.619345	0.033331	1	0.000915612	41	15.9206	2.06434e-05
2	1	0	1	0	16.1843	0.614287	0.613617	0.0330112	1	0.000923892	41	16.1705	2.02562e-05
2	1	0	1	0	16.4342	0.609289	0.608834	0.0326756	1	0.000932093	41	16.4204	1.98941e-05
2	1	0	1	0	16.6841	0.604292	0.604172	0.0322939	1	0.000940204	41	16.6703	1.95111e-05
2	1	0	1	0	16.934	0.599294	0.598748	0.0318715	1	0.000948217	41	16.9202	1.9083e-05
2	1	0	1	0	17.1839	0.594296	0.594124	0.0313761	1	0.000956119	41	17.1701	1.86413e-05
2	1	0	1	0	17.4338	0.589299	0.588219	0.0308752	1	0.000963895	41	17.42	1.81614e-05
2	1	0	1	0	17.6836	0.584301	0.584296	0.0302667	1	0.000971524	41	17.6698	1.76847e-05
2	1	0	1	0	17.9335	0.579303	0.579263	0.0295829	1	0.000978994	41	17.9197	1.71363e-05
2	1	0	1	0	18.1834	0.574306	0.574377	0.0287078	1	0.000986273	41	18.1696	1.64891e-05
2	1	0	1	0	18.4333	0.569308	0.568966	0.0277935	1	0.000993336	41	18.4195	1.58136e-05
2	1	0	1	0	18.6832	0.56431	0.564	0.026656	1	0.00100014	41	18.6694	1.5034e-05
2	1	0	1	0	18.9331	0.559313	0.559256	0.0253895	1	0.00100665	41	18.9193	1.41992e-05
2	1	0	1	0	19.183	0.554313	0.55361	0.0239356	1	0.00101281	41	19.1692	1.3251e-05
2	1	0	1	0	19.4328	0.549317	0.548635	0.0221333	1	0.00101856	41	19.419	1.21431e-05
2	1	0	1	0	19.6827	0.54432	0.544266	0.0200767	1	0.00102384	41	19.6689	1.09271e-05
2	1	0	1	0	19.9326	0.539322	0.539252	0.0175815	1	0.00102854	41	19.9188	9.48084e-06
2	1	0	1	0	20.1825	0.534324	0.534017	0.0147577	1	0.00103258	41	20.1687	7.88084e-06
2	1	0	1	0	20.4324	0.529327	0.528984	0.0113913	1	0.00103586	41	20.4186	6.02584e-06
2	1	0	1	0	20.6822	0.52433	0.523618	0.00755038	1	0.00103823	41	20.6684	3.95351e-06
2	1	0	1	0	20.9471	0.519031	0.518816	0.00302708	1	0.00103962	41	20.9333	1.5705e-06
2	0	0	1	0	21.212	0.513734	0.513491	-0.00265412	1	0.00103967	42	0.1	-1.36286e-06
2	0	0	1	0	21.4619	0.508736	0.508719	-0.00853535	1	0.00103828	42	0.3499	-4.34209e-06
2	0	0	1	0	21.7418	0.503139	0.503055	-0.0161429	1	0.00103486	41	0.6298	-8.12075e-06
2	0	0	1	0	21.9916	0.498141	0.497637	-0.0236102	1	0.00102991	41	0.8796	-1.17493e-05
2	0	0	1	0	22.2415	0.493143	0.492596	-0.0318048	1	0.00102299	41	1.1295	-1.56669e-05
2	0	0	1	0	22.4914	0.488146	0.488248	-0.0408244	1	0.0010139	41	1.3794	-1.99324e-05
2	0	0	1	0	22.7413	0.483148	0.482953	-0.0503469	1	0.00100251	41	1.6293	-2.43152e-05
2	0	0	1	0	22.9912	0.47815	0.478386	-0.060304	1	0.000988684	41	1.8792	-2.88486e-05
2	0	0	1	0	23.2411	0.473153	0.472762	-0.0704221	1	0.000972328	41	2.1291	-3.32929e-05
2	0	0	1	0	23.491	0.468153	0.467946	-0.0807007	1	0.000953419	41	2.379	-3.77636e-05
2	0	0	1	0	23.7408	0.463157	0.462473	-0.0905973	1	0.000931992	41	2.6288	-4.18988e-05
2	0	0	1	0	23.9907	0.45816	0.457969	-0.100061	1	0.000908143	41	2.8787	-4.58247e-05
2	0	0	1	0	24.2406	0.453162	0.452676	-0.108492	1	0.000882042	41	3.1286	-4.91116e-05
2	0	0	1	0	24.5205	0.447565	0.447018	-0.116175	1	0.000850484	40	3.4085	-5.19321e-05
2	0	0	1	0	24.7704	0.442566	0.442024	-0.12236	1	0.000820474	40	3.6584	-5.40859e-05
2	0	0	1	0	25.0202	0.437569	0.437315	-0.127208	1	0.000789102	40	3.9082	-5.563e-05
2	0	0	1	0	25.2701	0.432572	0.432425	-0.130543	1	0.000756682	40	4.1581	-5.645e-05
2	0	0	1	0	25.52	0.427574	0.427404	-0.13279	1	0.000723583	40	4.408	-5.6755e-05
2	0	0	1	0	25.7699	0.422576	0.422319	-0.133652	1	0.000690121	40	4.6579	-5.6444e-05
2	0	0	1	0	26.0198	0.417578	0.416971	-0.13324	1	0.00065661	40	4.9078	-5.55572e-05
2	0	0	1	0	26.2697	0.412581	0.412146	-0.131794	1	0.000623294	40	5.1577	-5.43183e-05
2	0	0	1	0	26.5195	0.407583	0.407458	-0.129898	1	0.000590411	40	5.4075	-5.29281e-05
2	0	0	1	0	26.7694	0.402585	0.402375	-0.127265	1	0.000558111	40	5.6574	-5.12085e-05
2	0	0	1	0	27.0193	0.397588	0.397323	-0.123914	1	0.000526542	40	5.9073	-4.92337e-05
2	0	0	1	0	27.2692	0.39259	0.392347	-0.120543	1	0.000495805	40	6.1572	-4.72946e-05
2	0	0	1	0	27.5191	0.387592	0.387249	-0.116866	1	0.000465949	40	6.4071	-4.52562e-05
2	0	0	1	0	27.769	0.382595	0.382272	-0.113865	1	0.000437024	40	6.657	-4.35275e-05
2	0	0	1	0	28.0188	0.377598	0.377288	-0.109251	1	0.000409047	40	6.9068	-4.12191e-05
2	0	0	1	0	28.2687	0.372599	0.372634	-0.105671	1	0.000381996	40	7.1567	-3.93768e-05
2	0	0	1	0	28.5186	0.367602	0.367635	-0.102028	1	0.000355855	40	7.4066	-3.75091e-05
2	0	0	1	0	28.7685	0.362604	0.362245	-0.0984131	1	0.000330602	40	7.6565	-3.56497e-05
2	0	0	1	0	29.0184	0.357606	0.357478	-0.0952915	1	0.000306206	40	7.9064	-3.40646e-05
2	0	0	1	0	29.2683	0.352609	0.352482	-0.0920031	1	0.000282614	40	8.1563	-3.24294e-05
2	0	0	1	0	29.5182	0.34761	0.347403	-0.0890997	1	0.000259794	40	8.4062	-3.09535e-05
2	0	0	1	0	29.768	0.342613	0.342126	-0.0860343	1	0.000237703	40	8.656	-2.94346e-05
2	0	0	1	0	30.0179	0.337616	0.337366	-0.0835757	1	0.000216286	40	8.9059	-2.81956e-05
2	0	0	1	0	30.2678	0.332618	0.332558	-0.0811341	1	0.000195514	40	9.1558	-2.69818e-05
2	0	0	1	0	30.5177	0.32762	0.327686	-0.07876	1	0.000175341	40	9.4057	-2.58085e-05
2	0	0	1	0	30.7676	0.322623	0.322328	-0.0765464	1	0.000155743	40	9.6556	-2.46731e-05
2	0	0	1	0	31.0174	0.317627	0.317406	-0.074357	1	0.000136683	40	9.9054	-2.36014e-05
2	0	0	1	0	31.2673	0.312627	0.312313	-0.0725204	1	0.00011812	40	10.1553	-2.2649e-05
2	0	0	1	0	31.5172	0.30763	0.307554	-0.0707951	1	0.000100032	40	10.4052	-2.17733e-05
2	0	0	1	0	31.7671	0.302632	0.302521	-0.0692061	1	8.2384e-05	40	10.6551	-2.09363e-05
2	0	0	1	0	32.017	0.297634	0.297182	-0.0671969	1	6.51556e-05	40	10.905	-1.99697e-05
2	0	0	1	0	32.2669	0.292637	0.292388	-0.0657633	1	4.83104e-05	40	11.1549	-1.92284e-05
2	0	0	1	0	32.5168	0.287639	0.287111	-0.0643358	1	3.18368e-05	40	11.4048	-1.84715e-05
2	0	0	1	0	32.7666	0.282641	0.282398	-0.0628753	1	1.57195e-05	40	11.6546	-1.77559e-05
2	0	0	1	0	33.0165	0.277643	0.277068	-0.061573	1	-7.84892e-08	40	11.9045	-1.70599e-05
2	0	0	1	0	33.2664	0.272646	0.272445	-0.0605224	1	-1.55673e-05	40	12.1544	-1.6489e-05
2	0	0	1	0	33.5163	0.267648	0.267522	-0.0592839	1	-3.07619e-05	40	12.4043	-1.58598e-05
2	0	0	1	0	33.7662	0.26265	0.262266	-0.0582181	1	-4.56794e-05	40	12.6542	-1.52686e-05
2	0	0	1	0	34.0161	0.257653	0.257477	-0.0570654	1	-6.03305e-05	40	12.9041	-1.4693e-05
2	0	0	1	0	34.266	0.252653	0.252315	-0.056231	1	-7.47252e-05	40	13.154	-1.41879e-05
2	0	0	1	0	34.5158	0.247657	0.247543	-0.0553041	1	-8.88777e-05	40	13.4038	-1.36901e-05
2	0	0	1	0	34.7657	0.24266	0.24262	-0.0544098	1	-0.000102808	40	13.6537	-1.32009e-05
2	0	0	1	0	35.0156	0.237662	0.237224	-0.0535707	1	-0.000116522	40	13.9036	-1.27082e-05
2	0	0	1	0	35.2655	0.232664	0.232417	-0.0525953	1	-0.000130033	40	14.1535	-1.2224e-05
2	0	0	1	0	35.5154	0.227667	0.227702	-0.0516825	1	-0.000143341	40	14.4034	-1.17682e-05
2	0	0	1	0	35.7652	0.22267	0.222192	-0.0508148	1	-0.000156451	40	14.6532	-1.12906e-05
2	0	0	1	0	36.0151	0.217671	0.217263	-0.0501414	1	-0.000169381	40	14.9031	-1.08939e-05
2	0	0	1	0	36.265	0.212674	0.212082	-0.0493737	1	-0.000182145	40	15.153	-1.04713e-05
2	0	0	1	0	36.5149	0.207676	0.20718	-0.0488522	1	-0.000194744	40	15.4029	-1.01212e-05
2	0	0	1	0	36.7648	0.202678	0.20243	-0.0481678	1	-0.000207176	40	15.6528	-9.75064e-06
2	0	0	1	0	37.0147	0.197681	0.197552	-0.0475967	1	-0.000219459	40	15.9027	-9.40285e-06
2	0	0	1	0	37.2646	0.192683	0.192355	-0.0469083	1	-0.000231592	40	16.1526	-9.02307e-06
2	0	0	1	0	37.5144	0.187685	0.187569	-0.046333	1	-0.000243588	40	16.4024	-8.69063e-06
2	0	0	1	0	37.7643	0.182688	0.182508	-0.0458178	1	-0.000255455	40	16.6523	-8.36212e-06
2	0	0	1	0	38.0142	0.17769	0.177363	-0.0452919	1	-0.000267194	40	16.9022	-8.03312e-06
2	0	0	1	0	38.2641	0.172692	0.172416	-0.0447626	1	-0.000278808	40	17.1521	-7.7178e-06
2	0	0	1	0	38.514	0.167695	0.167393	-0.0441518	1	-0.000290298	40	17.402	-7.3907e-06
2	0	0	1	0	38.7639	0.162697	0.162278	-0.0435612	1	-0.000301669	40	17.6519	-7.06902e-06
2	0	0	1	0	39.0437	0.157099	0.156994	-0.0448064	1	-0.000314271	41	17.9317	-7.03433e-06
2	0	0	1	0	39.2936	0.152102	0.151517	-0.0443415	1	-0.000325416	41	18.1816	-6.71851e-06
2	0	0	1	0	39.5435	0.147104	0.14699	-0.0439573	1	-0.000336455	41	18.4315	-6.46127e-06
2	0	0	1	0	39.7934	0.142106	0.1419	-0.043576	1	-0.000347396	41	18.6814	-6.18345e-06
2	0	0	1	0	40.0433	0.137109	0.136861	-0.0431712	1	-0.000358238	41	18.9313	-5.90844e-06
2	0	0	1	0	40.2932	0.13211	0.131582	-0.0428044	1	-0.000368988	41	19.1812	-5.63229e-06
2	0	0	1	0	40.543	0.127113	0.12692	-0.0424449	1	-0.000379645	41	19.431	-5.38711e-06
2	0	0	1	0	40.7929	0.122116	0.121846	-0.0420774	1	-0.000390218	41	19.6809	-5.12698e-06
2	0	0	1	0	41.0428	0.117118	0.1167	-0.0417662	1	-0.000400706	41	19.9308	-4.87409e-06
2	0	0	1	0	41.2927	0.11212	0.111835	-0.0414459	1	-0.000411113	41	20.1807	-4.63509e-06
2	0	0	1	0	41.5426	0.107123	0.106732	-0.041136	1	-0.000421441	41	20.4306	-4.39052e-06
2	0	0	1	0	41.7924	0.102127	0.10208	-0.0408602	1	-0.000431689	41	20.6804	-4.17099e-06
2	0	0	1	0	42.0423	0.0971273	0.0968743	-0.0405806	1	-0.000441866	41	20.9303	-3.93122e-06
2	0	0	1	0	42.2922	0.0921296	0.0920742	-0.0402448	1	-0.000451972	41	21.1802	-3.70551e-06
2	0	0	1	0	42.5421	0.0871319	0.0870698	-0.0400269	1	-0.000462008	41	21.4301	-3.48514e-06
2	0	0	1	0	42.792	0.0821343	0.082088	-0.0397308	1	-0.000471976	41	21.68	-3.26142e-06
2	0	0	1	0	43.0419	0.0771366	0.077002	-0.03947	1	-0.000481879	41	21.9299	-3.03927e-06
2	0	0	1	0	43.2918	0.0721389	0.071627	-0.0392051	1	-0.000491718	41	22.1798	-2.80814e-06
2	0	0	1	0	43.5416	0.0671412	0.0664656	-0.0389791	1	-0.000501493	41	22.4296	-2.59077e-06
2	0	0	1	0	43.7915	0.0621435	0.0616252	-0.0386875	1	-0.00051121	41	22.6795	-2.38412e-06
2	0	0	1	0	44.0414	0.0571459	0.0573891	-0.0384946	1	-0.00052087	41	22.9294	-2.20917e-06
2	0	0	1	0	44.2913	0.0521482	0.0518309	-0.0382858	1	-0.000530471	41	23.1793	-1.98439e-06
2	0	0	1	0	44.5412	0.0471505	0.046888	-0.0381254	1	-0.000540021	41	23.4292	-1.78762e-06
2	0	0	1	0	44.7911	0.0421528	0.0414969	-0.037843	1	-0.000549515	41	23.6791	-1.57037e-06
2	0	0	1	0	45.041	0.0371534	0.0373685	-0.0376855	1	-0.000558958	41	23.929	-1.40825e-06
2	0	0	1	0	45.2908	0.0321575	0.0320959	-0.0374783	1	-0.000568347	41	24.1788	-1.2029e-06
2	0	0	1	0	45.5407	0.0271598	0.0268687	-0.0373094	1	-0.000577692	41	24.4287	-1.00245e-06
2	0	0	1	0	45.7906	0.0221621	0.0222298	-0.0371377	1	-0.000586992	41	24.6786	-8.25563e-07
2	0	0	1	0	46.0405	0.0171644	0.0169944	-0.0369187	1	-0.000596248	41	24.9285	-6.2741e-07
2	0	0	1	0	46.2904	0.0121667	0.0123212	-0.0367921	1	-0.00060546	41	25.1784	-4.53323e-07
2	0	0	1	0	46.5402	0.0071704	0.00699206	-0.0366247	1	-0.000614629	41	25.4282	-2.56082e-07
2	0	0	1	0	46.7901	0.00217138	0.00181256	-0.0364312	1	-0.000623759	41	25.6781	-6.60337e-08
2	0	0	1	1	47.0132	0.00227134	0.00178788	-0.0354022	1	-0.000631778	41	25.9012	-6.32948e-08
2	0	0	1	1	47.263	0.00726902	0.00673858	-0.035169	1	-0.000640591	41	26.151	-2.36989e-07
2	0	0	1	1	47.5129	0.0122667	0.0123042	-0.0350063	1	-0.000649357	41	26.4009	-4.30723e-07
2	0	0	1	1	47.7628	0.0172644	0.0167648	-0.0348287	1	-0.000658078	41	26.6508	-5.83897e-07
2	0	0	1	1	48.0127	0.0222621	0.0218749	-0.0347008	1	-0.000666757	41	26.9007	-7.59076e-07
2	0	0	1	1	48.2626	0.0272597	0.0267455	-0.034506	1	-0.000675398	41	27.1506	-9.22879e-07
2	0	0	1	1	48.5125	0.0322574	0.0318803	-0.0343841	1	-0.000683997	41	27.4005	-1.09618e-06
2	0	0	1	1	48.7624	0.037256	0.0367708	-0.0342109	1	-0.000692562	41	27.6504	-1.25796e-06
2	0	0	1	1	49.0122	0.0422528	0.0415872	-0.034088	1	-0.000701087	41	27.9002	-1.41763e-06
2	0	0	1	1	49.2621	0.0472505	0.0470735	-0.0339485	1	-0.00070958	41	28.1501	-1.59808e-06
2	0	0	1	1	49.512	0.0522481	0.0519068	-0.0337929	1	-0.000718043	41	28.4	-1.75408e-06
2	0	0	1	1	49.7619	0.0572458	0.0569054	-0.0336752	1	-0.000726472	41	28.6499	-1.9163e-06
2	0	0	1	1	50.0118	0.0622435	0.0616275	-0.0335398	1	-0.000734871	41	28.8998	-2.06697e-06
2	0	0	1	1	50.2616	0.0672394	0.066997	-0.0334496	1	-0.000743235	41	29.1496	-2.24102e-06
2	0	0	1	1	50.5115	0.0722389	0.0715591	-0.0333535	1	-0.000751576	41	29.3995	-2.38675e-06
2	0	0	1	1	50.7614	0.0772365	0.0768414	-0.0332282	1	-0.000759889	41	29.6494	-2.5533e-06
2	0	0	1	1	51.0113	0.0822342	0.0821146	-0.0331511	1	-0.000768175	41	29.8993	-2.72219e-06
2	0	0	1	1	51.2612	0.0872319	0.0868903	-0.033048	1	-0.000776439	41	30.1492	-2.87155e-06
2	0	0	1	1	51.5111	0.0922296	0.0917575	-0.0329466	1	-0.000784677	41	30.3991	-3.0231e-06
2	0	0	1	1	51.761	0.0972273	0.0968472	-0.0328736	1	-0.000792891	41	30.649	-3.18372e-06
2	0	0	1	1	52.0108	0.102225	0.102192	-0.0327681	1	-0.000801078	41	30.8988	-3.34862e-06
2	0	0	1	1	52.2607	0.107223	0.107081	-0.0326746	1	-0.000809245	41	31.1487	-3.49882e-06
2	0	0	1	1	52.5106	0.11222	0.111869	-0.0325775	1	-0.000817388	41	31.3986	-3.64442e-06
2	0	0	1	1	52.7605	0.117218	0.117353	-0.03248	1	-0.000825508	41	31.6485	-3.81161e-06
2	0	0	1	1	53.0104	0.122216	0.122311	-0.0324065	1	-0.000833604	41	31.8984	-3.96367e-06
2	0	0	1	1	53.2603	0.127213	0.126927	-0.0322709	1	-0.000841676	41	32.1483	-4.09606e-06
2	0	0	1	1	53.5102	0.132213	0.132046	-0.032187	1	-0.000849725	41	32.3982	-4.25016e-06
2	0	0	1	1	53.76	0.137209	0.136538	-0.0320954	1	-0.00085775	41	32.648	-4.38225e-06
2	0	0	1	1	54.0099	0.142206	0.142303	-0.0320312	1	-0.000865754	41	32.8979	-4.55815e-06
2	0	0	1	1	54.2598	0.147204	0.147374	-0.0319352	1	-0.000873739	41	33.1478	-4.70642e-06
2	0	0	1	1	54.5097	0.152202	0.151766	-0.0318405	1	-0.000881703	41	33.3977	-4.8323e-06
2	0	0	1	1	54.7596	0.157199	0.156878	-0.0317402	1	-0.000889647	41	33.6476	-4.97933e-06
2	0	0	1	1	55.0094	0.162196	0.16206	-0.0316798	1	-0.000897568	41	33.8974	-5.13402e-06
2	0	0	1	1	55.2593	0.167195	0.167301	-0.0315983	1	-0.000905474	41	34.1473	-5.28642e-06
2	0	0	1	1	55.5092	0.172192	0.171755	-0.0315129	1	-0.000913361	41	34.3972	-5.41249e-06
2	0	0	1	1	55.7591	0.17719	0.177039	-0.0314733	1	-0.000921232	41	34.6471	-5.572e-06
2	0	0	1	1	56.009	0.182188	0.182084	-0.0313844	1	-0.000929085	41	34.897	-5.71458e-06
2	0	0	1	1	56.2589	0.187185	0.186852	-0.0313482	1	-0.000936921	41	35.1469	-5.85747e-06
2	0	0	1	1	56.5088	0.192183	0.191957	-0.0312519	1	-0.000944739	41	35.3968	-5.99903e-06
2	0	0	1	1	56.7586	0.197181	0.197105	-0.0312268	1	-0.000952539	41	35.6466	-6.15498e-06
2	0	0	1	1	57.0085	0.202178	0.201829	-0.0311209	1	-0.000960326	41	35.8965	-6.28109e-06
2	0	0	1	1	57.2584	0.207176	0.207682	-0.031116	1	-0.000968098	41	36.1464	-6.46223e-06
2	0	0	1	1	57.5083	0.212174	0.212165	-0.0310146	1	-0.000975853	41	36.3963	-6.58022e-06
2	0	0	1	1	57.7582	0.217172	0.217016	-0.0309326	1	-0.000983593	41	36.6462	-6.71289e-06
2	0	0	1	1	58.0081	0.222169	0.221704	-0.030897	1	-0.000991319	41	36.8961	-6.85e-06
2	0	0	1	1	58.2579	0.227167	0.2276	-0.0308282	1	-0.000999022	41	37.1459	-7.01648e-06
2	0	0	1	1	58.5078	0.232165	0.231807	-0.030707	1	-0.00100671	41	37.3958	-7.11809e-06
2	0	0	1	1	58.7577	0.237162	0.237308	-0.0306795	1	-0.00101438	41	37.6457	-7.28049e-06
2	0	0	1	1	59.0076	0.24216	0.241946	-0.0306053	1	-0.00102203	41	37.8956	-7.40482e-06
2	0	0	1	1	59.2575	0.247158	0.246606	-0.0304834	1	-0.00102967	41	38.1455	-7.5174e-06
2	0	0	1	1	59.5074	0.252155	0.252123	-0.0304322	1	-0.00103728	41	38.3954	-7.67268e-06
2	0	0	1	1	59.7572	0.257153	0.256878	-0.0303436	1	-0.00104487	41	38.6452	-7.7946e-06
2	0	0	1	1	60.0071	0.262151	0.26187	-0.030249	1	-0.00105244	41	38.8951	-7.92129e-06
2	0	0	1	1	60.257	0.267148	0.266788	-0.0301264	1	-0.00105999	41	39.145	-8.03736e-06
2	0	0	1	1	60.5069	0.272146	0.27188	-0.0300681	1	-0.00106752	41	39.3949	-8.1749e-06
2	0	0	1	1	60.7568	0.277144	0.277004	-0.0299509	1	-0.00107502	41	39.6448	-8.29652e-06
2	0	0	1	1	61.0067	0.282141	0.281557	-0.0297778	1	-0.00108249	41	39.8947	-8.38416e-06
2	0	0	1	1	61.2566	0.28714	0.286473	-0.029704	1	-0.00108993	41	40.1446	-8.50939e-06
2	0	0	1	1	61.5064	0.292137	0.291926	-0.0295603	1	-0.00109733	41	40.3944	-8.62941e-06
2	0	0	1	1	61.7563	0.297134	0.296923	-0.029369	1	-0.00110469	41	40.6443	-8.72036e-06
2	0	0	1	1	62.0062	0.302132	0.301564	-0.0291432	1	-0.001112	41	40.8942	-8.78855e-06
2	0	0	1	1	62.2561	0.30713	0.306986	-0.0289158	1	-0.00111926	41	41.1441	-8.87674e-06
2	0	0	1	1	62.506	0.312127	0.311687	-0.028626	1	-0.00112645	41	41.394	-8.92237e-06
2	0	0	1	1	62.7559	0.317125	0.316761	-0.0283046	1	-0.00113357	41	41.6439	-8.96582e-06
2	0	0	1	1	63.0057	0.322123	0.322094	-0.0279696	1	-0.00114059	41	41.8937	-9.00883e-06
2	0	0	1	1	63.2556	0.32712	0.326986	-0.0274733	1	-0.00114752	41	42.1436	-8.98339e-06
2	0	0	1	1	63.5055	0.332118	0.331075	-0.0269235	1	-0.00115432	41	42.3935	-8.91369e-06
2	0	0	1	1	63.7554	0.337116	0.33726	-0.0263929	1	-0.00116098	41	42.6434	-8.90126e-06
2	0	0	1	1	64.0053	0.342114	0.342301	-0.0256251	1	-0.00116748	41	42.8933	-8.77149e-06
2	0	0	1	1	64.2552	0.347111	0.346429	-0.0247797	1	-0.00117378	41	43.1432	-8.58441e-06
2	0	0	1	1	64.505	0.352109	0.351936	-0.023719	1	-0.00117983	41	43.393	-8.34759e-06
2	0	0	1	1	64.7549	0.357107	0.356611	-0.0225294	1	-0.00118562	41	43.6429	-8.03423e-06
2	0	0	1	1	65.0048	0.362104	0.361643	-0.0211711	1	-0.00119109	41	43.8928	-7.65637e-06
2	0	0	1	1	65.2547	0.367102	0.367206	-0.0195282	1	-0.00119617	41	44.1427	-7.17087e-06
2	0	0	1	1	65.5046	0.3721	0.372501	-0.0176424	1	-0.00120081	41	44.3926	-6.5718e-06
2	0	0	1	1	65.7545	0.377097	0.376854	-0.0153006	1	-0.00120493	41	44.6425	-5.7661e-06
2	0	0	1	1	66.0044	0.382096	0.381815	-0.0126645	1	-0.00120842	41	44.8924	-4.8355e-06
2	0	0	1	1	66.2542	0.387093	0.386884	-0.00952701	1	-0.0012112	41	45.1422	-3.68585e-06
2	0	0	1	1	66.5041	0.39209	0.39178	-0.0058498	1	-0.00121312	41	45.3921	-2.29183e-06
2	0	0	1	1	66.784	0.397688	0.397027	-0.00111377	1	-0.00121413	42	45.672	-4.42197e-07
2	1	0	1	1	67.0339	0.402685	0.402595	0.00387013	1	-0.0012138	42	0.1749	1.55809e-06
2	1	0	1	1	67.2838	0.407683	0.407489	0.0094068	1	-0.00121216	42	0.4248	3.83317e-06
2	1	0	1	1	67.5636	0.413281	0.413141	0.0165799	1	-0.00120854	41	0.7046	6.84981e-06
2	1	0	1	1	67.8135	0.418278	0.41786	0.0237482	1	-0.00120351	41	0.9545	9.92341e-06
2	1	0	1	1	68.0634	0.423276	0.422851	0.0317102	1	-0.00119658	41	1.2044	1.34087e-05
2	1	0	1	1	68.3133	0.428274	0.428446	0.0402135	1	-0.00118759	41	1.4543	1.72293e-05
2	1	0	1	1	68.5632	0.433271	0.432704	0.0493665	1	-0.0011764	41	1.7042	2.13611e-05
2	1	0	1	1	68.813	0.438269	0.437967	0.0588998	1	-0.00116287	41	1.954	2.57962e-05
2	1	0	1	1	69.0629	0.443267	0.443029	0.068722	1	-0.0011469	41	2.2039	3.04458e-05
2	1	0	1	1	69.3128	0.448264	0.447948	0.0785758	1	-0.00112849	41	2.4538	3.51979e-05
2	1	0	1	1	69.5627	0.453262	0.452829	0.0881912	1	-0.00110764	41	2.7037	3.99355e-05
2	1	0	1	1	69.8126	0.45826	0.457904	0.0971821	1	-0.00108446	41	2.9536	4.45e-05
2	1	0	1	1	70.025	0.462508	0.462317	0.104417	2	-0.00106303	41	3.166	4.82739e-05
2	1	0	1	1	70.3048	0.468103	0.468127	0.111945	2	-0.00103264	40	3.4458	5.24043e-05
2	1	0	1	1	70.5547	0.473103	0.472664	0.118273	2	-0.00100369	40	3.6957	5.59035e-05
2	1	0	1	1	70.8046	0.4781	0.47802	0.123114	2	-0.00097335	40	3.9456	5.88508e-05
2	1	0	1	1	71.0545	0.483098	0.482793	0.126612	2	-0.000941954	40	4.1955	6.11272e-05
2	1	0	1	1	71.3044	0.488096	0.487847	0.128783	2	-0.000909837	40	4.4454	6.28261e-05
2	1	0	1	1	71.5543	0.493093	0.492874	0.129844	2	-0.000877309	40	4.6953	6.39965e-05
2	1	0	1	1	71.8042	0.498091	0.498146	0.129501	2	-0.000844683	40	4.9452	6.45104e-05
2	1	0	1	1	72.054	0.503089	0.502668	0.128519	2	-0.000812229	40	5.195	6.46022e-05
2	1	0	1	1	72.3039	0.508086	0.507899	0.126514	2	-0.000780137	40	5.4449	6.42565e-05
2	1	0	1	1	72.5538	0.513084	0.512757	0.123985	2	-0.000748595	40	5.6948	6.35743e-05
2	1	0	1	1	72.8037	0.518082	0.51757	0.12104	2	-0.000717753	40	5.9447	6.26465e-05
2	1	0	1	1	73.0536	0.52308	0.522786	0.117761	2	-0.000687719	40	6.1946	6.15637e-05
2	1	0	1	1	73.3035	0.528077	0.527688	0.113992	2	-0.00065855	40	6.4445	6.0152e-05
2	1	0	1	1	73.5533	0.533075	0.533027	0.110142	2	-0.000630303	40	6.6943	5.87088e-05
2	1	0	1	1	73.8032	0.538073	0.537851	0.106625	2	-0.000602974	40	6.9442	5.73486e-05
2	1	0	1	1	74.0531	0.54307	0.542944	0.102636	2	-0.000576559	40	7.1941	5.57254e-05
2	1	0	1	1	74.303	0.548068	0.547858	0.0993638	2	-0.000551046	40	7.444	5.44372e-05
2	1	0	1	1	74.5529	0.553066	0.552961	0.0956704	2	-0.000526413	40	7.6939	5.2902e-05
2	1	0	1	1	74.8028	0.558063	0.557922	0.0923908	2	-0.00050262	40	7.9438	5.15468e-05
2	1	0	1	1	75.0526	0.56306	0.562497	0.0893742	2	-0.000479649	40	8.1936	5.02727e-05
2	1	0	1	1	75.3025	0.568059	0.567583	0.086236	2	-0.000457432	40	8.4435	4.8946e-05
2	1	0	1	1	75.5524	0.573056	0.572796	0.0835449	2	-0.000435942	40	8.6934	4.78541e-05
2	1	0	1	1	75.8023	0.578054	0.577696	0.0807545	2	-0.000415128	40	8.9433	4.66515e-05
2	1	0	1	1	76.0522	0.583052	0.58269	0.0784828	2	-0.000394961	40	9.1932	4.57312e-05
2	1	0	1	1	76.3021	0.588049	0.58792	0.0760982	2	-0.000375392	40	9.4431	4.47397e-05
2	1	0	1	1	76.552	0.593048	0.592889	0.0740736	2	-0.000356389	40	9.693	4.39175e-05
2	1	0	1	1	76.8018	0.598045	0.597938	0.0720757	2	-0.000337923	40	9.9428	4.30968e-05
2	1	0	1	1	77.0517	0.603042	0.602717	0.0703297	2	-0.000319949	40	10.1927	4.23889e-05
2	1	0	1	1	77.3016	0.60804	0.608002	0.0685552	2	-0.000302434	40	10.4426	4.16817e-05
2	1	0	1	1	77.5515	0.613038	0.612922	0.0670326	2	-0.000285348	40	10.6925	4.10858e-05
2	1	0	1	1	77.8014	0.618035	0.617789	0.0654331	2	-0.000268657	40	10.9424	4.04239e-05
2	1	0	1	1	78.0513	0.623033	0.622855	0.0640971	2	-0.000252339	40	11.1923	3.99232e-05
2	1	0	1	1	78.3011	0.628031	0.627782	0.0628529	2	-0.000236375	40	11.4421	3.9458e-05
2	1	0	1	1	78.551	0.633028	0.632858	0.0615887	2	-0.000220725	40	11.692	3.8977e-05
2	1	0	1	1	78.8009	0.638026	0.63767	0.0605814	2	-0.00020536	40	11.9419	3.86309e-05
2	1	0	1	1	79.0508	0.643024	0.642399	0.059642	2	-0.000190272	40	12.1918	3.8314e-05
2	1	0	1	1	79.3007	0.648022	0.647726	0.0586632	2	-0.000175433	40	12.4417	3.79977e-05
2	1	0	1	1	79.5506	0.653019	0.652728	0.0579475	2	-0.000160803	40	12.6916	3.7824e-05
2	1	0	1	1	79.8004	0.658017	0.657785	0.0569674	2	-0.000146367	40	12.9414	3.74723e-05
2	1	0	1	1	80.0503	0.663015	0.662974	0.0562889	2	-0.000132101	40	13.1913	3.73181e-05
2	1	0	1	1	80.3002	0.668012	0.667694	0.0559272	2	-0.000117973	40	13.4412	3.73423e-05
2	1	0	1	1	80.5501	0.67301	0.672822	0.0556885	2	-0.000103962	40	13.6911	3.74684e-05
2	1	0	1	1	80.8	0.678008	0.677762	0.0553832	2	-9.00251e-05	40	13.941	3.75366e-05
2	1	0	1	1	81.0499	0.683005	0.682614	0.0553102	2	-7.61308e-05	40	14.1909	3.77555e-05
2	1	0	1	1	81.2998	0.688004	0.687676	0.0554876	2	-6.22399e-05	40	14.4408	3.81575e-05
2	1	0	1	1	81.5496	0.693001	0.693068	0.0556115	2	-4.83108e-05	40	14.6906	3.85426e-05
2	1	0	1	1	81.7995	0.697998	0.697549	0.0561699	2	-3.42893e-05	40	14.9405	3.91813e-05
2	1	0	1	1	81.9875	0.698248	0.69801	0.0533209	2	-2.38621e-05	40	15.1285	3.72185e-05
2	1	0	1	1	82.2374	0.693251	0.692868	0.0495874	2	-1.11069e-05	40	15.3784	3.43575e-05
2	1	0	1	1	82.4872	0.688255	0.687774	0.0471727	2	9.26209e-07	40	15.6282	3.24442e-05
2	1	0	1	1	82.7371	0.683255	0.682915	0.0455795	2	1.24635e-05	40	15.8781	3.11269e-05
2	1	0	1	1	83.017	0.677658	0.677379	0.0439496	2	2.49586e-05	41	16.158	2.97705e-05
2	1	0	1	1	83.2669	0.67266	0.672132	0.0429309	2	3.5801e-05	41	16.4079	2.88552e-05
2	1	0	1	1	83.5168	0.667662	0.667422	0.042078	2	4.64154e-05	41	16.6578	2.80838e-05
2	1	0	1	1	83.7667	0.662665	0.663058	0.0413631	2	5.68393e-05	41	16.9077	2.74261e-05
2	1	0	1	1	84.0166	0.657665	0.657349	0.0407822	2	6.70975e-05	41	17.1576	2.68081e-05
2	1	0	1	1	84.2664	0.652669	0.652463	0.0402404	2	7.72108e-05	41	17.4074	2.62554e-05
2	1	0	1	1	84.5163	0.647672	0.647155	0.0397632	2	8.71974e-05	41	17.6573	2.57329e-05
2	1	0	1	1	84.7662	0.642674	0.642139	0.0393127	2	9.70651e-05	41	17.9072	2.52442e-05
2	1	0	1	1	85.0161	0.637676	0.636905	0.0388671	2	0.000106822	41	18.1571	2.47547e-05
2	1	0	1	1	85.266	0.632679	0.63261	0.0384337	2	0.00011647	41	18.407	2.43136e-05
2	1	0	1	1	85.5158	0.627682	0.62748	0.0379858	2	0.000126009	41	18.6568	2.38354e-05
2	1	0	1	1	85.7657	0.622683	0.62201	0.0376192	2	0.000135446	41	18.9067	2.33995e-05
2	1	0	1	1	86.0156	0.617686	0.617395	0.03714	2	0.000144777	41	19.1566	2.293e-05
2	1	0	1	1	86.2655	0.612688	0.611813	0.0367033	2	0.000153995	41	19.4065	2.24556e-05
2	1	0	1	1	86.5154	0.60769	0.607404	0.0362082	2	0.000163098	41	19.6564	2.1993e-05
2	1	0	1	1	86.7653	0.602693	0.602095	0.0357447	2	0.00017208	41	19.9063	2.15217e-05
2	1	0	1	1	87.0152	0.597695	0.597257	0.0351453	2	0.000180931	41	20.1562	2.09908e-05
2	1	0	1	1	87.265	0.592697	0.592538	0.0345217	2	0.000189634	41	20.406	2.04554e-05
2	1	0	1	1	87.5149	0.5877	0.587361	0.033919	2	0.000198186	41	20.6559	1.99227e-05
2	1	0	1	1	87.7648	0.582702	0.582272	0.0332019	2	0.000206563	41	20.9058	1.93325e-05
2	1	0	1	1	88.0147	0.577704	0.577245	0.0323778	2	0.000214744	41	21.1557	1.86899e-05
2	1	0	1	1	88.2646	0.572706	0.572286	0.0314005	2	0.000222704	41	21.4056	1.797e-05
2	1	0	1	1	88.5145	0.567709	0.567036	0.0303345	2	0.000230415	41	21.6555	1.72008e-05
2	1	0	1	1	88.7643	0.562711	0.562454	0.0291253	2	0.000237838	41	21.9053	1.63816e-05
2	1	0	1	1	89.0142	0.557713	0.557336	0.0276542	2	0.000244929	41	22.1552	1.54127e-05
2	1	0	1	1	89.2641	0.552716	0.551991	0.0260324	2	0.000251637	41	22.4051	1.43696e-05
2	1	0	1	1	89.514	0.547718	0.547673	0.0240621	2	0.000257899	41	22.655	1.31782e-05
2	1	0	1	1	89.7639	0.54272	0.542623	0.0218477	2	0.00026364	41	22.9049	1.18551e-05
2	1	0	1	1	90.0138	0.537723	0.53738	0.0192333	2	0.000268774	41	23.1548	1.03356e-05
2	1	0	1	1	90.2636	0.532726	0.532405	0.0162047	2	0.000273201	41	23.4046	8.62748e-06
2	1	0	1	1	90.5135	0.527727	0.527608	0.0126641	2	0.000276812	41	23.6545	6.68165e-06
2	1	0	1	1	90.7634	0.52273	0.522364	0.00859788	2	0.000279475	41	23.9044	4.49122e-06
2	1	0	1	1	91.0433	0.517132	0.517216	0.00355684	2	0.000281176	42	24.1843	1.83965e-06
2	0	0	1	1	91.2932	0.512135	0.511902	-0.00205704	2	0.000281344	42	0.075	-1.05301e-06
2	0	0	1	1	91.543	0.507139	0.507266	-0.00821199	2	0.000280061	42	0.3248	-4.16567e-06
2	0	0	1	1	91.8229	0.50154	0.50168	-0.0160334	2	0.000276702	41	0.6047	-8.04366e-06
2	0	0	1	1	92.0728	0.496542	0.496157	-0.023804	2	0.000271733	41	0.8546	-1.18105e-05
2	0	0	1	1	92.3227	0.491544	0.491411	-0.0321767	2	0.000264732	41	1.1045	-1.5812e-05
2	0	0	1	1	92.5726	0.486546	0.486164	-0.0413774	2	0.000255533	41	1.3544	-2.01162e-05
2	0	0	1	1	92.8225	0.481549	0.481403	-0.050974	2	0.000243983	41	1.6043	-2.4539e-05
2	0	0	1	1	93.0723	0.476551	0.476072	-0.0611458	2	0.000229971	41	1.8541	-2.91098e-05
2	0	0	1	1	93.3222	0.471553	0.470376	-0.0712437	2	0.000213429	41	2.104	-3.35113e-05
2	0	0	1	1	93.5721	0.466556	0.466106	-0.0814101	2	0.000194333	41	2.3539	-3.79457e-05
2	0	0	1	1	93.822	0.461558	0.461428	-0.0911916	2	0.000172748	41	2.6038	-4.20783e-05
2	0	0	1	1	94.0719	0.45656	0.45626	-0.100431	2	0.000148785	41	2.8537	-4.58226e-05
2	0	0	1	1	94.3218	0.451563	0.452052	-0.108691	2	0.000122649	41	3.1036	-4.91341e-05
2	0	0	1	1	94.6016	0.445965	0.44571	-0.115819	2	9.11602e-05	40	3.3834	-5.16216e-05
2	0	0	1	1	94.8515	0.440968	0.441019	-0.121692	2	6.13113e-05	40	3.6333	-5.36683e-05
2	0	0	1	1	95.1014	0.43597	0.436012	-0.126122	2	3.01937e-05	40	3.8832	-5.49905e-05
2	0	0	1	1	95.3513	0.430972	0.430804	-0.128951	2	-1.83519e-06	40	4.1331	-5.55525e-05
2	0	0	1	1	95.6012	0.425975	0.425753	-0.130715	2	-3.44585e-05	40	4.383	-5.56522e-05
2	0	0	1	1	95.851	0.420979	0.420851	-0.131072	2	-6.73332e-05	40	4.6328	-5.51617e-05
2	0	0	1	1	96.1009	0.415979	0.415414	-0.130306	2	-0.000100209	40	4.8827	-5.4131e-05
2	0	0	1	1	96.3508	0.410982	0.410588	-0.12883	2	-0.000132824	40	5.1326	-5.28959e-05
2	0	0	1	1	96.6007	0.405984	0.405573	-0.126546	2	-0.000164966	40	5.3825	-5.13237e-05
2	0	0	1	1	96.8506	0.400986	0.400815	-0.123985	2	-0.000196488	40	5.6324	-4.96949e-05
2	0	0	1	1	97.1005	0.395989	0.395554	-0.120595	2	-0.00022725	40	5.8823	-4.77018e-05
2	0	0	1	1	97.3504	0.390991	0.390614	-0.117144	2	-0.000257173	40	6.1322	-4.57581e-05
2	0	0	1	1	97.6002	0.385993	0.385481	-0.113375	2	-0.000286196	40	6.382	-4.37037e-05
2	0	0	1	1	97.8501	0.380996	0.380804	-0.109763	2	-0.000314313	40	6.6319	-4.17981e-05
2	0	0	1	1	98.1	0.375998	0.375754	-0.106225	2	-0.000341514	40	6.8818	-3.99143e-05
2	0	0	1	1	98.3499	0.371	0.370934	-0.102572	2	-0.000367809	40	7.1317	-3.80477e-05
2	0	0	1	1	98.5998	0.366002	0.365737	-0.0991464	2	-0.000393207	40	7.3816	-3.62616e-05
2	0	0	1	1	98.8497	0.361005	0.36089	-0.0957083	2	-0.000417747	40	7.6315	-3.45401e-05
2	0	0	1	1	99.0995	0.356007	0.355619	-0.0924833	2	-0.000441452	40	7.8813	-3.28888e-05
2	0	0	1	1	99.3494	0.351009	0.350927	-0.0894641	2	-0.000464381	40	8.1312	-3.13954e-05
2	0	0	1	1	99.5993	0.346012	0.345768	-0.0866121	2	-0.000486578	40	8.3811	-2.99477e-05
2	0	0	1	1	99.8492	0.341014	0.340829	-0.0837517	2	-0.000508075	40	8.631	-2.8545e-05
2	0	0	1	1	100.099	0.336016	0.33569	-0.081369	2	-0.000528912	40	8.8809	-2.73148e-05
2	0	0	1	1	100.349	0.331019	0.330832	-0.078922	2	-0.000549132	40	9.1308	-2.61099e-05
2	0	0	1	1	100.599	0.326022	0.325659	-0.0766507	2	-0.000568763	40	9.3806	-2.4962e-05
2	0	0	1	1	100.849	0.321023	0.320809	-0.0745812	2	-0.000587857	40	9.6305	-2.39263e-05
2	0	0	1	1	101.099	0.316026	0.315722	-0.0724012	2	-0.000606443	40	9.8804	-2.28587e-05
2	0	0	1	1	101.348	0.311028	0.31109	-0.070663	2	-0.000624545	40	10.1303	-2.19825e-05
2	0	0	1	1	101.598	0.30603	0.305639	-0.0687294	2	-0.000642202	40	10.3802	-2.10064e-05
2	0	0	1	1	101.848	0.301033	0.300868	-0.0673423	2	-0.000659435	40	10.6301	-2.02611e-05
2	0	0	1	1	102.098	0.296035	0.295712	-0.0656753	2	-0.000676269	40	10.88	-1.9421e-05
2	0	0	1	1	102.348	0.291037	0.290811	-0.0642953	2	-0.000692719	40	11.1298	-1.86978e-05
2	0	0	1	1	102.598	0.28604	0.286242	-0.0629922	2	-0.000708828	40	11.3797	-1.8031e-05
2	0	0	1	1	102.848	0.281042	0.280819	-0.061638	2	-0.000724598	40	11.6296	-1.73091e-05
2	0	0	1	1	103.098	0.276044	0.275839	-0.0605324	2	-0.000740062	40	11.8795	-1.66972e-05
2	0	0	1	1	103.348	0.271047	0.270817	-0.059208	2	-0.00075523	40	12.1294	-1.60345e-05
2	0	0	1	1	103.597	0.266049	0.265861	-0.05797	2	-0.000770117	40	12.3793	-1.5412e-05
2	0	0	1	1	103.847	0.261051	0.260997	-0.057184	2	-0.000784732	40	12.6291	-1.49248e-05
2	0	0	1	1	104.097	0.256053	0.255542	-0.056016	2	-0.000799101	40	12.879	-1.43144e-05
2	0	0	1	1	104.347	0.251056	0.250862	-0.0551159	2	-0.000813229	40	13.1289	-1.38265e-05
2	0	0	1	1	104.597	0.246058	0.245595	-0.0540485	2	-0.000827133	40	13.3788	-1.3274e-05
2	0	0	1	1	104.847	0.24106	0.24084	-0.0534603	2	-0.000840823	40	13.6287	-1.28754e-05
2	0	0	1	1	105.097	0.236063	0.23609	-0.0526633	2	-0.000854307	40	13.8786	-1.24333e-05
2	0	0	1	1	105.347	0.231066	0.230727	-0.0517489	2	-0.000867584	40	14.1284	-1.19399e-05
2	0	0	1	1	105.596	0.226067	0.22563	-0.0511017	2	-0.00088068	40	14.3783	-1.15301e-05
2	0	0	1	1	105.846	0.22107	0.220665	-0.0500729	2	-0.000893592	40	14.6282	-1.10493e-05
2	0	0	1	1	106.096	0.216072	0.215678	-0.0494556	2	-0.000906325	40	14.8781	-1.06665e-05
2	0	0	1	1	106.346	0.211074	0.210885	-0.0488702	2	-0.000918897	40	15.128	-1.0306e-05
2	0	0	1	1	106.596	0.206077	0.205881	-0.0481821	2	-0.000931317	40	15.3779	-9.91979e-06
2	0	0	1	1	106.846	0.201078	0.200771	-0.0475357	2	-0.000943582	40	15.6278	-9.54378e-06
2	0	0	1	1	107.096	0.196081	0.195848	-0.0468367	2	-0.000955692	40	15.8776	-9.17289e-06
2	0	0	1	1	107.346	0.191084	0.190865	-0.04633	2	-0.000967676	40	16.1275	-8.84277e-06
2	0	0	1	1	107.596	0.186086	0.185692	-0.0457478	2	-0.000979521	40	16.3774	-8.49501e-06
2	0	0	1	1	107.845	0.181088	0.181023	-0.0450613	2	-0.000991239	40	16.6273	-8.15711e-06
2	0	0	1	1	108.095	0.176091	0.175825	-0.0446752	2	-0.00100283	40	16.8772	-7.855e-06
2	0	0	1	1	108.345	0.171095	0.170796	-0.0442423	2	-0.00101431	40	17.127	-7.5564e-06
2	0	0	1	1	108.595	0.166095	0.166126	-0.043683	2	-0.00102567	40	17.3769	-7.25687e-06
2	0	0	1	1	108.875	0.160498	0.160366	-0.0447481	2	-0.00103826	41	17.6568	-7.17607e-06
2	0	0	1	1	109.125	0.1555	0.154778	-0.0443112	2	-0.0010494	41	17.9067	-6.85838e-06
2	0	0	1	1	109.375	0.150503	0.150474	-0.0439431	2	-0.00106043	41	18.1566	-6.6123e-06
2	0	0	1	1	109.625	0.145505	0.14532	-0.0435336	2	-0.00107137	41	18.4065	-6.32631e-06
2	0	0	1	1	109.875	0.140505	0.140221	-0.0431874	2	-0.00108221	41	18.6564	-6.05579e-06
2	0	0	1	1	110.124	0.135509	0.134938	-0.0428003	2	-0.00109296	41	18.9062	-5.7754e-06
2	0	0	1	1	110.374	0.130512	0.129959	-0.042422	2	-0.00110362	41	19.1561	-5.51311e-06
2	0	0	1	1	110.624	0.125514	0.125496	-0.0421297	2	-0.0011142	41	19.406	-5.2871e-06
2	0	0	1	1	110.874	0.120516	0.120461	-0.0418109	2	-0.0011247	41	19.6559	-5.03658e-06
2	0	0	1	1	111.124	0.115519	0.115747	-0.0415309	2	-0.00113512	41	19.9058	-4.80707e-06
2	0	0	1	1	111.374	0.110522	0.110227	-0.0412123	2	-0.00114546	41	20.1556	-4.54271e-06
2	0	0	1	1	111.624	0.105523	0.104435	-0.0408988	2	-0.00115574	41	20.4055	-4.27126e-06
2	0	0	1	1	111.874	0.100526	0.10048	-0.0406723	2	-0.00116594	41	20.6554	-4.08676e-06
2	0	0	1	1	112.123	0.095528	0.0951053	-0.040405	2	-0.00117607	41	20.9053	-3.84273e-06
2	0	0	1	1	112.373	0.0905304	0.0906439	-0.0401554	2	-0.00118614	41	21.1552	-3.63984e-06
2	0	0	1	1	112.623	0.0855327	0.0852961	-0.0398614	2	-0.00119615	41	21.4051	-3.40002e-06
2	0	0	1	1	112.873	0.0805346	0.080148	-0.0396474	2	-0.00120609	41	21.655	-3.17766e-06
2	0	0	1	1	113.123	0.0755373	0.0751607	-0.0393973	2	-0.00121597	41	21.9048	-2.96113e-06
2	0	0	1	1	113.373	0.0705396	0.0701438	-0.0391641	2	-0.00122579	41	22.1547	-2.74712e-06
2	0	0	1	1	113.623	0.065542	0.065303	-0.0389391	2	-0.00123556	41	22.4046	-2.54284e-06
2	0	0	1	1	113.873	0.0605443	0.0599681	-0.0387021	2	-0.00124527	41	22.6545	-2.32089e-06
2	0	0	1	1	114.123	0.0555466	0.0549761	-0.0384993	2	-0.00125493	41	22.9044	-2.11654e-06
2	0	0	1	1	114.372	0.0505489	0.0502616	-0.0383184	2	-0.00126454	41	23.1543	-1.92594e-06
2	0	0	1	1	114.622	0.0455512	0.0452481	-0.0381044	2	-0.00127409	41	23.4041	-1.72415e-06
2	0	0	1	1	114.872	0.0405536	0.0402598	-0.0379251	2	-0.00128359	41	23.654	-1.52686e-06
2	0	0	1	1	115.122	0.0355559	0.0353265	-0.037736	2	-0.00129305	41	23.9039	-1.33308e-06
2	0	0	1	1	115.372	0.0305582	0.0299622	-0.0375296	2	-0.00130246	41	24.1538	-1.12447e-06
2	0	0	1	1	115.622	0.0255605	0.0258483	-0.0373721	2	-0.00131183	41	24.4037	-9.66007e-07
2	0	0	1	1	115.872	0.0205628	0.020681	-0.0372173	2	-0.00132115	41	24.6536	-7.69691e-07
2	0	0	1	1	116.122	0.0155656	0.0150533	-0.0370055	2	-0.00133042	41	24.9034	-5.57056e-07
2	0	0	1	1	116.371	0.0105675	0.0100545	-0.0368784	2	-0.00133966	41	25.1533	-3.70796e-07
2	0	0	1	1	116.621	0.0055698	0.0053823	-0.0367089	2	-0.00134886	41	25.4032	-1.97578e-07
2	0	0	1	1	116.871	0.000572125	0.000563961	-0.036598	2	-0.00135802	41	25.6531	-2.06398e-08
2	0	0	1	0	117.089	0.00377064	0.00355885	-0.0355299	2	-0.00136581	41	25.8711	-1.26446e-07
2	0	0	1	0	117.339	0.00876832	0.00821228	-0.0353259	2	-0.00137466	41	26.121	-2.90106e-07
2	0	0	1	0	117.589	0.013766	0.0138316	-0.035168	2	-0.00138346	41	26.3709	-4.8643e-07
2	0	0	1	0	117.839	0.0187637	0.0183427	-0.0349663	2	-0.00139222	41	26.6208	-6.41376e-07
2	0	0	1	0	118.089	0.0237614	0.0235546	-0.0348534	2	-0.00140094	41	26.8707	-8.20957e-07
2	0	0	1	0	118.339	0.0287608	0.0285019	-0.0346992	2	-0.00140962	41	27.1206	-9.88993e-07
2	0	0	1	0	118.589	0.0337567	0.0334939	-0.0345983	2	-0.00141827	41	27.3704	-1.15883e-06
2	0	0	1	0	118.838	0.0387544	0.0382535	-0.0343991	2	-0.00142688	41	27.6203	-1.31589e-06
2	0	0	1	0	119.088	0.0437521	0.0433694	-0.0342824	2	-0.00143546	41	27.8702	-1.48681e-06
2	0	0	1	0	119.338	0.0487498	0.048591	-0.0341704	2	-0.001444	41	28.1201	-1.66037e-06
2	0	0	1	0	119.588	0.0537474	0.0531151	-0.0340476	2	-0.00145252	41	28.37	-1.80844e-06
2	0	0	1	0	119.838	0.0587438	0.0584134	-0.0339189	2	-0.001461	41	28.6198	-1.98132e-06
2	0	0	1	0	120.088	0.0637428	0.0635363	-0.0337936	2	-0.00146946	41	28.8697	-2.14712e-06
2	0	0	1	0	120.338	0.0687405	0.0687302	-0.0337123	2	-0.00147789	41	29.1196	-2.31705e-06
2	0	0	1	0	120.588	0.0737382	0.0737886	-0.0335944	2	-0.00148629	41	29.3695	-2.47889e-06
2	0	0	1	0	120.838	0.0787358	0.0784259	-0.0334946	2	-0.00149466	41	29.6194	-2.62684e-06
2	0	0	1	0	121.087	0.0837335	0.0835227	-0.0334016	2	-0.00150301	41	29.8693	-2.78979e-06
2	0	0	1	0	121.337	0.0887312	0.0884695	-0.0332629	2	-0.00151134	41	30.1192	-2.94275e-06
2	0	0	1	0	121.587	0.0937289	0.0934243	-0.0332142	2	-0.00151963	41	30.369	-3.10301e-06
2	0	0	1	0	121.837	0.0987265	0.098316	-0.0331067	2	-0.00152791	41	30.6189	-3.25492e-06
2	0	0	1	0	122.087	0.103724	0.103374	-0.0329941	2	-0.00153617	41	30.8688	-3.41074e-06
2	0	0	1	0	122.337	0.108722	0.108031	-0.0329089	2	-0.0015444	41	31.1187	-3.55518e-06
2	0	0	1	0	122.587	0.11372	0.113686	-0.0328129	2	-0.00155261	41	31.3686	-3.73036e-06
2	0	0	1	0	122.837	0.118717	0.118667	-0.0327633	2	-0.0015608	41	31.6185	-3.88791e-06
2	0	0	1	0	123.086	0.123715	0.123728	-0.0326848	2	-0.00156896	41	31.8683	-4.04404e-06
2	0	0	1	0	123.336	0.128713	0.128725	-0.0326133	2	-0.00157711	41	32.1182	-4.19816e-06
2	0	0	1	0	123.586	0.13371	0.133281	-0.0324904	2	-0.00158525	41	32.3681	-4.33035e-06
2	0	0	1	0	123.836	0.138708	0.138746	-0.0324599	2	-0.00159336	41	32.618	-4.50369e-06
2	0	0	1	0	124.086	0.143706	0.143628	-0.0324112	2	-0.00160145	41	32.8679	-4.65516e-06
2	0	0	1	0	124.336	0.148703	0.148844	-0.0323063	2	-0.00160953	41	33.1178	-4.80861e-06
2	0	0	1	0	124.586	0.153701	0.153089	-0.0322345	2	-0.00161758	41	33.3676	-4.93476e-06
2	0	0	1	0	124.836	0.158699	0.158612	-0.0321844	2	-0.00162562	41	33.6175	-5.10484e-06
2	0	0	1	0	125.086	0.163696	0.163353	-0.0320761	2	-0.00163364	41	33.8674	-5.23972e-06
2	0	0	1	0	125.335	0.168694	0.168777	-0.0320243	2	-0.00164165	41	34.1173	-5.40495e-06
2	0	0	1	0	125.585	0.173692	0.173972	-0.0319892	2	-0.00164963	41	34.3672	-5.56521e-06
2	0	0	1	0	125.835	0.178689	0.17866	-0.031868	2	-0.00165761	41	34.6171	-5.69352e-06
2	0	0	1	0	126.085	0.183688	0.182787	-0.0317832	2	-0.00166556	41	34.867	-5.80955e-06
2	0	0	1	0	126.335	0.188685	0.18855	-0.0317655	2	-0.0016735	41	35.1168	-5.98939e-06
2	0	0	1	0	126.585	0.193682	0.193497	-0.0316488	2	-0.00168143	41	35.3667	-6.12393e-06
2	0	0	1	0	126.835	0.19868	0.198363	-0.0316105	2	-0.00168933	41	35.6166	-6.27035e-06
2	0	0	1	0	127.085	0.203678	0.203503	-0.0315611	2	-0.00169723	41	35.8665	-6.42277e-06
2	0	0	1	0	127.335	0.208676	0.208382	-0.0315219	2	-0.0017051	41	36.1164	-6.56861e-06
2	0	0	1	0	127.584	0.213673	0.213442	-0.0314305	2	-0.00171297	41	36.3663	-6.70858e-06
2	0	0	1	0	127.834	0.218671	0.218613	-0.0313478	2	-0.00172081	41	36.6161	-6.85302e-06
2	0	0	1	0	128.084	0.223669	0.223378	-0.0313188	2	-0.00172864	41	36.866	-6.99595e-06
2	0	0	1	0	128.334	0.228666	0.228222	-0.0312129	2	-0.00173645	41	37.1159	-7.12347e-06
2	0	0	1	0	128.584	0.233664	0.233523	-0.0311242	2	-0.00174425	41	37.3658	-7.26823e-06
2	0	0	1	0	128.834	0.238662	0.238355	-0.0311008	2	-0.00175203	41	37.6157	-7.41302e-06
2	0	0	1	0	129.084	0.243659	0.243701	-0.0310522	2	-0.00175979	41	37.8656	-7.56746e-06
2	0	0	1	0	129.334	0.248657	0.24824	-0.0309205	2	-0.00176753	41	38.1154	-7.67572e-06
2	0	0	1	0	129.583	0.253655	0.253315	-0.0308438	2	-0.00177525	41	38.3653	-7.81321e-06
2	0	0	1	0	129.833	0.258652	0.258828	-0.0307872	2	-0.00178295	41	38.6152	-7.9686e-06
2	0	0	1	0	130.083	0.26365	0.263774	-0.0306732	2	-0.00179063	41	38.8651	-8.09081e-06
2	0	0	1	0	130.333	0.268648	0.268401	-0.0306279	2	-0.00179829	41	39.115	-8.22056e-06
2	0	0	1	0	130.583	0.273645	0.273325	-0.0305279	2	-0.00180592	41	39.3649	-8.34404e-06
2	0	0	1	0	130.833	0.278644	0.278134	-0.0303639	2	-0.00181353	41	39.6148	-8.44523e-06
2	0	0	1	0	131.083	0.283641	0.283424	-0.0302415	2	-0.0018211	41	39.8646	-8.57115e-06
2	0	0	1	0	131.333	0.288638	0.2879	-0.0300672	2	-0.00182864	41	40.1145	-8.65637e-06
2	0	0	1	0	131.583	0.293636	0.293124	-0.0299311	2	-0.00183614	41	40.3644	-8.77354e-06
2	0	0	1	0	131.832	0.298634	0.298366	-0.0297424	2	-0.0018436	41	40.6143	-8.87413e-06
2	0	0	1	0	132.082	0.303631	0.302896	-0.0295292	2	-0.001851	41	40.8642	-8.94427e-06
2	0	0	1	0	132.332	0.308628	0.308321	-0.0292457	2	-0.00185835	41	41.114	-9.01707e-06
2	0	0	1	0	132.582	0.313627	0.313434	-0.0290083	2	-0.00186563	41	41.3639	-9.09219e-06
2	0	0	1	0	132.832	0.318624	0.318135	-0.0286951	2	-0.00187283	41	41.6138	-9.12892e-06
2	0	0	1	0	133.082	0.323622	0.322807	-0.0282673	2	-0.00187994	41	41.8637	-9.1249e-06
2	0	0	1	0	133.332	0.32862	0.328486	-0.0278426	2	-0.00188694	41	42.1136	-9.14591e-06
2	0	0	1	0	133.582	0.333618	0.333588	-0.0272607	2	-0.00189382	41	42.3635	-9.09384e-06
2	0	0	1	0	133.832	0.338615	0.338192	-0.0265889	2	-0.00190055	41	42.6134	-8.99216e-06
2	0	0	1	0	134.081	0.343613	0.343269	-0.0258528	2	-0.00190709	41	42.8632	-8.87448e-06
2	0	0	1	0	134.331	0.348611	0.348254	-0.0249492	2	-0.00191344	41	43.1131	-8.68866e-06
2	0	0	1	0	134.581	0.353608	0.35275	-0.0239006	2	-0.00191954	41	43.363	-8.43093e-06
2	0	0	1	0	134.831	0.358606	0.358418	-0.0226319	2	-0.00192535	41	43.6129	-8.11169e-06
2	0	0	1	0	135.081	0.363604	0.363522	-0.0211747	2	-0.00193082	41	43.8628	-7.69747e-06
2	0	0	1	0	135.331	0.368601	0.368216	-0.0194657	2	-0.0019359	41	44.1127	-7.16759e-06
2	0	0	1	0	135.581	0.373601	0.374072	-0.017472	2	-0.00194051	41	44.3626	-6.53577e-06
2	0	0	1	0	135.831	0.378597	0.378465	-0.0150748	2	-0.00194457	41	44.6124	-5.70529e-06
2	0	0	1	0	136.08	0.383594	0.383062	-0.012225	2	-0.00194798	41	44.8623	-4.68295e-06
2	0	0	1	0	136.33	0.388592	0.388278	-0.00896903	2	-0.00195064	41	45.1122	-3.48248e-06
2	0	0	1	0	136.58	0.39359	0.39286	-0.00510047	2	-0.00195241	41	45.3621	-2.00377e-06
2	0	0	1	0	136.86	0.399187	0.39882	-0.000191749	2	-0.00195319	42	45.642	-7.64733e-08
2	1	0	1	0	137.11	0.404185	0.404154	0.0049628	2	-0.00195261	42	0.2249	2.00574e-06
2	1	0	1	0	137.375	0.409482	0.409427	0.0110703	2	-0.00195048	42	0.4898	4.53248e-06
2	1	0	1	0	137.64	0.41478	0.414486	0.0182634	2	-0.00194661	41	0.7547	7.56994e-06
2	1	0	1	0	137.89	0.419777	0.419567	0.0256956	2	-0.00194112	41	1.0046	1.0781e-05
2	1	0	1	0	138.14	0.424775	0.424371	0.0338362	2	-0.00193369	41	1.2545	1.43591e-05
2	1	0	1	0	138.389	0.429773	0.428967	0.0425825	2	-0.00192415	41	1.5043	1.82665e-05
2	1	0	1	0	138.639	0.434771	0.434686	0.0518137	2	-0.00191235	41	1.7542	2.25227e-05
2	1	0	1	0	138.889	0.439768	0.439303	0.0615558	2	-0.00189817	41	2.0041	2.70416e-05
2	1	0	1	0	139.139	0.444766	0.444612	0.0713031	2	-0.00188156	41	2.254	3.17022e-05
2	1	0	1	0	139.389	0.449764	0.449413	0.0811982	2	-0.00186247	41	2.5039	3.64915e-05
2	1	0	1	0	139.639	0.454761	0.454489	0.0905504	2	-0.00184099	41	2.7538	4.11542e-05
2	1	0	0	0	139.88	0.459584	0.459292	0.0991738	2	-0.00181809	41	2.9949	4.55497e-05
2	1	0	1	0	139.883	0.459684	0.459797	0.0994306	2	-0.00181779	41	2.9979	4.57179e-05