File: Python/Data/GoldElectrode/240319/Gold/240319-CVEIS_Activation-0p5H2SO4-Ag_AgCl_BLF8-Au_RDE-80cycles_02_PEIS_C15.mpt
EC-Lab ASCII FILE
Nb header lines : 66

Potentio Electrochemical Impedance Spectroscopy

Run on channel : 15 (SN 19485)
User :
Electrode connection : standard
Potential control : Ewe
Ewe ctrl range : min = -2.50 V, max = 2.50 V
Ewe,I filtering : 50 kHz
Safety Limits :
	Do not start on E overload
Channel : Floating
Acquisition started on : 03/19/2024 13:27:19.036
Loaded Setting File :  C:\Data\mathias\GoldElectrode\240313-CVEIS_Activation-0p5H2SO4-Ag_AgCl_BLF8-Au_RDE-80cycles.mps
Saved on :
	File : 240319-CVEIS_Activation-0p5H2SO4-Ag_AgCl_BLF8-Au_RDE-80cycles_02_PEIS_C15.mpr
	Directory : C:\Data\mathias\GoldElectrode\
	Host : 192.168.0.1
Device : VMP-300 (SN 0826)
Address : USB
EC-Lab for windows v11.52 (software)
Internet server v11.52 (firmware)
Command interpretor v11.52 (firmware)
Electrode material :
Initial state :
Electrolyte :
Comments :
Cable : special
Electrode surface area : 0.001 cm²
Characteristic mass : 0.001 g
Equivalent Weight : 0.000 g/eq.
Density : 0.000 g/cm3
Volume (V) : 0.001 cm³
Record EIS quality indicators
Cycle Definition : Charge/Discharge alternance
Mode                Single sine
E (V)               0.0000
vs.                 Eoc
tE (h:m:s)          0:00:0.0000
record              0
dI                  0.000
unit dI             mA
dt (s)              0.000
fi                  100.000
unit fi             kHz
ff                  100.000
unit ff             Hz
Nd                  10
Points              per decade
spacing             Logarithmic
Va (mV)             5.0
pw                  0.10
Na                  2
corr                0
E range min (V)     -2.500
E range max (V)     2.500
I Range             Auto
Bandwidth           8
nc cycles           0
goto Ns'            0
nr cycles           0
inc. cycle          0

freq/Hz	Re(Z)/Ohm	-Im(Z)/Ohm	|Z|/Ohm	Phase(Z)/deg	time/s	<Ewe>/V	<I>/mA	Cs/µF	Cp/µF	cycle number	I Range	|Ewe|/V	|I|/A	Ns	(Q-Qo)/mA.h	THD Ewe/%	NSD Ewe/%	NSR Ewe/%	|Ewe h2|/V	|Ewe h3|/V	|Ewe h4|/V	|Ewe h5|/V	|Ewe h6|/V	|Ewe h7|/V	THD I/%	NSD I/%	NSR I/%	|I h2|/A	|I h3|/A	|I h4|/A	|I h5|/A	|I h6|/A	|I h7|/A	Re(Y)/Ohm-1	Im(Y)/Ohm-1	|Y|/Ohm-1	Phase(Y)/deg	Re(C)/nF	Im(C)/nF	|C|/nF	Phase(C)/deg	Re(M)	Im(M)	|M|	Phase(M)/deg	Re(Permittivity)	Im(Permittivity)	|Permittivity|	Phase(Permittivity)/deg	Re(Resistivity)/Ohm.cm	Im(Resistivity)/Ohm.cm	|Resistivity|/Ohm.cm	Phase(Resistivity)/deg	Re(Conductivity)/mS/cm	Im(Conductivity)/mS/cm	|Conductivity|/mS/cm	Phase(Conductivity)/deg	Tan(Delta)	Loss Angle(Delta)/deg	dq/mA.h
100004	7.68571	0.835902	7.73103	-6.20712	20.7501	0.631043	-0.0186178	1.90392	0.0222579	1	38	0.00491812	0.000636153	0	-3.20148e-06	4.58159	1.31653	76.8851	0.000122232	0.000118297	7.50465e-05	8.27576e-05	2.9093e-05	7.60338e-05	0.348163	0.178652	5.91705	7.76052e-07	1.0041e-06	9.20237e-07	5.96667e-07	9.4624e-07	7.05215e-07	0.128591	0.0139856	0.129349	6.20712	22.2579	204.651	205.857	-83.7929	0.0000000E+000	0.0000000E+000	0.0000000E+000	83.7929	0.0000000E+000	0.0000000E+000	0.0000000E+000	-83.7929	0.0000000E+000	0.0000000E+000	0.0000000E+000	-6.20712	0.0000000E+000	0.0000000E+000	0.0000000E+000	6.20712	9.19451	83.7929	-3.20148e-06
79433.3	7.56939	0.837767	7.61561	-6.31569	21.5641	0.631017	-0.00914984	2.39163	0.0289422	1	38	0.00514512	0.000675601	0	-5.27667e-06	4.2662	1.79644	74.1746	6.79307e-05	5.06582e-05	0.000106169	6.93872e-05	0.000118996	7.18279e-05	0.360595	0.242693	5.35068	8.49573e-07	7.99995e-07	8.22843e-07	1.20129e-06	1.06906e-06	9.38188e-07	0.130512	0.0144449	0.131309	6.31569	28.9422	261.498	263.095	-83.6843	0.0000000E+000	0.0000000E+000	0.0000000E+000	83.6843	0.0000000E+000	0.0000000E+000	0.0000000E+000	-83.6843	0.0000000E+000	0.0000000E+000	0.0000000E+000	-6.31569	0.0000000E+000	0.0000000E+000	0.0000000E+000	6.31569	9.0352	83.6843	-2.07519e-06
63093.8	7.6574	0.915322	7.71192	-6.81647	22.3781	0.631027	-0.00833059	2.75587	0.0388224	1	38	0.00515263	0.000668138	0	-6.92593e-06	4.30668	1.4719	73.3595	0.000163562	0.000106883	4.45336e-05	2.20801e-05	5.11437e-05	4.80978e-05	0.410169	0.141549	5.54698	2.06141e-06	6.73859e-07	7.465e-07	8.76217e-07	8.46664e-07	4.82588e-07	0.128753	0.0153904	0.129669	6.81647	38.8224	324.781	327.093	-83.1835	0.0000000E+000	0.0000000E+000	0.0000000E+000	83.1835	0.0000000E+000	0.0000000E+000	0.0000000E+000	-83.1835	0.0000000E+000	0.0000000E+000	0.0000000E+000	-6.81647	0.0000000E+000	0.0000000E+000	0.0000000E+000	6.81647	8.3658	83.1835	-1.64926e-06
50122.5	7.66262	0.982674	7.72537	-7.30787	23.1931	0.631141	-0.00838831	3.23131	0.0522828	1	38	0.00514861	0.000666455	0	-8.67777e-06	4.07944	3.65612	73.2844	7.6152e-05	7.51309e-05	5.78253e-05	4.13548e-05	0.000127749	8.70477e-05	0.197589	0.152047	5.56798	3.76397e-07	4.84278e-07	2.9788e-07	7.56385e-07	5.01034e-07	2.95795e-07	0.128392	0.0164653	0.129444	7.30787	52.2828	407.686	411.025	-82.6921	0.0000000E+000	0.0000000E+000	0.0000000E+000	82.6921	0.0000000E+000	0.0000000E+000	0.0000000E+000	-82.6921	0.0000000E+000	0.0000000E+000	0.0000000E+000	-7.30787	0.0000000E+000	0.0000000E+000	0.0000000E+000	7.30787	7.79772	82.6921	-1.75184e-06
39814.1	7.70116	1.05217	7.77271	-7.77985	24.0071	0.630978	-0.00782787	3.79925	0.0696185	1	38	0.00515394	0.000663082	0	-1.01368e-05	4.06708	2.9232	73.7907	9.34947e-05	5.59523e-05	7.38685e-05	9.80424e-05	7.09626e-05	7.20644e-05	0.34726	0.184799	5.59315	7.114e-07	6.51564e-07	4.79356e-07	1.27246e-06	5.96986e-07	1.02658e-06	0.127471	0.0174157	0.128655	7.77985	69.6185	509.56	514.294	-82.2202	0.0000000E+000	0.0000000E+000	0.0000000E+000	82.2202	0.0000000E+000	0.0000000E+000	0.0000000E+000	-82.2202	0.0000000E+000	0.0000000E+000	0.0000000E+000	-7.77985	0.0000000E+000	0.0000000E+000	0.0000000E+000	7.77985	7.31932	82.2202	-1.459e-06
31621.1	7.8126	1.21927	7.90717	-8.87031	24.8211	0.63104	-0.0082617	4.12802	0.0981525	1	38	0.00526678	0.000666076	0	-1.23765e-05	4.13174	1.4708	73.2516	0.000161758	8.98547e-05	5.64983e-05	2.00828e-05	7.32394e-05	5.63025e-05	0.362832	0.212783	5.60639	7.88971e-07	1.14371e-06	8.86251e-07	1.33793e-06	7.2615e-07	7.47484e-07	0.124955	0.0195011	0.126468	8.87031	98.1525	628.921	636.534	-81.1297	0.0000000E+000	0.0000000E+000	0.0000000E+000	81.1297	0.0000000E+000	0.0000000E+000	0.0000000E+000	-81.1297	0.0000000E+000	0.0000000E+000	0.0000000E+000	-8.87031	0.0000000E+000	0.0000000E+000	0.0000000E+000	8.87031	6.40759	81.1297	-2.23977e-06
25116.9	8.0738	1.35473	8.18667	-9.52514	25.6351	0.630937	-0.00776456	4.67736	0.128084	1	38	0.00526786	0.000643469	0	-1.556e-05	2.84049	2.23849	72.8109	1.72482e-05	4.86355e-05	5.93315e-05	0.000103697	3.63351e-05	4.47321e-05	0.361625	0.190607	5.76569	8.74344e-07	2.95272e-07	1.15635e-06	1.50825e-06	5.80648e-07	5.1289e-07	0.120466	0.0202134	0.12215	9.52514	128.083	763.339	774.01	-80.4749	0.0000000E+000	0.0000000E+000	0.0000000E+000	80.4749	0.0000000E+000	0.0000000E+000	0.0000000E+000	-80.4749	0.0000000E+000	0.0000000E+000	0.0000000E+000	-9.52514	0.0000000E+000	0.0000000E+000	0.0000000E+000	9.52514	5.9597	80.4749	-3.18342e-06
19948.8	8.00793	1.66541	8.17928	-11.7483	26.4491	0.631089	-0.0081537	4.79052	0.198607	1	38	0.00522343	0.000638617	0	-1.77387e-05	4.30958	1.84177	74.7719	7.02854e-05	3.78446e-05	7.31497e-05	5.52553e-05	0.000127913	0.000125594	0.338153	0.185557	6.04656	4.35449e-07	1.14961e-06	8.84045e-07	7.91728e-07	7.21656e-07	9.30438e-07	0.119699	0.0248938	0.12226	11.7483	198.607	954.98	975.414	-78.2517	0.0000000E+000	0.0000000E+000	0.0000000E+000	78.2517	0.0000000E+000	0.0000000E+000	0.0000000E+000	-78.2517	0.0000000E+000	0.0000000E+000	0.0000000E+000	-11.7483	0.0000000E+000	0.0000000E+000	0.0000000E+000	11.7483	4.80838	78.2517	-2.17873e-06
15847.7	8.10358	1.99115	8.34462	-13.8048	27.2631	0.630987	-0.00819653	5.04372	0.287173	1	38	0.00515966	0.000618321	0	-2.03945e-05	5.84136	2.34133	73.4206	0.000100053	9.31578e-05	9.34407e-05	5.70078e-05	6.32145e-05	0.000220126	0.364862	0.199324	6.10388	1.08963e-06	1.03427e-06	8.07819e-07	9.1013e-07	5.39417e-07	1.00547e-06	0.116376	0.028595	0.119838	13.8048	287.173	1168.74	1203.5	-76.1952	0.0000000E+000	0.0000000E+000	0.0000000E+000	76.1952	0.0000000E+000	0.0000000E+000	0.0000000E+000	-76.1952	0.0000000E+000	0.0000000E+000	0.0000000E+000	-13.8048	0.0000000E+000	0.0000000E+000	0.0000000E+000	13.8048	4.06981	76.1952	-2.65579e-06
12590.9	8.09904	2.42271	8.45364	-16.6538	28.0771	0.631049	-0.00887055	5.21749	0.428525	1	38	0.00511504	0.00060507	0	-2.22746e-05	3.46549	3.22172	73.2779	6.36077e-05	7.84344e-05	6.45474e-05	8.02852e-05	4.7351e-05	6.69345e-05	0.353979	0.195375	6.30877	6.1391e-07	3.58735e-07	1.00256e-06	1.02549e-06	8.11122e-07	8.5436e-07	0.11333	0.0339011	0.118292	16.6538	428.525	1432.55	1495.27	-73.3462	0.0000000E+000	0.0000000E+000	0.0000000E+000	73.3462	0.0000000E+000	0.0000000E+000	0.0000000E+000	-73.3462	0.0000000E+000	0.0000000E+000	0.0000000E+000	-16.6538	0.0000000E+000	0.0000000E+000	0.0000000E+000	16.6538	3.34297	73.3462	-1.8801e-06
10002.2	8.35127	2.90655	8.84261	-19.1898	28.8921	0.631078	-0.0085112	5.47452	0.59148	1	38	0.00524754	0.000593437	0	-2.45236e-05	3.16691	1.65871	70.9631	7.13781e-05	7.58086e-05	7.41943e-05	6.73223e-05	5.21988e-05	5.40984e-05	0.310957	0.176993	6.2027	8.78883e-07	6.24705e-07	9.57471e-07	6.26115e-07	5.46447e-07	6.52992e-07	0.106805	0.0371721	0.113089	19.1898	591.48	1699.48	1799.46	-70.8102	0.0000000E+000	0.0000000E+000	0.0000000E+000	70.8102	0.0000000E+000	0.0000000E+000	0.0000000E+000	-70.8102	0.0000000E+000	0.0000000E+000	0.0000000E+000	-19.1898	0.0000000E+000	0.0000000E+000	0.0000000E+000	19.1898	2.87326	70.8102	-2.249e-06
7944	8.4816	3.45682	9.15899	-22.1742	29.7416	0.630894	-0.00909212	5.79569	0.825585	1	38	0.00526439	0.000574778	0	-2.60258e-05	3.13339	2.05611	71.3445	6.95428e-05	5.61525e-05	6.80752e-05	8.11245e-05	5.17132e-05	4.60791e-05	0.37769	0.171114	6.48505	8.85107e-07	1.10779e-06	8.3444e-07	8.13327e-07	6.82427e-07	5.78931e-07	0.101107	0.0412079	0.109182	22.1742	825.585	2025.65	2187.43	-67.8258	0.0000000E+000	0.0000000E+000	0.0000000E+000	67.8258	0.0000000E+000	0.0000000E+000	0.0000000E+000	-67.8258	0.0000000E+000	0.0000000E+000	0.0000000E+000	-22.1742	0.0000000E+000	0.0000000E+000	0.0000000E+000	22.1742	2.45359	67.8258	-1.50221e-06
6307.74	8.47755	4.17265	9.4488	-26.2064	30.6401	0.630891	-0.00869739	6.04692	1.17925	1	38	0.0049506	0.000523939	0	-2.84622e-05	3.47957	1.96069	74.4347	5.23061e-05	5.62185e-05	8.58374e-05	0.00011031	3.98672e-05	3.73212e-05	0.337034	0.244348	7.13344	8.64794e-07	4.12125e-07	3.61929e-07	6.04901e-07	1.0809e-06	3.76843e-07	0.0949548	0.0467368	0.105834	26.2064	1179.25	2395.87	2670.36	-63.7936	0.0000000E+000	0.0000000E+000	0.0000000E+000	63.7936	0.0000000E+000	0.0000000E+000	0.0000000E+000	-63.7936	0.0000000E+000	0.0000000E+000	0.0000000E+000	-26.2064	0.0000000E+000	0.0000000E+000	0.0000000E+000	26.2064	2.03169	63.7936	-2.43642e-06
5011.6	8.6613	5.08461	10.0435	-30.415	31.3963	0.630905	-0.00880352	6.24577	1.60078	1	38	0.00523974	0.000521706	0	-3.00245e-05	4.19708	2.22406	70.9738	9.97927e-05	4.77856e-05	0.000157894	4.35573e-05	6.66582e-05	6.15857e-05	0.37462	0.149412	6.94839	1.07074e-06	2.33173e-07	1.09555e-06	5.1376e-07	8.25874e-07	3.51184e-07	0.0858648	0.0504068	0.0995671	30.415	1600.78	2726.83	3161.98	-59.585	0.0000000E+000	0.0000000E+000	0.0000000E+000	59.585	0.0000000E+000	0.0000000E+000	0.0000000E+000	-59.585	0.0000000E+000	0.0000000E+000	0.0000000E+000	-30.415	0.0000000E+000	0.0000000E+000	0.0000000E+000	30.415	1.70344	59.585	-1.56229e-06
3981.28	8.77155	6.0926	10.6799	-34.7833	32.1393	0.630894	-0.00802151	6.56138	2.13534	1	38	0.00530062	0.000496318	0	-3.1764e-05	4.25365	1.43663	71.9079	2.21865e-05	4.99756e-05	0.000111109	0.000151207	9.84243e-05	3.36254e-05	0.547817	0.288154	7.53648	1.42711e-06	1.31604e-06	4.85093e-07	1.28451e-06	4.88582e-07	6.08958e-07	0.0769031	0.0534158	0.093634	34.7833	2135.34	3074.27	3743.1	-55.2167	0.0000000E+000	0.0000000E+000	0.0000000E+000	55.2167	0.0000000E+000	0.0000000E+000	0.0000000E+000	-55.2167	0.0000000E+000	0.0000000E+000	0.0000000E+000	-34.7833	0.0000000E+000	0.0000000E+000	0.0000000E+000	34.7833	1.43971	55.2167	-1.73954e-06
3163.04	9.2768	7.63205	12.0128	-39.4442	32.8822	0.630851	-0.00852051	6.59287	2.66115	1	38	0.00547267	0.00045557	0	-3.36304e-05	3.20653	2.23088	70.9391	7.77226e-05	2.34531e-05	4.70793e-05	4.91195e-05	0.000114169	5.54262e-05	0.541072	0.180038	8.35818	1.35073e-06	6.23092e-07	1.38002e-06	7.2152e-07	9.08081e-07	4.36138e-07	0.0642851	0.0528875	0.0832446	39.4442	2661.15	3234.64	4188.63	-50.5558	0.0000000E+000	0.0000000E+000	0.0000000E+000	50.5558	0.0000000E+000	0.0000000E+000	0.0000000E+000	-50.5558	0.0000000E+000	0.0000000E+000	0.0000000E+000	-39.4442	0.0000000E+000	0.0000000E+000	0.0000000E+000	39.4442	1.21551	50.5558	-1.86632e-06
2512.41	9.58004	9.24038	13.3102	-43.9661	33.6252	0.630914	-0.0086825	6.85551	3.30407	1	38	0.0053915	0.000405065	0	-3.50914e-05	4.14219	4.23266	71.5068	8.56342e-05	8.40152e-05	0.000139836	5.40883e-05	9.51577e-05	3.57246e-05	0.457863	0.48802	9.37689	8.95948e-07	3.63676e-07	8.76678e-07	4.6245e-07	6.94685e-07	9.1082e-07	0.0540751	0.0521579	0.0751303	43.9661	3304.07	3425.52	4759.31	-46.0339	0.0000000E+000	0.0000000E+000	0.0000000E+000	46.0339	0.0000000E+000	0.0000000E+000	0.0000000E+000	-46.0339	0.0000000E+000	0.0000000E+000	0.0000000E+000	-43.9661	0.0000000E+000	0.0000000E+000	0.0000000E+000	43.9661	1.03676	46.0339	-1.46108e-06
1995.64	10.1155	11.3397	15.1958	-48.2656	34.3683	0.63081	-0.00797124	7.03293	3.91644	1	38	0.00536758	0.000353227	0	-3.69797e-05	3.64684	2.6436	70.963	2.51678e-05	3.50231e-05	1.55182e-05	6.937e-05	3.89583e-05	0.000161982	0.573352	0.424566	10.8711	1.32247e-06	2.81751e-07	5.59412e-07	8.42267e-07	4.10018e-07	9.99855e-07	0.0438067	0.0491081	0.0658075	48.2656	3916.44	3493.64	5248.24	-41.7344	0.0000000E+000	0.0000000E+000	0.0000000E+000	41.7344	0.0000000E+000	0.0000000E+000	0.0000000E+000	-41.7344	0.0000000E+000	0.0000000E+000	0.0000000E+000	-48.2656	0.0000000E+000	0.0000000E+000	0.0000000E+000	48.2656	0.892045	41.7344	-1.88828e-06
1584.49	10.6958	13.9822	17.6041	-52.5855	35.1124	0.630844	-0.00761934	7.18379	4.5319	1	38	0.00530131	0.000301141	0	-3.86735e-05	3.06923	1.70154	70.2524	2.88658e-05	5.07474e-05	4.7685e-05	2.23373e-05	4.2738e-05	0.000129336	0.597041	0.2035	12.6797	9.69795e-07	1.04857e-06	7.64971e-07	5.91967e-07	7.24091e-08	2.26014e-07	0.0345135	0.045118	0.0568051	52.5855	4531.9	3466.72	5705.81	-37.4145	0.0000000E+000	0.0000000E+000	0.0000000E+000	37.4145	0.0000000E+000	0.0000000E+000	0.0000000E+000	-37.4145	0.0000000E+000	0.0000000E+000	0.0000000E+000	-52.5855	0.0000000E+000	0.0000000E+000	0.0000000E+000	52.5855	0.764959	37.4145	-1.69378e-06
1258.79	11.5921	16.8375	20.4421	-55.4537	35.8556	0.630898	-0.00727488	7.50912	5.0944	1	38	0.00520693	0.000254716	0	-4.01324e-05	3.12952	4.97925	72.1315	7.80381e-05	6.02462e-05	5.78867e-05	6.75868e-05	3.08099e-05	3.73332e-05	0.482822	0.829162	14.9187	4.21086e-07	4.67863e-07	5.70245e-07	4.0596e-07	5.1987e-07	4.62493e-07	0.0277404	0.0402927	0.0489187	55.4537	5094.4	3507.35	6185.02	-34.5463	0.0000000E+000	0.0000000E+000	0.0000000E+000	34.5463	0.0000000E+000	0.0000000E+000	0.0000000E+000	-34.5463	0.0000000E+000	0.0000000E+000	0.0000000E+000	-55.4537	0.0000000E+000	0.0000000E+000	0.0000000E+000	55.4537	0.688472	34.5463	-1.45894e-06
999.682	13.0444	21.0993	24.806	-58.2741	36.5994	0.63086	-0.00802897	7.54554	5.45901	1	38	0.00531127	0.000214112	0	-4.17378e-05	4.16599	2.87421	69.7319	0.000146401	7.44269e-05	5.47463e-05	7.33331e-05	5.26153e-05	8.77399e-05	1.20603	0.705768	17.6462	1.57001e-06	1.04923e-06	5.52246e-07	8.569e-07	1.04897e-06	5.93324e-07	0.0211987	0.0342891	0.0403129	58.2741	5459.01	3374.96	6418.03	-31.7259	0.0000000E+000	0.0000000E+000	0.0000000E+000	31.7259	0.0000000E+000	0.0000000E+000	0.0000000E+000	-31.7259	0.0000000E+000	0.0000000E+000	0.0000000E+000	-58.2741	0.0000000E+000	0.0000000E+000	0.0000000E+000	58.2741	0.618236	31.7259	-1.60535e-06
794.239	13.1798	25.3733	28.5922	-62.551	37.3435	0.630884	-0.00682244	7.89753	6.21944	1	38	0.00506792	0.000177248	0	-4.31101e-05	4.59695	3.10979	75.0732	0.000163813	3.99637e-05	2.86728e-05	6.35946e-05	5.6447e-05	0.000119672	1.35651	1.05519	21.4432	1.54951e-06	9.27963e-07	8.8421e-07	3.20213e-07	6.30274e-07	9.57823e-07	0.0161218	0.0310372	0.0349746	62.551	6219.44	3230.6	7008.44	-27.449	0.0000000E+000	0.0000000E+000	0.0000000E+000	27.449	0.0000000E+000	0.0000000E+000	0.0000000E+000	-27.449	0.0000000E+000	0.0000000E+000	0.0000000E+000	-62.551	0.0000000E+000	0.0000000E+000	0.0000000E+000	62.551	0.519435	27.449	-1.37228e-06
631.01	15.6453	31.0893	34.804	-63.2867	38.338	0.630908	-0.0003329	8.11286	6.47346	1	39	0.0054631	0.000156968	0	-4.35621e-05	4.6377	1.65267	66.9119	5.73004e-05	0.000171152	2.64144e-05	7.70703e-05	0.000117442	8.74521e-05	0.850471	0.198377	10.7797	6.4013e-07	6.25282e-07	4.51823e-07	6.60906e-07	4.54795e-07	2.28541e-07	0.0129159	0.0256657	0.0287323	63.2867	6473.46	3257.69	7246.95	-26.7133	0.0000000E+000	0.0000000E+000	0.0000000E+000	26.7133	0.0000000E+000	0.0000000E+000	0.0000000E+000	-26.7133	0.0000000E+000	0.0000000E+000	0.0000000E+000	-63.2867	0.0000000E+000	0.0000000E+000	0.0000000E+000	63.2867	0.503239	26.7133	-4.52042e-07
501.122	17.031	38.1185	41.7501	-65.9253	39.0809	0.630966	-0.000336815	8.33184	6.94538	1	39	0.00532186	0.000127469	0	-4.37406e-05	4.84218	2.01097	68.5203	4.34928e-05	7.85565e-05	0.000106524	0.000160721	8.50237e-05	0.000113319	0.907544	0.366366	13.1334	4.69328e-07	4.75728e-07	3.33085e-07	5.73362e-07	4.30322e-07	3.86183e-07	0.00977069	0.0218685	0.023952	65.9253	6945.38	3103.14	7607.09	-24.0747	0.0000000E+000	0.0000000E+000	0.0000000E+000	24.0747	0.0000000E+000	0.0000000E+000	0.0000000E+000	-24.0747	0.0000000E+000	0.0000000E+000	0.0000000E+000	-65.9253	0.0000000E+000	0.0000000E+000	0.0000000E+000	65.9253	0.446792	24.0747	-1.78492e-07
398.089	19.7243	46.3542	50.3762	-66.9497	39.8263	0.630984	-0.000252013	8.62483	7.30262	1	39	0.00524643	0.000104145	0	-4.37957e-05	3.62935	2.67095	69.7378	6.20291e-05	0.000101652	8.71947e-05	6.03481e-05	6.31249e-05	7.88366e-05	1.09681	0.616363	16.4853	4.97117e-07	4.09483e-07	2.7419e-07	6.63388e-07	4.91494e-07	2.71444e-07	0.00777231	0.0182658	0.0198506	66.9497	7302.62	3107.35	7936.24	-23.0503	0.0000000E+000	0.0000000E+000	0.0000000E+000	23.0503	0.0000000E+000	0.0000000E+000	0.0000000E+000	-23.0503	0.0000000E+000	0.0000000E+000	0.0000000E+000	-66.9497	0.0000000E+000	0.0000000E+000	0.0000000E+000	66.9497	0.425512	23.0503	-5.51316e-08
316.316	23.1744	55.7729	60.396	-67.4364	40.5685	0.630932	-0.000356013	9.02144	7.69319	1	39	0.00517605	8.57019e-05	0	-4.385e-05	3.58283	2.06135	70.9039	5.75216e-05	9.66347e-05	7.50441e-05	4.01854e-05	5.54265e-05	8.24252e-05	1.52368	0.614179	20.4517	5.64365e-07	7.49641e-07	2.74711e-07	3.98381e-07	2.37253e-07	6.13157e-07	0.00635322	0.01529	0.0165574	67.4364	7693.19	3196.63	8330.89	-22.5636	0.0000000E+000	0.0000000E+000	0.0000000E+000	22.5636	0.0000000E+000	0.0000000E+000	0.0000000E+000	-22.5636	0.0000000E+000	0.0000000E+000	0.0000000E+000	-67.4364	0.0000000E+000	0.0000000E+000	0.0000000E+000	67.4364	0.415514	22.5636	-5.42421e-08
251.206	27.1331	66.9096	72.2018	-67.9266	41.3114	0.630944	-0.000633905	9.46895	8.13173	1	39	0.0051167	7.08666e-05	0	-4.39937e-05	2.35572	2.17516	71.2647	2.72301e-05	4.17451e-05	4.88181e-05	5.57407e-05	1.28252e-05	5.61116e-05	1.34429	0.664625	24.1408	6.30171e-07	2.52563e-07	3.33331e-07	4.65184e-07	3.0103e-07	7.18491e-08	0.00520479	0.0128349	0.0138501	67.9266	8131.73	3297.56	8774.9	-22.0734	0.0000000E+000	0.0000000E+000	0.0000000E+000	22.0734	0.0000000E+000	0.0000000E+000	0.0000000E+000	-22.0734	0.0000000E+000	0.0000000E+000	0.0000000E+000	-67.9266	0.0000000E+000	0.0000000E+000	0.0000000E+000	67.9266	0.405518	22.0735	-1.43741e-07
199.553	32.9343	81.7323	88.1183	-68.0528	42.0568	0.630966	-0.000304759	9.75815	8.39503	1	39	0.00516498	5.86142e-05	0	-4.3998e-05	4.35144	3.85762	70.4848	5.93365e-05	7.9351e-05	9.03332e-05	0.000143331	2.71949e-05	6.03874e-05	2.21583	1.27793	29.0764	2.52603e-07	7.31046e-07	5.88988e-07	7.1563e-07	1.59076e-07	2.48196e-07	0.00424147	0.010526	0.0113484	68.0528	8395.03	3382.81	9050.97	-21.9472	0.0000000E+000	0.0000000E+000	0.0000000E+000	21.9472	0.0000000E+000	0.0000000E+000	0.0000000E+000	-21.9472	0.0000000E+000	0.0000000E+000	0.0000000E+000	-68.0528	0.0000000E+000	0.0000000E+000	0.0000000E+000	68.0528	0.402954	21.9472	-4.30683e-09
158.529	38.3181	97.0329	104.325	-68.451	42.8032	0.630921	-0.000446222	10.3465	8.95067	1	39	0.00507698	4.86651e-05	0	-4.40176e-05	2.71525	1.59524	71.6937	3.60838e-05	3.35753e-05	1.08107e-05	6.86182e-05	9.21025e-05	4.67382e-05	2.0487	1.23164	36.094	4.5672e-07	3.33502e-07	3.18669e-07	4.50848e-07	3.05999e-07	4.29411e-07	0.0035207	0.00891547	0.00958546	68.451	8950.67	3534.6	9623.3	-21.549	0.0000000E+000	0.0000000E+000	0.0000000E+000	21.549	0.0000000E+000	0.0000000E+000	0.0000000E+000	-21.549	0.0000000E+000	0.0000000E+000	0.0000000E+000	-68.451	0.0000000E+000	0.0000000E+000	0.0000000E+000	68.451	0.394898	21.549	-1.96246e-08
125.927	46.072	114.817	123.716	-68.1362	43.5449	0.630958	-0.000502322	11.0077	9.48108	1	39	0.00504065	4.07437e-05	0	-4.41183e-05	3.2857	1.31408	72.9488	7.23324e-05	6.28372e-05	4.6456e-05	5.65053e-05	6.04426e-05	6.73968e-05	2.75061	0.779576	40.2579	5.5535e-07	5.58764e-07	2.4935e-07	2.40402e-07	5.26049e-07	4.26307e-07	0.00301014	0.00750163	0.00808303	68.1362	9481.08	3804.42	10215.9	-21.8638	0.0000000E+000	0.0000000E+000	0.0000000E+000	21.8638	0.0000000E+000	0.0000000E+000	0.0000000E+000	-21.8638	0.0000000E+000	0.0000000E+000	0.0000000E+000	-68.1362	0.0000000E+000	0.0000000E+000	0.0000000E+000	68.1362	0.401264	21.8638	-1.00691e-07
99.9682	53.7948	139.397	149.417	-68.8979	44.2764	0.630983	-0.000398695	11.421	9.94058	1	39	0.00509522	3.41006e-05	0	-4.42332e-05	3.94793	2.80482	72.3847	8.9018e-05	4.8768e-05	9.69599e-05	5.43381e-05	7.30588e-05	8.40138e-05	1.66755	2.3821	48.6276	1.19897e-07	1.94833e-07	1.55147e-07	2.75909e-07	1.65677e-07	3.30408e-07	0.00240957	0.00624387	0.00669267	68.8979	9940.58	3836.17	10655.1	-21.1021	0.0000000E+000	0.0000000E+000	0.0000000E+000	21.1021	0.0000000E+000	0.0000000E+000	0.0000000E+000	-21.1021	0.0000000E+000	0.0000000E+000	0.0000000E+000	-68.8979	0.0000000E+000	0.0000000E+000	0.0000000E+000	68.8979	0.38591	21.1021	-1.14843e-07