File: Python/Data/GoldElectrode/240319/Gold/240319-CVEIS_Activation-0p5H2SO4-Ag_AgCl_BLF8-Au_RDE-80cycles_04_PEIS_C15.mpt
EC-Lab ASCII FILE
Nb header lines : 66

Potentio Electrochemical Impedance Spectroscopy

Run on channel : 15 (SN 19485)
User :
Electrode connection : standard
Potential control : Ewe
Ewe ctrl range : min = -2.50 V, max = 2.50 V
Ewe,I filtering : 50 kHz
Safety Limits :
	Do not start on E overload
Channel : Floating
Acquisition started on : 03/19/2024 13:27:19.036
Loaded Setting File :  C:\Data\mathias\GoldElectrode\240313-CVEIS_Activation-0p5H2SO4-Ag_AgCl_BLF8-Au_RDE-80cycles.mps
Saved on :
	File : 240319-CVEIS_Activation-0p5H2SO4-Ag_AgCl_BLF8-Au_RDE-80cycles_04_PEIS_C15.mpr
	Directory : C:\Data\mathias\GoldElectrode\
	Host : 192.168.0.1
Device : VMP-300 (SN 0826)
Address : USB
EC-Lab for windows v11.52 (software)
Internet server v11.52 (firmware)
Command interpretor v11.52 (firmware)
Electrode material :
Initial state :
Electrolyte :
Comments :
Cable : special
Electrode surface area : 0.001 cm²
Characteristic mass : 0.001 g
Equivalent Weight : 0.000 g/eq.
Density : 0.000 g/cm3
Volume (V) : 0.001 cm³
Record EIS quality indicators
Cycle Definition : Charge/Discharge alternance
Mode                Single sine
E (V)               0.0000
vs.                 Eoc
tE (h:m:s)          0:00:0.0000
record              0
dI                  0.000
unit dI             mA
dt (s)              0.000
fi                  100.000
unit fi             kHz
ff                  100.000
unit ff             Hz
Nd                  10
Points              per decade
spacing             Logarithmic
Va (mV)             5.0
pw                  0.10
Na                  2
corr                0
E range min (V)     -2.500
E range max (V)     2.500
I Range             Auto
Bandwidth           8
nc cycles           0
goto Ns'            0
nr cycles           0
inc. cycle          0

freq/Hz	Re(Z)/Ohm	-Im(Z)/Ohm	|Z|/Ohm	Phase(Z)/deg	time/s	<Ewe>/V	<I>/mA	Cs/µF	Cp/µF	cycle number	I Range	|Ewe|/V	|I|/A	Ns	(Q-Qo)/mA.h	THD Ewe/%	NSD Ewe/%	NSR Ewe/%	|Ewe h2|/V	|Ewe h3|/V	|Ewe h4|/V	|Ewe h5|/V	|Ewe h6|/V	|Ewe h7|/V	THD I/%	NSD I/%	NSR I/%	|I h2|/A	|I h3|/A	|I h4|/A	|I h5|/A	|I h6|/A	|I h7|/A	Re(Y)/Ohm-1	Im(Y)/Ohm-1	|Y|/Ohm-1	Phase(Y)/deg	Re(C)/nF	Im(C)/nF	|C|/nF	Phase(C)/deg	Re(M)	Im(M)	|M|	Phase(M)/deg	Re(Permittivity)	Im(Permittivity)	|Permittivity|	Phase(Permittivity)/deg	Re(Resistivity)/Ohm.cm	Im(Resistivity)/Ohm.cm	|Resistivity|/Ohm.cm	Phase(Resistivity)/deg	Re(Conductivity)/mS/cm	Im(Conductivity)/mS/cm	|Conductivity|/mS/cm	Phase(Conductivity)/deg	Tan(Delta)	Loss Angle(Delta)/deg	dq/mA.h
100004	7.6796	0.687911	7.71035	-5.11869	388.996	0.630994	-0.0201465	2.31351	0.0184157	1	38	0.0049362	0.000640205	0	-6.31371e-06	4.21487	1.89323	77.4828	0.000104027	0.000106006	5.73878e-05	4.24545e-05	7.31462e-05	9.89087e-05	0.324846	0.145027	5.88632	7.42793e-07	1.08813e-06	9.80002e-07	7.97787e-07	5.28082e-07	5.52719e-07	0.129179	0.0115714	0.129696	5.11869	18.4157	205.586	206.41	-84.8813	0.0000000E+000	0.0000000E+000	0.0000000E+000	84.8813	0.0000000E+000	0.0000000E+000	0.0000000E+000	-84.8813	0.0000000E+000	0.0000000E+000	0.0000000E+000	-5.11869	0.0000000E+000	0.0000000E+000	0.0000000E+000	5.11869	11.1637	84.8813	-6.31371e-06
79433.3	7.58898	0.69986	7.62119	-5.26895	389.81	0.630974	-0.00995233	2.8629	0.0241426	1	38	0.00503632	0.000660832	0	-8.16021e-06	3.7612	3.36623	74.715	0.000114561	4.07335e-05	8.11698e-05	2.83218e-05	6.01994e-05	7.00645e-05	0.241923	0.15534	5.71871	7.44504e-07	3.41556e-07	8.70318e-07	8.03704e-07	4.27461e-07	4.54468e-07	0.130659	0.0120494	0.131213	5.26895	24.1426	261.792	262.903	-84.7311	0.0000000E+000	0.0000000E+000	0.0000000E+000	84.7311	0.0000000E+000	0.0000000E+000	0.0000000E+000	-84.7311	0.0000000E+000	0.0000000E+000	0.0000000E+000	-5.26895	0.0000000E+000	0.0000000E+000	0.0000000E+000	5.26895	10.8436	84.7311	-1.84651e-06
63093.8	7.70369	0.504026	7.72016	-3.74333	390.624	0.631034	-0.0100454	5.00473	0.0213321	1	38	0.00520842	0.000674651	0	-1.18659e-05	3.34195	3.95484	71.7589	4.84677e-05	7.41269e-05	6.89583e-05	0.000103392	4.79232e-05	4.85159e-05	0.33118	0.376693	5.54177	1.33903e-06	6.77076e-07	5.68319e-07	1.06157e-06	1.00158e-06	3.42489e-07	0.129255	0.00845667	0.129531	3.74333	21.332	326.046	326.743	-86.2567	0.0000000E+000	0.0000000E+000	0.0000000E+000	86.2567	0.0000000E+000	0.0000000E+000	0.0000000E+000	-86.2567	0.0000000E+000	0.0000000E+000	0.0000000E+000	-3.74333	0.0000000E+000	0.0000000E+000	0.0000000E+000	3.74333	15.2843	86.2567	-3.70571e-06
50122.5	7.73347	0.800832	7.77482	-5.91214	391.438	0.631034	-0.0101497	3.96503	0.0420676	1	38	0.00511952	0.000658474	0	-1.47173e-05	4.1754	5.70944	73.8763	5.3751e-05	4.13753e-05	3.71785e-05	3.26689e-05	0.000155437	0.000105333	0.343824	0.312184	5.82514	1.19397e-06	8.35473e-07	4.41677e-07	7.37066e-07	5.22467e-07	1.18835e-06	0.127936	0.0132483	0.12862	5.91214	42.0676	406.238	408.411	-84.0879	0.0000000E+000	0.0000000E+000	0.0000000E+000	84.0879	0.0000000E+000	0.0000000E+000	0.0000000E+000	-84.0879	0.0000000E+000	0.0000000E+000	0.0000000E+000	-5.91214	0.0000000E+000	0.0000000E+000	0.0000000E+000	5.91214	9.65679	84.0879	-2.85136e-06
39814.1	7.59723	0.832333	7.64269	-6.25224	392.252	0.630951	-0.00946078	4.80271	0.0569624	1	38	0.00511017	0.000668635	0	-1.76238e-05	3.56242	1.80975	74.3344	0.000110098	2.86639e-05	4.7996e-05	6.43581e-05	9.37964e-05	2.23503e-05	0.316734	0.12488	5.66466	7.35807e-07	1.21372e-06	8.88687e-07	7.08919e-07	5.95942e-07	4.21943e-07	0.130066	0.0142497	0.130844	6.25224	56.9624	519.932	523.043	-83.7478	0.0000000E+000	0.0000000E+000	0.0000000E+000	83.7478	0.0000000E+000	0.0000000E+000	0.0000000E+000	-83.7478	0.0000000E+000	0.0000000E+000	0.0000000E+000	-6.25224	0.0000000E+000	0.0000000E+000	0.0000000E+000	6.25224	9.12763	83.7478	-2.90653e-06
31621.1	7.70261	0.88864	7.7537	-6.58104	393.066	0.63104	-0.0105686	5.66392	0.074396	1	38	0.00508961	0.00065641	0	-1.98285e-05	2.80642	1.9092	74.8191	3.39516e-05	5.97399e-05	4.90398e-05	7.33572e-05	6.62336e-05	4.34383e-05	0.256619	0.176161	5.73306	5.42964e-07	5.9964e-07	8.15425e-07	8.63498e-07	2.25198e-07	5.78643e-07	0.128121	0.0147811	0.128971	6.58104	74.396	644.855	649.132	-83.419	0.0000000E+000	0.0000000E+000	0.0000000E+000	83.419	0.0000000E+000	0.0000000E+000	0.0000000E+000	-83.419	0.0000000E+000	0.0000000E+000	0.0000000E+000	-6.58104	0.0000000E+000	0.0000000E+000	0.0000000E+000	6.58104	8.66787	83.419	-2.20469e-06
25116.9	7.80054	1.10993	7.87911	-8.09817	393.88	0.630987	-0.0100492	5.70899	0.113291	1	38	0.00524671	0.000665901	0	-2.10497e-05	3.15741	2.57986	73.4617	5.78939e-05	4.9522e-05	7.29454e-05	6.7269e-05	7.19026e-05	4.28073e-05	0.268933	0.149017	5.66994	1.11923e-06	5.06881e-07	6.10715e-07	5.543e-07	3.29101e-07	8.129e-07	0.125652	0.0178789	0.126918	8.09817	113.291	796.204	804.224	-81.9018	0.0000000E+000	0.0000000E+000	0.0000000E+000	81.9018	0.0000000E+000	0.0000000E+000	0.0000000E+000	-81.9018	0.0000000E+000	0.0000000E+000	0.0000000E+000	-8.09817	0.0000000E+000	0.0000000E+000	0.0000000E+000	8.09817	7.02798	81.9018	-1.22119e-06
19948.8	7.84207	1.25741	7.94224	-9.10939	394.694	0.630997	-0.00930997	6.34491	0.159036	1	38	0.00515839	0.000649488	0	-2.2973e-05	3.72435	1.87679	73.0357	5.99682e-05	3.51048e-05	0.000118285	3.25161e-05	7.51598e-05	7.70694e-05	0.333511	0.184006	5.75235	7.23531e-07	7.46862e-07	1.18162e-06	9.14043e-07	4.90437e-07	8.37839e-07	0.124321	0.0199339	0.125909	9.10939	159.036	991.856	1004.52	-80.8906	0.0000000E+000	0.0000000E+000	0.0000000E+000	80.8906	0.0000000E+000	0.0000000E+000	0.0000000E+000	-80.8906	0.0000000E+000	0.0000000E+000	0.0000000E+000	-9.10939	0.0000000E+000	0.0000000E+000	0.0000000E+000	9.10939	6.23666	80.8906	-1.92328e-06
15847.7	7.81312	1.55441	7.96624	-11.252	395.508	0.631021	-0.0105016	6.46083	0.245988	1	38	0.00510822	0.000641233	0	-2.5664e-05	4.45752	1.33759	74.574	1.74327e-05	6.31891e-05	0.000169863	5.73802e-05	2.64823e-05	0.000103818	0.366536	0.143467	5.86499	7.00896e-07	3.57817e-07	1.53709e-06	9.79488e-07	6.03293e-07	7.6997e-07	0.123117	0.024494	0.12553	11.252	245.988	1236.44	1260.67	-78.748	0.0000000E+000	0.0000000E+000	0.0000000E+000	78.748	0.0000000E+000	0.0000000E+000	0.0000000E+000	-78.748	0.0000000E+000	0.0000000E+000	0.0000000E+000	-11.252	0.0000000E+000	0.0000000E+000	0.0000000E+000	11.252	5.02641	78.748	-2.69101e-06
12590.9	7.94252	1.703	8.12305	-12.1019	396.322	0.63104	-0.0096507	7.42245	0.326242	1	38	0.0050393	0.000620371	0	-2.75513e-05	6.20527	2.47131	78.093	0.000154376	0.000140819	9.90462e-05	9.66583e-05	0.000114364	0.000116491	0.325185	0.192788	6.04575	9.10867e-07	4.5676e-07	8.18742e-07	6.53428e-07	4.90913e-07	9.62389e-07	0.120371	0.0258094	0.123107	12.1019	326.242	1521.54	1556.12	-77.8981	0.0000000E+000	0.0000000E+000	0.0000000E+000	77.8981	0.0000000E+000	0.0000000E+000	0.0000000E+000	-77.8981	0.0000000E+000	0.0000000E+000	0.0000000E+000	-12.1019	0.0000000E+000	0.0000000E+000	0.0000000E+000	12.1019	4.66384	77.8981	-1.8873e-06
10002.2	7.8983	2.05226	8.16057	-14.5654	397.136	0.630936	-0.00910329	7.75339	0.490359	1	38	0.00492772	0.000603845	0	-3.00176e-05	2.71167	1.30021	77.774	2.85356e-05	4.26409e-05	2.87535e-05	8.21547e-05	6.54727e-05	4.16796e-05	0.280975	0.142226	6.27771	5.57621e-07	4.19569e-07	5.02022e-07	5.70148e-07	4.79924e-07	9.66391e-07	0.118602	0.030817	0.122541	14.5654	490.36	1887.19	1949.86	-75.4346	0.0000000E+000	0.0000000E+000	0.0000000E+000	75.4346	0.0000000E+000	0.0000000E+000	0.0000000E+000	-75.4346	0.0000000E+000	0.0000000E+000	0.0000000E+000	-14.5654	0.0000000E+000	0.0000000E+000	0.0000000E+000	14.5654	3.84859	75.4346	-2.46629e-06
7944	8.28722	2.64798	8.69998	-17.72	397.986	0.630905	-0.00976055	7.56601	0.700904	1	38	0.00529333	0.00060843	0	-3.1765e-05	3.10619	1.54475	71.8825	8.06454e-05	4.1622e-05	5.22514e-05	8.78862e-05	3.26506e-05	7.61331e-05	0.286337	0.133972	6.12871	5.40319e-07	6.09216e-07	7.72641e-07	6.46663e-07	4.81458e-07	9.3815e-07	0.109489	0.0349846	0.114943	17.72	700.904	2193.58	2302.83	-72.28	0.0000000E+000	0.0000000E+000	0.0000000E+000	72.28	0.0000000E+000	0.0000000E+000	0.0000000E+000	-72.28	0.0000000E+000	0.0000000E+000	0.0000000E+000	-17.72	0.0000000E+000	0.0000000E+000	0.0000000E+000	17.72	3.12964	72.28	-1.74743e-06
6307.74	8.30391	3.05947	8.84959	-20.2257	398.886	0.630907	-0.00900089	8.24708	0.985704	1	38	0.00503417	0.000568859	0	-3.36294e-05	3.60876	2.64381	75.6933	4.90722e-05	8.53176e-05	6.39194e-05	5.06228e-05	7.67935e-05	4.9258e-05	0.407461	0.235664	6.88555	9.33268e-07	6.83445e-07	1.40401e-06	5.60626e-07	8.03721e-07	8.45573e-07	0.106032	0.0390661	0.113	20.2257	985.704	2675.36	2851.17	-69.7743	0.0000000E+000	0.0000000E+000	0.0000000E+000	69.7743	0.0000000E+000	0.0000000E+000	0.0000000E+000	-69.7743	0.0000000E+000	0.0000000E+000	0.0000000E+000	-20.2257	0.0000000E+000	0.0000000E+000	0.0000000E+000	20.2257	2.71417	69.7743	-1.86441e-06
5011.6	8.40126	3.76021	9.20436	-24.1122	399.642	0.630849	-0.00923177	8.44562	1.40951	1	38	0.00535987	0.000582318	0	-3.52669e-05	4.35766	1.81688	70.9481	8.95747e-05	5.14192e-05	0.000112727	7.07364e-05	7.50065e-05	0.000103585	0.382367	0.144742	6.4974	1.21023e-06	6.61036e-07	1.37898e-06	4.44738e-07	4.82017e-07	7.36782e-07	0.0991646	0.0443838	0.108644	24.1122	1409.51	3149.2	3450.24	-65.8878	0.0000000E+000	0.0000000E+000	0.0000000E+000	65.8878	0.0000000E+000	0.0000000E+000	0.0000000E+000	-65.8878	0.0000000E+000	0.0000000E+000	0.0000000E+000	-24.1122	0.0000000E+000	0.0000000E+000	0.0000000E+000	24.1122	2.23425	65.8878	-1.63748e-06
3981.28	8.526	4.6228	9.69861	-28.4666	400.607	0.630873	-0.0101907	8.64753	1.96465	1	38	0.00508582	0.000524387	0	-3.73587e-05	2.74924	1.54904	72.9563	6.01886e-05	6.28284e-05	7.51476e-05	4.62003e-05	3.82065e-05	4.97866e-05	0.370182	0.200658	7.19204	6.81013e-07	1.11161e-06	6.3628e-07	7.08471e-07	5.35853e-07	6.47933e-07	0.0906414	0.0491458	0.103108	28.4666	1964.65	3623.47	4121.81	-61.5334	0.0000000E+000	0.0000000E+000	0.0000000E+000	61.5334	0.0000000E+000	0.0000000E+000	0.0000000E+000	-61.5334	0.0000000E+000	0.0000000E+000	0.0000000E+000	-28.4666	0.0000000E+000	0.0000000E+000	0.0000000E+000	28.4666	1.84434	61.5334	-2.09183e-06
3163.04	8.84081	5.59231	10.4611	-32.3157	401.35	0.630848	-0.00921129	8.99754	2.57131	1	38	0.00520845	0.000497889	0	-3.91026e-05	3.07632	3.26189	73.7413	6.72744e-05	6.59875e-05	7.02221e-05	4.45658e-05	2.70391e-05	7.98377e-05	0.265706	0.351997	7.58379	5.2985e-07	4.13296e-07	6.62006e-07	5.33231e-07	3.07664e-07	4.57579e-07	0.0807868	0.0511022	0.0955926	32.3157	2571.31	4064.95	4809.94	-57.6843	0.0000000E+000	0.0000000E+000	0.0000000E+000	57.6843	0.0000000E+000	0.0000000E+000	0.0000000E+000	-57.6843	0.0000000E+000	0.0000000E+000	0.0000000E+000	-32.3157	0.0000000E+000	0.0000000E+000	0.0000000E+000	32.3157	1.58089	57.6843	-1.7439e-06
2512.41	8.94751	7.10083	11.4228	-38.4359	402.093	0.630903	-0.00884262	8.92114	3.44743	1	38	0.0052191	0.000456903	0	-4.10608e-05	3.49715	3.29724	72.8934	6.28785e-05	6.45698e-05	0.00010713	3.99895e-05	4.44764e-05	6.02651e-05	0.471376	0.295014	8.40314	8.42052e-07	7.59413e-07	1.05061e-06	3.70443e-07	7.77421e-07	9.97273e-07	0.0685739	0.054421	0.0875444	38.4359	3447.43	4343.99	5545.72	-51.5641	0.0000000E+000	0.0000000E+000	0.0000000E+000	51.5641	0.0000000E+000	0.0000000E+000	0.0000000E+000	-51.5641	0.0000000E+000	0.0000000E+000	0.0000000E+000	-38.4359	0.0000000E+000	0.0000000E+000	0.0000000E+000	38.4359	1.26007	51.5641	-1.95818e-06
1995.64	9.15787	8.64719	12.5953	-43.3571	402.836	0.630834	-0.00921874	9.22281	4.3471	1	38	0.0051714	0.000410583	0	-4.28587e-05	3.496	1.06195	73.0674	3.28463e-05	4.58927e-05	7.33278e-05	4.04936e-05	6.38007e-05	0.000119732	0.625089	0.236966	9.46848	9.19569e-07	1.08212e-06	8.22343e-07	1.15538e-06	7.31183e-07	1.31582e-06	0.0577272	0.0545081	0.079395	43.3571	4347.1	4603.82	6331.86	-46.6429	0.0000000E+000	0.0000000E+000	0.0000000E+000	46.6429	0.0000000E+000	0.0000000E+000	0.0000000E+000	-46.6429	0.0000000E+000	0.0000000E+000	0.0000000E+000	-43.3571	0.0000000E+000	0.0000000E+000	0.0000000E+000	43.3571	1.05906	46.6429	-1.7979e-06
1584.49	9.71001	10.3298	14.1771	-46.7716	403.58	0.630857	-0.00861734	9.72381	5.16237	1	38	0.00510272	0.000359927	0	-4.49629e-05	3.19997	4.32641	74.1594	9.09201e-05	7.0299e-05	3.68957e-05	7.16789e-05	5.82115e-05	4.18607e-05	0.461978	0.304761	10.6373	4.71797e-07	9.79024e-07	2.97771e-07	7.47705e-07	6.29757e-07	4.36026e-07	0.0483109	0.0513948	0.0705363	46.7716	5162.37	4852.61	7085.05	-43.2284	0.0000000E+000	0.0000000E+000	0.0000000E+000	43.2284	0.0000000E+000	0.0000000E+000	0.0000000E+000	-43.2284	0.0000000E+000	0.0000000E+000	0.0000000E+000	-46.7716	0.0000000E+000	0.0000000E+000	0.0000000E+000	46.7716	0.939996	43.2284	-2.10422e-06
1258.79	10.0127	12.9782	16.3917	-52.3499	404.323	0.630791	-0.008487	9.74206	6.10707	1	38	0.00505765	0.000308549	0	-4.67836e-05	4.34464	2.15772	75.6898	8.14233e-05	5.55374e-05	7.27365e-05	0.000105449	0.000127151	4.57139e-05	0.746656	0.312843	12.1559	8.32481e-07	1.18314e-06	8.82331e-07	1.11628e-06	4.98464e-07	5.50108e-07	0.037265	0.0483021	0.0610064	52.3499	6107.07	4711.6	7713.33	-37.6501	0.0000000E+000	0.0000000E+000	0.0000000E+000	37.6501	0.0000000E+000	0.0000000E+000	0.0000000E+000	-37.6501	0.0000000E+000	0.0000000E+000	0.0000000E+000	-52.3499	0.0000000E+000	0.0000000E+000	0.0000000E+000	52.3499	0.771499	37.6501	-1.82064e-06
999.682	10.5596	15.4746	18.7342	-55.6909	405.069	0.630825	-0.00762493	10.2882	7.01955	1	38	0.00491984	0.000262613	0	-4.83407e-05	3.42852	4.22097	75.9069	5.24517e-05	4.85043e-05	6.58066e-05	8.32422e-05	1.35369e-05	9.47025e-05	0.678454	0.576427	14.3885	9.02146e-07	8.43572e-07	5.42625e-07	4.61063e-07	6.63589e-07	6.35699e-07	0.0300872	0.0440911	0.0533784	55.6909	7019.54	4790.04	8498.15	-34.3091	0.0000000E+000	0.0000000E+000	0.0000000E+000	34.3091	0.0000000E+000	0.0000000E+000	0.0000000E+000	-34.3091	0.0000000E+000	0.0000000E+000	0.0000000E+000	-55.6909	0.0000000E+000	0.0000000E+000	0.0000000E+000	55.6909	0.682387	34.3091	-1.55711e-06
794.239	10.695	20.0032	22.6829	-61.8681	405.812	0.631051	-0.00675168	10.0177	7.79063	1	38	0.00497819	0.000219469	0	-4.99209e-05	4.16886	3.52902	76.4344	0.000138364	2.25384e-05	4.72103e-05	0.000105124	3.82995e-05	3.10073e-05	0.855501	0.783847	17.6982	9.12602e-07	9.85534e-07	8.08742e-07	4.38464e-07	6.90266e-07	5.11494e-07	0.0207867	0.038878	0.0440861	61.8681	7790.63	4165.38	8834.27	-28.1319	0.0000000E+000	0.0000000E+000	0.0000000E+000	28.1319	0.0000000E+000	0.0000000E+000	0.0000000E+000	-28.1319	0.0000000E+000	0.0000000E+000	0.0000000E+000	-61.8681	0.0000000E+000	0.0000000E+000	0.0000000E+000	61.8681	0.534665	28.1319	-1.58025e-06
631.01	12.4719	23.8246	26.8917	-62.3685	406.554	0.630937	-0.00639233	10.5866	8.3095	1	38	0.00494069	0.000183726	0	-5.10536e-05	5.2823	1.51451	76.2161	9.61823e-05	0.000116484	7.10338e-05	0.000147085	9.09119e-05	6.4349e-05	0.991524	0.532162	20.3589	4.83377e-07	5.97102e-07	6.82821e-07	1.0799e-06	8.52513e-07	3.9093e-07	0.0172464	0.0329451	0.0371862	62.3685	8309.5	4349.92	9379.21	-27.6315	0.0000000E+000	0.0000000E+000	0.0000000E+000	27.6315	0.0000000E+000	0.0000000E+000	0.0000000E+000	-27.6315	0.0000000E+000	0.0000000E+000	0.0000000E+000	-62.3685	0.0000000E+000	0.0000000E+000	0.0000000E+000	62.3685	0.523488	27.6315	-1.13266e-06
501.122	13.4796	29.8296	32.7338	-65.6824	407.549	0.630861	-0.00045591	10.6471	8.84159	1	39	0.00524441	0.000160214	0	-5.15829e-05	4.25833	2.42776	70.9425	3.58458e-05	9.26991e-05	6.04146e-05	0.000132038	9.61092e-05	7.03975e-05	0.690528	0.31644	10.5707	5.38561e-07	2.90533e-07	2.94203e-07	6.16336e-07	4.11003e-07	3.67594e-07	0.0125801	0.027839	0.0305495	65.6824	8841.58	3995.4	9702.42	-24.3176	0.0000000E+000	0.0000000E+000	0.0000000E+000	24.3176	0.0000000E+000	0.0000000E+000	0.0000000E+000	-24.3176	0.0000000E+000	0.0000000E+000	0.0000000E+000	-65.6824	0.0000000E+000	0.0000000E+000	0.0000000E+000	65.6824	0.451887	24.3176	-5.29322e-07
398.089	15.5206	36.5776	39.7343	-67.0075	408.295	0.630888	-0.000376514	10.9301	9.26243	1	39	0.00516886	0.000130086	0	-5.16496e-05	4.60835	3.29575	72.9787	3.66518e-05	0.000111473	1.1195e-05	9.97387e-05	0.000160517	7.33224e-05	0.836785	0.385796	13.6216	4.31297e-07	4.42492e-07	3.16586e-07	6.0615e-07	3.64789e-07	2.89938e-07	0.00983057	0.0231678	0.0251672	67.0075	9262.43	3930.24	10061.8	-22.9925	0.0000000E+000	0.0000000E+000	0.0000000E+000	22.9925	0.0000000E+000	0.0000000E+000	0.0000000E+000	-22.9925	0.0000000E+000	0.0000000E+000	0.0000000E+000	-67.0075	0.0000000E+000	0.0000000E+000	0.0000000E+000	67.0075	0.42432	22.9925	-6.67012e-08
316.316	17.5777	43.7936	47.1896	-68.1307	409.037	0.63082	-0.00013944	11.4892	9.89505	1	39	0.00501484	0.00010627	0	-5.16615e-05	2.4735	2.30644	73.8172	6.53681e-05	6.84503e-05	2.94204e-05	2.9553e-05	5.21047e-05	3.52618e-05	0.743518	0.403767	15.7405	3.03114e-07	2.39729e-07	4.1499e-07	3.46628e-07	1.80048e-07	2.5592e-07	0.00789349	0.0196661	0.0211911	68.1307	9895.05	3971.62	10662.4	-21.8693	0.0000000E+000	0.0000000E+000	0.0000000E+000	21.8693	0.0000000E+000	0.0000000E+000	0.0000000E+000	-21.8693	0.0000000E+000	0.0000000E+000	0.0000000E+000	-68.1307	0.0000000E+000	0.0000000E+000	0.0000000E+000	68.1307	0.401375	21.8693	-1.1857e-08
251.206	19.5938	54.2246	57.656	-70.1329	409.78	0.630931	-0.000553016	11.6841	10.3347	1	39	0.00501267	8.69409e-05	0	-5.17843e-05	3.12712	2.58514	74.0705	6.38877e-05	8.77496e-05	6.75348e-05	3.35786e-05	7.6512e-05	2.1407e-05	0.925465	0.458282	19.3534	1.82749e-07	3.03879e-07	1.77283e-07	2.72737e-07	5.458e-07	2.76602e-07	0.00589425	0.016312	0.0173442	70.1329	10334.7	3734.38	10988.7	-19.8671	0.0000000E+000	0.0000000E+000	0.0000000E+000	19.8671	0.0000000E+000	0.0000000E+000	0.0000000E+000	-19.8671	0.0000000E+000	0.0000000E+000	0.0000000E+000	-70.1329	0.0000000E+000	0.0000000E+000	0.0000000E+000	70.1329	0.361345	19.8671	-1.22872e-07
199.553	22.8411	66.3193	70.1424	-70.9957	410.525	0.63087	-0.000474551	12.026	10.7508	1	39	0.00501822	7.15433e-05	0	-5.17792e-05	3.95182	3.27917	73.2843	6.87423e-05	7.11379e-05	0.00012048	7.99785e-05	6.33686e-05	4.7062e-05	1.55386	0.942542	24.2118	4.36233e-07	5.37802e-07	3.91383e-07	4.18664e-07	3.04274e-07	4.29979e-07	0.00464254	0.0134796	0.0142567	70.9957	10750.8	3702.68	11370.5	-19.0043	0.0000000E+000	0.0000000E+000	0.0000000E+000	19.0043	0.0000000E+000	0.0000000E+000	0.0000000E+000	-19.0043	0.0000000E+000	0.0000000E+000	0.0000000E+000	-70.9957	0.0000000E+000	0.0000000E+000	0.0000000E+000	70.9957	0.344411	19.0043	5.12148e-09
158.529	26.0956	79.195	83.3836	-71.7624	411.273	0.630866	-0.000572214	12.6769	11.4353	1	39	0.00492703	5.90887e-05	0	-5.18862e-05	2.65652	1.42201	73.6563	7.55994e-05	5.2728e-05	5.06949e-05	5.711e-05	2.15206e-05	4.10698e-05	1.66319	0.534134	29.2075	2.00488e-07	3.98693e-07	3.97416e-07	3.11307e-07	3.01092e-07	4.45741e-07	0.00375324	0.0113903	0.0119928	71.7624	11435.3	3768.06	12040.1	-18.2376	0.0000000E+000	0.0000000E+000	0.0000000E+000	18.2376	0.0000000E+000	0.0000000E+000	0.0000000E+000	-18.2376	0.0000000E+000	0.0000000E+000	0.0000000E+000	-71.7624	0.0000000E+000	0.0000000E+000	0.0000000E+000	71.7624	0.329511	18.2376	-1.0697e-07
125.927	33.0133	97.5876	103.02	-71.3096	412.013	0.630854	-0.000250151	12.9511	11.6212	1	39	0.00497025	4.82453e-05	0	-5.20191e-05	3.28376	2.61283	74.0363	7.76062e-05	8.18043e-05	4.60575e-05	8.16368e-05	3.85598e-05	4.6441e-05	2.08837	1.41487	35.4345	4.04278e-07	6.25546e-07	3.30627e-07	4.86568e-07	2.19444e-07	2.09959e-07	0.00311058	0.00919491	0.00970681	71.3096	11621.2	3931.37	12268.1	-18.6904	0.0000000E+000	0.0000000E+000	0.0000000E+000	18.6904	0.0000000E+000	0.0000000E+000	0.0000000E+000	-18.6904	0.0000000E+000	0.0000000E+000	0.0000000E+000	-71.3096	0.0000000E+000	0.0000000E+000	0.0000000E+000	71.3096	0.338294	18.6904	-1.32869e-07
99.9682	36.9855	118.707	124.336	-72.6946	412.745	0.63097	-8.96783e-05	13.4116	12.2249	1	39	0.00501305	4.03187e-05	0	-5.20828e-05	4.62835	9.63354	71.9003	6.60853e-05	5.56775e-05	7.59924e-05	8.30644e-05	7.92571e-05	0.000118451	2.19046	2.35266	41.8996	4.91637e-07	1.37063e-07	4.59895e-07	2.97247e-07	3.18727e-07	2.7274e-07	0.00239243	0.00767867	0.00804274	72.6946	12224.9	3808.88	12804.5	-17.3054	0.0000000E+000	0.0000000E+000	0.0000000E+000	17.3054	0.0000000E+000	0.0000000E+000	0.0000000E+000	-17.3054	0.0000000E+000	0.0000000E+000	0.0000000E+000	-72.6946	0.0000000E+000	0.0000000E+000	0.0000000E+000	72.6946	0.311568	17.3054	-6.37818e-08