File: Python/Data/GoldElectrode/240319/Gold/240319-CVEIS_PostActivation-Fe2Fe3_5mM-HCl1M-0225RPM-Ag_AgCl_BLF8-Au_RDE_01_CV_C15.mpt
EC-Lab ASCII FILE
Nb header lines : 60

Cyclic Voltammetry

Run on channel : 15 (SN 19485)
User :
Electrode connection : standard
Potential control : Ewe
Ewe ctrl range : min = -1.00 V, max = 1.00 V
Ewe,I filtering : <None>
Safety Limits :
	Do not start on E overload
Channel : Floating
Acquisition started on : 03/19/2024 16:25:12.456
Loaded Setting File :  NONE
Saved on :
	File : 240319-CVEIS_PostActivation-Fe2Fe3_5mM-HCl1M-0225RPM-Ag_AgCl_BLF8-Au_RDE_01_CV_C15.mpr
	Directory : C:\Data\mathias\GoldElectrode\
	Host : 192.168.0.1
Device : VMP-300 (SN 0826)
Address : USB
EC-Lab for windows v11.52 (software)
Internet server v11.52 (firmware)
Command interpretor v11.52 (firmware)
Electrode material :
Initial state :
Electrolyte :
Comments :
Cable : special
Electrode surface area : 0.001 cm²
Characteristic mass : 0.001 g
Equivalent Weight : 0.000 g/eq.
Density : 0.000 g/cm3
Volume (V) : 0.001 cm³
Record EIS quality indicators
Cycle Definition : Charge/Discharge alternance
Ei (V)              0.000
vs.                 Eoc
dE/dt               20.000
dE/dt unit          mV/s
E1 (V)              0.700
vs.                 Ref
Step percent        50
N                   10
E range min (V)     -1.000
E range max (V)     1.000
I Range             Auto
I Range min         Unset
I Range max         Unset
I Range init        Unset
Bandwidth           8
E2 (V)              0.000
vs.                 Ref
nc cycles           1
Reverse Scan        1
Ef (V)              0.000
vs.                 Eoc

mode	ox/red	error	control changes	counter inc.	time/s	control/V	Ewe/V	<I>/mA	cycle number	(Q-Qo)/C	I Range	step time/s	P/W
2	1	0	0	0	0.000000000000000E+000	0.460734	0.460988	0.0184032	1	0.0000000E+000	41	0.000000000000000E+000	8.48366e-06
2	1	0	1	0	0.2387	0.465506	0.464996	0.0397215	1	7.18434e-06	41	0.2249	1.84703e-05
2	1	0	1	0	0.4886	0.470504	0.470065	0.0558061	1	1.9194e-05	41	0.4748	2.62325e-05
2	1	0	1	0	0.7384	0.4755	0.474993	0.0694606	1	3.48841e-05	41	0.7246	3.29933e-05
2	1	0	1	0	0.9883	0.480499	0.480249	0.0815117	1	5.37801e-05	41	0.9745	3.91459e-05
2	1	0	1	0	1.2382	0.485497	0.485321	0.0921909	1	7.55092e-05	41	1.2244	4.47422e-05
2	1	0	1	0	1.4881	0.490495	0.490231	0.101657	1	9.97511e-05	41	1.4743	4.98353e-05
2	1	0	1	0	1.753	0.495792	0.495502	0.109699	1	0.000127884	41	1.7392	5.43561e-05
2	1	0	1	0	2.0179	0.50109	0.500796	0.117348	1	0.000158173	40	2.0041	5.87673e-05
2	1	0	1	0	2.2677	0.506087	0.505626	0.123782	1	0.000188505	40	2.2539	6.25872e-05
2	1	0	1	0	2.5176	0.511085	0.510688	0.129145	1	0.000220341	40	2.5038	6.59529e-05
2	1	0	1	0	2.7675	0.516083	0.516029	0.133723	1	0.000253444	40	2.7537	6.9005e-05
2	1	0	1	0	3.0174	0.52108	0.520827	0.137804	1	0.000287649	40	3.0036	7.17721e-05
2	1	0	1	0	3.2673	0.526078	0.526011	0.141124	1	0.000322798	40	3.2535	7.42329e-05
2	1	0	1	0	3.5172	0.531076	0.530929	0.144345	1	0.000358772	40	3.5034	7.66368e-05
2	1	0	1	0	3.767	0.536074	0.535944	0.146914	1	0.000395444	40	3.7532	7.87375e-05
2	1	0	1	0	4.0169	0.541071	0.541012	0.149297	1	0.000432734	40	4.0031	8.07715e-05
2	1	0	1	0	4.2668	0.546069	0.545906	0.151166	1	0.000470557	40	4.253	8.25223e-05
2	1	0	1	0	4.5167	0.551067	0.550778	0.153052	1	0.000508842	40	4.5029	8.42979e-05
2	1	0	1	0	4.7666	0.556064	0.555714	0.15451	1	0.000547512	40	4.7528	8.58635e-05
2	1	0	1	0	5.0165	0.561062	0.560664	0.155842	1	0.000586535	40	5.0027	8.73751e-05
2	1	0	1	0	5.2664	0.56606	0.565735	0.157074	1	0.00062585	40	5.2526	8.88623e-05
2	1	0	1	0	5.5162	0.571057	0.570908	0.157908	1	0.000665417	40	5.5024	9.01507e-05
2	1	0	1	0	5.7661	0.576055	0.575841	0.158895	1	0.00070524	40	5.7523	9.14985e-05
2	1	0	1	0	6.016	0.581053	0.580744	0.159947	1	0.00074528	40	6.0022	9.28881e-05
2	1	0	1	0	6.2659	0.58605	0.585717	0.160605	1	0.000785515	40	6.2521	9.40688e-05
2	1	0	1	0	6.5158	0.591048	0.590879	0.161286	1	0.000825921	40	6.502	9.53003e-05
2	1	0	1	0	6.7656	0.596044	0.595699	0.161847	1	0.00086648	40	6.7518	9.64118e-05
2	1	0	1	0	7.0155	0.601043	0.600853	0.162488	1	0.000907186	40	7.0017	9.76315e-05
2	1	0	1	0	7.2654	0.606041	0.605805	0.16297	1	0.000948027	40	7.2516	9.8728e-05
2	1	0	1	0	7.5153	0.611039	0.611075	0.163667	1	0.000988988	40	7.5015	0.000100013
2	1	0	1	0	7.7652	0.616036	0.615847	0.164165	1	0.00103006	40	7.7514	0.000101101
2	1	0	1	0	8.0151	0.621034	0.620759	0.164538	1	0.00107124	40	8.0013	0.000102138
2	1	0	1	0	8.265	0.626032	0.625605	0.165024	1	0.00111253	40	8.2512	0.00010324
2	1	0	1	0	8.5148	0.631029	0.630811	0.165408	1	0.00115392	40	8.501	0.000104341
2	1	0	1	0	8.7647	0.636027	0.6358	0.165904	1	0.00119544	40	8.7509	0.000105482
2	1	0	1	0	9.0146	0.641025	0.64066	0.166656	1	0.00123708	40	9.0008	0.00010677
2	1	0	1	0	9.2645	0.646022	0.645717	0.167141	1	0.00127884	40	9.2507	0.000107926
2	1	0	1	0	9.5144	0.65102	0.650687	0.167713	1	0.00132074	40	9.5006	0.000109129
2	1	0	1	0	9.7643	0.656018	0.655454	0.168305	1	0.00136278	40	9.7505	0.000110316
2	1	0	1	0	10.0142	0.661017	0.660818	0.168896	1	0.00140495	40	10.0004	0.000111609
2	1	0	1	0	10.264	0.666013	0.665846	0.169381	1	0.00144727	40	10.2502	0.000112781
2	1	0	1	0	10.5139	0.671011	0.670757	0.170048	1	0.00148978	40	10.5001	0.000114061
2	1	0	1	0	10.7638	0.676009	0.675861	0.171039	1	0.00153247	40	10.75	0.000115599
2	1	0	1	0	11.0137	0.681006	0.680527	0.172023	1	0.00157538	40	10.9999	0.000117066
2	1	0	1	0	11.2636	0.686004	0.685822	0.172963	1	0.00161852	40	11.2498	0.000118622
2	1	0	1	0	11.5134	0.691001	0.690834	0.174183	1	0.00166194	40	11.4996	0.000120331
2	1	0	1	0	11.7633	0.695999	0.695911	0.175546	1	0.0017057	40	11.7495	0.000122165
2	1	0	1	0	11.9624	0.700023	0.698998	0.178522	1	0.00174083	40	11.9486	0.000124787
2	1	0	1	0	12.201	0.695251	0.69498	0.172252	1	0.00178226	40	12.1872	0.000119712
2	1	0	1	0	12.4509	0.690252	0.690038	0.170263	1	0.00182497	40	12.4371	0.000117488
2	1	0	1	0	12.7008	0.685254	0.68481	0.169119	1	0.00186733	40	12.687	0.000115815
2	1	0	1	0	12.9507	0.680257	0.679942	0.16809	1	0.00190943	40	12.9369	0.000114291
2	1	0	1	0	13.2006	0.675259	0.674817	0.167433	1	0.00195134	40	13.1868	0.000112986
2	1	0	1	0	13.4505	0.670261	0.669922	0.166905	1	0.00199309	40	13.4367	0.000111813
2	1	0	1	0	13.7004	0.665263	0.664747	0.166564	1	0.0020347	40	13.6866	0.000110723
2	1	0	1	0	13.9502	0.660266	0.659978	0.165984	1	0.00207616	40	13.9364	0.000109546
2	1	0	1	0	14.2001	0.655268	0.654998	0.165521	1	0.00211753	40	14.1863	0.000108416
2	1	0	1	0	14.45	0.650271	0.65022	0.165146	1	0.00215881	40	14.4362	0.000107381
2	1	0	1	0	14.6999	0.645273	0.644838	0.164858	1	0.00219998	40	14.6861	0.000106307
2	1	0	1	0	14.9498	0.640275	0.639933	0.164349	1	0.00224104	40	14.936	0.000105172
2	1	0	1	0	15.1996	0.635279	0.635177	0.164171	1	0.00228197	40	15.1858	0.000104278
2	1	0	1	0	15.4495	0.63028	0.630071	0.163609	1	0.00232282	40	15.4357	0.000103085
2	1	0	1	0	15.6994	0.625282	0.6251	0.163338	1	0.00236357	40	15.6856	0.000102102
2	1	0	1	0	15.9493	0.620284	0.620028	0.16293	1	0.0024042	40	15.9355	0.000101021
2	1	0	1	0	16.1992	0.615287	0.614884	0.162362	1	0.00244472	40	16.1854	9.98337e-05
2	1	0	1	0	16.4491	0.610289	0.609826	0.16174	1	0.0024851	40	16.4353	9.86332e-05
2	1	0	1	0	16.699	0.605291	0.604792	0.161159	1	0.00252532	40	16.6852	9.74675e-05
2	1	0	1	0	16.9488	0.600294	0.599967	0.1607	1	0.00256538	40	16.935	9.64148e-05
2	1	0	1	0	17.1987	0.595296	0.595436	0.159718	1	0.00260528	40	17.1849	9.51019e-05
2	1	0	1	0	17.4486	0.590298	0.590046	0.159114	1	0.00264495	40	17.4348	9.38847e-05
2	1	0	1	0	17.6985	0.585301	0.584712	0.158011	1	0.00268439	40	17.6847	9.23908e-05
2	1	0	1	0	17.9484	0.580303	0.579948	0.157232	1	0.00272358	40	17.9346	9.11864e-05
2	1	0	1	0	18.1983	0.575305	0.575049	0.155996	1	0.00276248	40	18.1845	8.97056e-05
2	1	0	1	0	18.4482	0.570306	0.570252	0.154666	1	0.00280105	40	18.4344	8.81986e-05
2	1	0	1	0	18.698	0.56531	0.565255	0.153036	1	0.00283923	40	18.6842	8.65043e-05
2	1	0	1	0	18.9479	0.560312	0.559981	0.151267	1	0.00287698	40	18.9341	8.47069e-05
2	1	0	1	0	19.1978	0.555315	0.554937	0.148979	1	0.00291423	40	19.184	8.26738e-05
2	1	0	1	0	19.4477	0.550317	0.550059	0.146608	1	0.0029509	40	19.4339	8.0643e-05
2	1	0	1	0	19.6976	0.545319	0.545016	0.143669	1	0.00298689	40	19.6838	7.83018e-05
2	1	0	1	0	19.9474	0.540323	0.540072	0.140293	1	0.0030221	40	19.9336	7.57681e-05
2	1	0	1	0	20.1973	0.535324	0.535304	0.136442	1	0.00305643	40	20.1835	7.30378e-05
2	1	0	1	0	20.4472	0.530326	0.530336	0.132084	1	0.00308973	40	20.4334	7.0049e-05
2	1	0	1	0	20.6971	0.525328	0.525161	0.126798	1	0.00312183	40	20.6833	6.65895e-05
2	1	0	1	0	20.947	0.520331	0.520046	0.120822	1	0.00315257	40	20.9332	6.28332e-05
2	1	0	1	0	21.1969	0.515333	0.514896	0.114167	1	0.00318173	40	21.1831	5.87842e-05
2	1	0	1	0	21.4468	0.510335	0.510172	0.106697	1	0.0032091	40	21.433	5.44338e-05
2	1	0	1	0	21.6966	0.505338	0.50503	0.0980262	1	0.00323445	40	21.6828	4.95062e-05
2	1	0	1	0	21.9465	0.50034	0.50003	0.0885801	1	0.00325755	40	21.9327	4.42927e-05
2	1	0	1	0	22.1964	0.495342	0.495149	0.0778714	1	0.00327812	40	22.1826	3.85579e-05
2	1	0	1	0	22.4463	0.490345	0.489987	0.0664306	1	0.00329594	40	22.4325	3.25502e-05
2	1	0	1	0	22.6962	0.485347	0.485368	0.0536858	1	0.00331073	40	22.6824	2.60574e-05
2	1	0	1	0	22.976	0.47975	0.47974	0.0378561	1	0.00332345	41	22.9622	1.81611e-05
2	1	0	1	0	23.2259	0.474752	0.474282	0.0234166	1	0.0033311	41	23.2121	1.11061e-05
2	1	0	1	0	23.4758	0.469754	0.469167	0.00854132	1	0.00333509	41	23.462	4.00731e-06
2	0	0	1	0	23.7257	0.464757	0.464275	-0.00664199	1	0.00333532	41	0.075	-3.08371e-06
2	0	0	1	0	23.9756	0.459759	0.45955	-0.0218906	1	0.00333174	41	0.3249	-1.00598e-05
2	0	0	1	0	24.2255	0.454761	0.454141	-0.0369748	1	0.00332435	41	0.5748	-1.67917e-05
2	0	0	1	0	24.4754	0.449763	0.449787	-0.0517525	1	0.00331324	41	0.8247	-2.32776e-05
2	0	0	1	0	24.7252	0.444766	0.444428	-0.0655634	1	0.00329855	41	1.0745	-2.91382e-05
2	0	0	1	0	24.9751	0.439768	0.439415	-0.0787888	1	0.00328048	41	1.3244	-3.4621e-05
2	0	0	1	0	25.225	0.43477	0.434503	-0.0908498	1	0.00325925	41	1.5743	-3.94746e-05
2	0	0	1	0	25.4749	0.429773	0.429463	-0.101791	1	0.00323515	41	1.8242	-4.37154e-05
2	0	0	1	0	25.7548	0.424175	0.423878	-0.111899	1	0.00320511	40	2.1041	-4.74317e-05
2	0	0	1	0	26.0046	0.419178	0.419062	-0.120514	1	0.00317586	40	2.3539	-5.05031e-05
2	0	0	1	0	26.2545	0.41418	0.413871	-0.128063	1	0.0031446	40	2.6038	-5.30017e-05
2	0	0	1	0	26.5044	0.409182	0.408799	-0.134363	1	0.00311161	40	2.8537	-5.49275e-05
2	0	0	1	0	26.7543	0.404185	0.403872	-0.139961	1	0.00307709	40	3.1036	-5.65262e-05
2	0	0	1	0	27.0042	0.399187	0.398831	-0.14472	1	0.00304128	40	3.3535	-5.77187e-05
2	0	0	1	0	27.2541	0.394189	0.394003	-0.148995	1	0.00300437	40	3.6034	-5.87046e-05
2	0	0	1	0	27.5039	0.389192	0.389005	-0.152536	1	0.0029665	40	3.8532	-5.93372e-05
2	0	0	1	0	27.7538	0.384194	0.383765	-0.155342	1	0.00292782	40	4.1031	-5.96147e-05
2	0	0	1	0	28.0037	0.379196	0.378926	-0.158017	1	0.00288844	40	4.353	-5.98765e-05
2	0	0	1	0	28.2536	0.374199	0.373719	-0.160019	1	0.00284847	40	4.6029	-5.9802e-05
2	0	0	1	0	28.5035	0.369201	0.368785	-0.16198	1	0.002808	40	4.8528	-5.97359e-05
2	0	0	1	0	28.7534	0.364203	0.363908	-0.163563	1	0.00276709	40	5.1027	-5.95218e-05
2	0	0	1	0	29.0032	0.359206	0.359052	-0.16497	1	0.00272583	40	5.3525	-5.92327e-05
2	0	0	1	0	29.2531	0.354208	0.354097	-0.166374	1	0.00268423	40	5.6024	-5.89127e-05
2	0	0	1	0	29.503	0.34921	0.349156	-0.167401	1	0.00264234	40	5.8523	-5.84491e-05
2	0	0	1	0	29.7529	0.344213	0.343887	-0.168145	1	0.0026002	40	6.1022	-5.7823e-05
2	0	0	1	0	30.0028	0.339215	0.338838	-0.169142	1	0.00255783	40	6.3521	-5.73117e-05
2	0	0	1	0	30.2527	0.334217	0.334032	-0.16984	1	0.00251528	40	6.602	-5.67321e-05
2	0	0	1	0	30.5026	0.329219	0.329034	-0.170499	1	0.00247256	40	6.8519	-5.61e-05
2	0	0	1	0	30.7524	0.324222	0.324153	-0.170956	1	0.00242971	40	7.1017	-5.54159e-05
2	0	0	1	0	31.0023	0.319224	0.31927	-0.171546	1	0.00238672	40	7.3516	-5.47694e-05
2	0	0	1	0	31.2522	0.314227	0.314089	-0.171938	1	0.00234361	40	7.6015	-5.40039e-05
2	0	0	1	0	31.5021	0.309229	0.308864	-0.172225	1	0.00230039	40	7.8514	-5.31942e-05
2	0	0	1	0	31.752	0.304231	0.303967	-0.172675	1	0.00225708	40	8.1013	-5.24876e-05
2	0	0	1	0	32.0019	0.299233	0.299173	-0.172979	1	0.00221367	40	8.3512	-5.17507e-05
2	0	0	1	0	32.2517	0.294236	0.293915	-0.1731	1	0.00217019	40	8.601	-5.08767e-05
2	0	0	1	0	32.5016	0.289238	0.288992	-0.17343	1	0.00212662	40	8.8509	-5.01199e-05
2	0	0	1	0	32.7515	0.28424	0.28409	-0.173931	1	0.00208298	40	9.1008	-4.9412e-05
2	0	0	1	0	33.0014	0.279243	0.27887	-0.174001	1	0.00203929	40	9.3507	-4.85236e-05
2	0	0	1	0	33.2513	0.274245	0.273959	-0.174183	1	0.00199555	40	9.6006	-4.77191e-05
2	0	0	1	0	33.5012	0.269247	0.268616	-0.174423	1	0.00195174	40	9.8505	-4.68527e-05
2	0	0	1	0	33.751	0.26425	0.263977	-0.174652	1	0.00190789	40	10.1003	-4.61042e-05
2	0	0	1	0	34.0009	0.259252	0.25892	-0.174588	1	0.00186397	40	10.3502	-4.52043e-05
2	0	0	1	0	34.2508	0.254254	0.253927	-0.175099	1	0.00182002	40	10.6001	-4.44624e-05
2	0	0	1	0	34.5007	0.249257	0.249294	-0.175243	1	0.001776	40	10.85	-4.3687e-05
2	0	0	1	0	34.7506	0.244259	0.244082	-0.175475	1	0.00173196	40	11.0999	-4.28304e-05
2	0	0	1	0	35.0005	0.239261	0.239277	-0.175545	1	0.0016879	40	11.3498	-4.20038e-05
2	0	0	1	0	35.2504	0.234263	0.233595	-0.175425	1	0.00164381	40	11.5997	-4.09785e-05
2	0	0	1	0	35.5002	0.229266	0.229193	-0.175455	1	0.00159972	40	11.8495	-4.02132e-05
2	0	0	1	0	35.7501	0.224268	0.22398	-0.175492	1	0.00155561	40	12.0994	-3.93067e-05
2	0	0	1	0	36	0.219271	0.218878	-0.17536	1	0.00151147	40	12.3493	-3.83824e-05
2	0	0	1	0	36.2499	0.214273	0.214017	-0.175595	1	0.00146732	40	12.5992	-3.75803e-05
2	0	0	1	0	36.4998	0.209275	0.208982	-0.1757	1	0.00142313	40	12.8491	-3.6718e-05
2	0	0	1	0	36.7496	0.204279	0.203962	-0.175474	1	0.00137895	40	13.0989	-3.57901e-05
2	0	0	1	0	36.9995	0.19928	0.199065	-0.175513	1	0.00133473	40	13.3488	-3.49385e-05
2	0	0	1	0	37.2494	0.194282	0.194011	-0.175723	1	0.0012905	40	13.5987	-3.40921e-05
2	0	0	1	0	37.4993	0.189284	0.18909	-0.175761	1	0.00124626	40	13.8486	-3.32346e-05
2	0	0	1	0	37.7492	0.184287	0.184015	-0.175558	1	0.00120201	40	14.0985	-3.23053e-05
2	0	0	1	0	37.9991	0.179289	0.178857	-0.175758	1	0.00115774	40	14.3484	-3.14355e-05
2	0	0	1	0	38.249	0.174291	0.174058	-0.175707	1	0.00111346	40	14.5983	-3.05833e-05
2	0	0	1	0	38.4988	0.169294	0.168909	-0.175987	1	0.00106918	40	14.8481	-2.97259e-05
2	0	0	1	0	38.7487	0.164296	0.164074	-0.175904	1	0.00102487	40	15.098	-2.88612e-05
2	0	0	1	0	38.9986	0.159298	0.158989	-0.175822	1	0.000980524	40	15.3479	-2.79537e-05
2	0	0	1	0	39.2485	0.154301	0.154119	-0.175907	1	0.000936155	40	15.5978	-2.71105e-05
2	0	0	1	0	39.4984	0.149303	0.149097	-0.175687	1	0.000891769	40	15.8477	-2.61943e-05
2	0	0	1	0	39.7483	0.144305	0.144226	-0.175954	1	0.000847385	40	16.0976	-2.53771e-05
2	0	0	1	0	39.9982	0.139306	0.139406	-0.175799	1	0.000802999	40	16.3475	-2.45074e-05
2	0	0	1	0	40.248	0.13431	0.134061	-0.175769	1	0.000758639	40	16.5973	-2.35638e-05
2	0	0	1	0	40.4979	0.129312	0.128918	-0.175896	1	0.000714244	40	16.8472	-2.26762e-05
2	0	0	1	0	40.7478	0.124315	0.124067	-0.175924	1	0.000669836	40	17.0971	-2.18263e-05
2	0	0	1	0	40.9977	0.119317	0.119075	-0.175833	1	0.000625416	40	17.347	-2.09374e-05
2	0	0	1	0	41.2476	0.114319	0.11423	-0.175936	1	0.000580976	40	17.5969	-2.00971e-05
2	0	0	1	0	41.4974	0.109323	0.109219	-0.176192	1	0.000536541	40	17.8467	-1.92436e-05
2	0	0	1	0	41.7473	0.104324	0.104278	-0.176057	1	0.00049207	40	18.0966	-1.83589e-05
2	0	0	1	0	41.9972	0.0993263	0.0990717	-0.176351	1	0.000447612	40	18.3465	-1.74714e-05
2	0	0	1	0	42.2471	0.0943286	0.0941139	-0.176151	1	0.000403152	40	18.5964	-1.65782e-05
2	0	0	1	0	42.497	0.0893309	0.0893261	-0.176211	1	0.000358705	40	18.8463	-1.57403e-05
2	0	0	1	0	42.7469	0.0843332	0.0841181	-0.17615	1	0.000314262	40	19.0962	-1.48174e-05
2	0	0	1	0	42.9968	0.0793356	0.0788176	-0.175992	1	0.000269827	40	19.3461	-1.38713e-05
2	0	0	1	0	43.2466	0.0743379	0.074251	-0.176056	1	0.000225404	40	19.5959	-1.30724e-05
2	0	0	1	0	43.4965	0.0693402	0.0691039	-0.176051	1	0.000180958	40	19.8458	-1.21658e-05
2	0	0	1	0	43.7464	0.0643425	0.0643218	-0.17644	1	0.000136496	40	20.0957	-1.13489e-05
2	0	0	1	0	43.9963	0.0593448	0.0590143	-0.176286	1	9.20214e-05	40	20.3456	-1.04034e-05
2	0	0	1	0	44.2462	0.0543472	0.0541915	-0.176485	1	4.75422e-05	40	20.5955	-9.56402e-06
2	0	0	1	0	44.4961	0.0493495	0.0496636	-0.176703	1	3.05727e-06	40	20.8454	-8.7757e-06
2	0	0	1	0	44.7459	0.0443518	0.0440747	-0.176271	1	-4.14052e-05	40	21.0952	-7.7691e-06
2	0	0	1	0	44.9958	0.0393541	0.0391604	-0.176324	1	-8.58505e-05	40	21.3451	-6.90491e-06
2	0	0	1	0	45.2457	0.0343564	0.0339168	-0.176363	1	-0.000130283	40	21.595	-5.98165e-06
2	0	0	1	0	45.4956	0.0293588	0.0293166	-0.17648	1	-0.000174715	40	21.8449	-5.1738e-06
2	0	0	1	0	45.7455	0.0243611	0.024169	-0.176322	1	-0.000219138	40	22.0948	-4.26153e-06
2	0	0	1	0	45.9954	0.0193634	0.0190527	-0.176387	1	-0.000263557	40	22.3447	-3.36065e-06
2	0	0	1	0	46.2452	0.0143662	0.01404	-0.176538	1	-0.000307963	40	22.5945	-2.47859e-06
2	0	0	1	0	46.4951	0.00936804	0.00925723	-0.176713	1	-0.000352392	40	22.8444	-1.63587e-06
2	0	0	1	0	46.745	0.00437036	0.00420782	-0.176692	1	-0.000396832	40	23.0943	-7.43487e-07
2	0	0	0	1	46.9642	2.60811e-06	-0.000313635	-0.177407	1	-0.000435802	40	23.3135	5.5641e-08
2	0	0	1	1	47.2029	0.00477018	0.00479067	-0.177998	1	-0.000478003	40	23.5522	-8.5273e-07
2	0	0	1	1	47.4528	0.00976786	0.00945488	-0.177683	1	-0.000522141	40	23.8021	-1.67997e-06
2	0	0	1	1	47.7026	0.0147655	0.0142209	-0.177682	1	-0.000566231	40	24.0519	-2.5268e-06
2	0	0	1	1	47.9525	0.0197632	0.0198206	-0.177862	1	-0.000610332	40	24.3018	-3.52533e-06
2	0	0	1	1	48.2024	0.0247609	0.0243582	-0.177527	1	-0.000654426	40	24.5517	-4.32424e-06
2	0	0	1	1	48.4523	0.0297586	0.0294916	-0.177564	1	-0.000698496	40	24.8016	-5.23664e-06
2	0	0	1	1	48.7022	0.0347563	0.0344691	-0.177553	1	-0.000742555	40	25.0515	-6.12008e-06
2	0	0	1	1	48.9521	0.0397539	0.0394758	-0.177726	1	-0.000786609	40	25.3014	-7.01589e-06
2	0	0	1	1	49.202	0.0447534	0.0445628	-0.177661	1	-0.000830653	40	25.5513	-7.91707e-06
2	0	0	1	1	49.4518	0.0497493	0.0495815	-0.177602	1	-0.000874683	40	25.8011	-8.8058e-06
2	0	0	1	1	49.7017	0.054747	0.0545073	-0.17753	1	-0.000918719	40	26.051	-9.67669e-06
2	0	0	1	1	49.9516	0.0597446	0.0595651	-0.177477	1	-0.000962743	40	26.3009	-1.05714e-05
2	0	0	1	1	50.2015	0.0647423	0.0647206	-0.177605	1	-0.00100675	40	26.5508	-1.14947e-05
2	0	0	1	1	50.4514	0.06974	0.0696593	-0.177756	1	-0.00105076	40	26.8007	-1.23823e-05
2	0	0	1	1	50.7012	0.0747368	0.0748105	-0.177704	1	-0.00109476	40	27.0505	-1.32941e-05
2	0	0	1	1	50.9511	0.0797354	0.0793417	-0.177704	1	-0.00113877	40	27.3004	-1.40994e-05
2	0	0	1	1	51.201	0.0847331	0.0845538	-0.177867	1	-0.00118276	40	27.5503	-1.50394e-05
2	0	0	1	1	51.4509	0.0897307	0.0894227	-0.177609	1	-0.00122675	40	27.8002	-1.58823e-05
2	0	0	1	1	51.7008	0.0947284	0.0946379	-0.177457	1	-0.00127072	40	28.0501	-1.67941e-05
2	0	0	1	1	51.9507	0.0997261	0.0994212	-0.177489	1	-0.00131468	40	28.3	-1.76461e-05
2	0	0	1	1	52.2006	0.104724	0.104396	-0.177639	1	-0.00135863	40	28.5499	-1.85449e-05
2	0	0	1	1	52.4504	0.109721	0.109512	-0.177633	1	-0.00140256	40	28.7997	-1.94529e-05
2	0	0	1	1	52.7003	0.114719	0.114228	-0.177672	1	-0.00144651	40	29.0496	-2.02952e-05
2	0	0	1	1	52.9502	0.119717	0.119433	-0.177775	1	-0.00149046	40	29.2995	-2.12322e-05
2	0	0	1	1	53.2001	0.124714	0.12433	-0.177627	1	-0.0015344	40	29.5494	-2.20843e-05
2	0	0	1	1	53.45	0.129712	0.129379	-0.177763	1	-0.00157834	40	29.7993	-2.29988e-05
2	0	0	1	1	53.6999	0.13471	0.134273	-0.177663	1	-0.00162229	40	30.0492	-2.38553e-05
2	0	0	1	1	53.9497	0.139708	0.139354	-0.177585	1	-0.00166623	40	30.299	-2.47472e-05
2	0	0	1	1	54.1996	0.144705	0.144407	-0.17776	1	-0.00171018	40	30.5489	-2.56698e-05
2	0	0	1	1	54.4495	0.149703	0.149562	-0.177843	1	-0.00175411	40	30.7988	-2.65986e-05
2	0	0	1	1	54.6994	0.154701	0.15437	-0.177291	1	-0.00179801	40	31.0487	-2.73683e-05
2	0	0	1	1	54.9493	0.159698	0.159422	-0.177269	1	-0.00184188	40	31.2986	-2.82607e-05
2	0	0	1	1	55.1992	0.164696	0.164442	-0.176981	1	-0.00188572	40	31.5485	-2.91031e-05
2	0	0	1	1	55.449	0.169693	0.16947	-0.176923	1	-0.00192952	40	31.7983	-2.9983e-05
2	0	0	1	1	55.6989	0.174691	0.174374	-0.176692	1	-0.00197331	40	32.0482	-3.08105e-05
2	0	0	1	1	55.9488	0.179689	0.179313	-0.176754	1	-0.00201707	40	32.2981	-3.16943e-05
2	0	0	1	1	56.1987	0.184687	0.184306	-0.176523	1	-0.00206081	40	32.548	-3.25344e-05
2	0	0	1	1	56.4486	0.189684	0.189362	-0.176448	1	-0.00210452	40	32.7979	-3.34126e-05
2	0	0	1	1	56.6985	0.194682	0.194602	-0.176353	1	-0.00214821	40	33.0478	-3.43186e-05
2	0	0	1	1	56.9484	0.199681	0.199787	-0.176194	1	-0.00219187	40	33.2977	-3.52013e-05
2	0	0	1	1	57.1982	0.204677	0.204305	-0.175728	1	-0.00223547	40	33.5475	-3.59022e-05
2	0	0	1	1	57.4481	0.209675	0.209551	-0.175745	1	-0.00227903	40	33.7974	-3.68275e-05
2	0	0	1	1	57.698	0.214673	0.2145	-0.175291	1	-0.00232255	40	34.0473	-3.75999e-05
2	0	0	1	1	57.9479	0.21967	0.21959	-0.175275	1	-0.00236602	40	34.2972	-3.84886e-05
2	0	0	1	1	58.1978	0.224668	0.224411	-0.174896	1	-0.00240944	40	34.5471	-3.92485e-05
2	0	0	1	1	58.4477	0.229666	0.229479	-0.174585	1	-0.0024528	40	34.797	-4.00635e-05
2	0	0	1	1	58.6975	0.234663	0.234291	-0.174334	1	-0.00249609	40	35.0468	-4.08448e-05
2	0	0	1	1	58.9474	0.239661	0.239327	-0.173975	1	-0.00253933	40	35.2967	-4.16369e-05
2	0	0	1	1	59.1973	0.244659	0.244412	-0.173734	1	-0.0025825	40	35.5466	-4.24627e-05
2	0	0	1	1	59.4472	0.249657	0.249471	-0.173603	1	-0.00262559	40	35.7965	-4.33088e-05
2	0	0	1	1	59.6971	0.254654	0.254307	-0.173092	1	-0.00266859	40	36.0464	-4.40186e-05
2	0	0	1	1	59.947	0.259652	0.259636	-0.172647	1	-0.00271149	40	36.2963	-4.48254e-05
2	0	0	1	1	60.1968	0.264649	0.264319	-0.172129	1	-0.00275428	40	36.5461	-4.54968e-05
2	0	0	1	1	60.4467	0.269647	0.269495	-0.171747	1	-0.00279698	40	36.796	-4.62849e-05
2	0	0	1	1	60.6966	0.274645	0.274572	-0.171105	1	-0.00283957	40	37.0459	-4.69808e-05
2	0	0	1	1	60.9465	0.279643	0.2795	-0.170497	1	-0.00288203	40	37.2958	-4.76539e-05
2	0	0	1	1	61.1964	0.28464	0.284413	-0.17018	1	-0.00292436	40	37.5457	-4.84013e-05
2	0	0	1	1	61.4463	0.289638	0.289526	-0.169398	1	-0.00296653	40	37.7956	-4.9045e-05
2	0	0	1	1	61.6962	0.294637	0.294288	-0.168772	1	-0.00300854	40	38.0455	-4.96676e-05
2	0	0	1	1	61.946	0.299633	0.299405	-0.167884	1	-0.00305036	40	38.2953	-5.02653e-05
2	0	0	1	1	62.1959	0.304631	0.304613	-0.167217	1	-0.003092	40	38.5452	-5.09364e-05
2	0	0	1	1	62.4458	0.309629	0.309373	-0.16621	1	-0.00313344	40	38.7951	-5.14207e-05
2	0	0	1	1	62.6957	0.314626	0.314601	-0.165469	1	-0.00317463	40	39.045	-5.20567e-05
2	0	0	1	1	62.9456	0.319624	0.319265	-0.164291	1	-0.00321558	40	39.2949	-5.24524e-05
2	0	0	1	1	63.1954	0.32462	0.324638	-0.163267	1	-0.00325625	40	39.5447	-5.30025e-05
2	0	0	1	1	63.4453	0.329619	0.329447	-0.161922	1	-0.00329665	40	39.7946	-5.33446e-05
2	0	0	1	1	63.6952	0.334617	0.334119	-0.16075	1	-0.00333674	40	40.0445	-5.37097e-05
2	0	0	1	1	63.9451	0.339615	0.339609	-0.15955	1	-0.00337651	40	40.2944	-5.41847e-05
2	0	0	1	1	64.195	0.344612	0.344423	-0.157981	1	-0.00341591	40	40.5443	-5.44122e-05
2	0	0	1	1	64.4449	0.34961	0.349411	-0.156081	1	-0.0034549	40	40.7942	-5.45365e-05
2	0	0	1	1	64.6948	0.354608	0.354555	-0.154011	1	-0.00349343	40	41.0441	-5.46053e-05
2	0	0	1	1	64.9446	0.359605	0.359391	-0.152021	1	-0.00353144	40	41.2939	-5.46351e-05
2	0	0	1	1	65.1945	0.364603	0.364645	-0.149579	1	-0.00356887	40	41.5438	-5.45431e-05
2	0	0	1	1	65.4444	0.369601	0.369214	-0.146604	1	-0.00360564	40	41.7937	-5.41283e-05
2	0	0	1	1	65.6943	0.374598	0.374411	-0.143151	1	-0.00364162	40	42.0436	-5.35973e-05
2	0	0	1	1	65.9442	0.379596	0.379262	-0.139247	1	-0.00367669	40	42.2935	-5.28112e-05
2	0	0	1	1	66.1941	0.384594	0.384335	-0.134761	1	-0.00371072	40	42.5434	-5.17933e-05
2	0	0	1	1	66.444	0.389593	0.389457	-0.129616	1	-0.00374355	40	42.7933	-5.04799e-05
2	0	0	1	1	66.6938	0.394589	0.394269	-0.123636	1	-0.00377498	40	43.0431	-4.87458e-05
2	0	0	1	1	66.9437	0.399587	0.399435	-0.116983	1	-0.00380483	40	43.293	-4.6727e-05
2	0	0	1	1	67.1936	0.404585	0.403801	-0.109232	1	-0.00383289	40	43.5429	-4.41082e-05
2	0	0	1	1	67.4435	0.409582	0.409016	-0.10061	1	-0.00385892	40	43.7928	-4.11513e-05
2	0	0	1	1	67.6934	0.41458	0.414396	-0.0912506	1	-0.00388271	40	44.0427	-3.78138e-05
2	0	0	1	1	67.9432	0.419577	0.419234	-0.0808473	1	-0.00390402	40	44.2925	-3.38939e-05
2	0	0	1	1	68.1931	0.424575	0.424422	-0.0695893	1	-0.00392261	40	44.5424	-2.95352e-05
2	0	0	1	1	68.443	0.429573	0.429144	-0.0571623	1	-0.00393824	40	44.7923	-2.45309e-05
2	0	0	1	1	68.7079	0.43487	0.434991	-0.0430828	1	-0.00395134	40	45.0572	-1.87406e-05
2	0	0	1	1	68.9728	0.440168	0.439951	-0.0278048	1	-0.0039607	41	45.3221	-1.22327e-05
2	0	0	1	1	69.2227	0.445166	0.444942	-0.0134338	1	-0.00396584	41	45.572	-5.97725e-06
2	1	0	1	1	69.4725	0.450163	0.449785	0.00127567	1	-0.00396736	41	0.000000000000000E+000	5.73775e-07
2	1	0	1	1	69.7224	0.455161	0.454823	0.0158104	1	-0.00396521	41	0.2499	7.19092e-06
2	1	0	1	1	69.9723	0.460159	0.459855	0.0304679	2	-0.0039594	41	0.4998	1.40108e-05
2	1	0	1	1	70.2222	0.465156	0.465237	0.0444913	2	-0.00395001	41	0.7497	2.0699e-05
2	1	0	1	1	70.4721	0.470154	0.469762	0.057929	2	-0.00393719	41	0.9996	2.72128e-05
2	1	0	1	1	70.722	0.475152	0.474755	0.0704435	2	-0.00392112	41	1.2495	3.34434e-05
2	1	0	1	1	70.9718	0.480149	0.479912	0.0821622	2	-0.00390201	41	1.4993	3.94307e-05
2	1	0	1	1	71.2217	0.485147	0.484922	0.0927971	2	-0.00388012	41	1.7492	4.49994e-05
2	1	0	1	1	71.4716	0.490145	0.490158	0.102344	2	-0.0038557	41	1.9991	5.01648e-05
2	1	0	1	1	71.7515	0.495742	0.495485	0.11083	2	-0.00382571	40	2.279	5.49147e-05
2	1	0	1	1	72.0014	0.50074	0.500467	0.118195	2	-0.00379683	40	2.5289	5.91528e-05
2	1	0	1	1	72.2512	0.505737	0.505411	0.124521	2	-0.00376625	40	2.7787	6.29341e-05
2	1	0	1	1	72.5011	0.510735	0.510705	0.130106	2	-0.00373416	40	3.0286	6.64459e-05
2	1	0	1	1	72.751	0.515733	0.515329	0.13501	2	-0.00370077	40	3.2785	6.95744e-05
2	1	0	1	1	73.0009	0.520731	0.520537	0.139084	2	-0.00366627	40	3.5284	7.23983e-05
2	1	0	1	1	73.2508	0.525728	0.525276	0.142591	2	-0.00363082	40	3.7783	7.48995e-05
2	1	0	1	1	73.5007	0.530726	0.530398	0.14567	2	-0.00359456	40	4.0282	7.72633e-05
2	1	0	1	1	73.7506	0.535724	0.535501	0.148135	2	-0.00355759	40	4.2781	7.93266e-05
2	1	0	1	1	74.0004	0.540721	0.540112	0.1503	2	-0.00352004	40	4.5279	8.11787e-05
2	1	0	1	1	74.2503	0.545719	0.5454	0.152263	2	-0.00348194	40	4.7778	8.30443e-05
2	1	0	1	1	74.5002	0.550717	0.550066	0.154051	2	-0.0034434	40	5.0277	8.4738e-05
2	1	0	1	1	74.7501	0.555714	0.555598	0.155321	2	-0.00340447	40	5.2776	8.6296e-05
2	1	0	1	1	75	0.560712	0.560236	0.1567	2	-0.00336521	40	5.5275	8.77889e-05
2	1	0	1	1	75.2499	0.56571	0.565288	0.15792	2	-0.00332566	40	5.7774	8.927e-05
2	1	0	1	1	75.4997	0.570707	0.570351	0.158826	2	-0.00328587	40	6.0272	9.05865e-05
2	1	0	1	1	75.7496	0.575705	0.575416	0.159817	2	-0.00324582	40	6.2771	9.19612e-05
2	1	0	1	1	75.9995	0.580703	0.580632	0.16042	2	-0.00320557	40	6.527	9.31448e-05
2	1	0	1	1	76.2494	0.5857	0.585334	0.161202	2	-0.00316514	40	6.7769	9.4357e-05
2	1	0	1	1	76.4993	0.590698	0.590438	0.161897	2	-0.00312458	40	7.0268	9.55903e-05
2	1	0	1	1	76.7492	0.595696	0.595296	0.162688	2	-0.00308387	40	7.2767	9.68477e-05
2	1	0	1	1	76.999	0.600694	0.600331	0.163136	2	-0.00304304	40	7.5265	9.79358e-05
2	1	0	1	1	77.2489	0.605691	0.60569	0.163613	2	-0.00300205	40	7.7764	9.90989e-05
2	1	0	1	1	77.4988	0.610689	0.610284	0.164028	2	-0.00296095	40	8.0263	0.000100104
2	1	0	1	1	77.7487	0.615687	0.615549	0.164518	2	-0.00291974	40	8.2762	0.000101269
2	1	0	1	1	77.9986	0.620684	0.62051	0.164884	2	-0.00287843	40	8.5261	0.000102312
2	1	0	1	1	78.2485	0.625682	0.62527	0.165485	2	-0.00283703	40	8.776	0.000103473
2	1	0	1	1	78.4984	0.63068	0.630373	0.165916	2	-0.00279551	40	9.0259	0.000104589
2	1	0	1	1	78.7482	0.635677	0.635405	0.166439	2	-0.00275391	40	9.2757	0.000105756
2	1	0	1	1	78.9981	0.640675	0.640367	0.166892	2	-0.00271218	40	9.5256	0.000106872
2	1	0	1	1	79.248	0.645673	0.645687	0.167333	2	-0.00267035	40	9.7755	0.000108045
2	1	0	1	1	79.4979	0.65067	0.650312	0.167722	2	-0.0026284	40	10.0254	0.000109072
2	1	0	1	1	79.7478	0.655668	0.655313	0.168369	2	-0.00258634	40	10.2753	0.000110334
2	1	0	1	1	79.9976	0.660664	0.660392	0.168939	2	-0.00254416	40	10.5251	0.000111566
2	1	0	1	1	80.2475	0.665663	0.665345	0.169605	2	-0.00250181	40	10.775	0.000112846
2	1	0	1	1	80.4974	0.670661	0.670598	0.170244	2	-0.0024593	40	11.0249	0.000114165
2	1	0	1	1	80.7473	0.675659	0.675529	0.171009	2	-0.00241661	40	11.2748	0.000115521
2	1	0	1	1	80.9972	0.680656	0.680546	0.17184	2	-0.00237372	40	11.5247	0.000116945
2	1	0	1	1	81.2471	0.685654	0.685349	0.172908	2	-0.00233059	40	11.7746	0.000118502
2	1	0	1	1	81.497	0.690652	0.690287	0.174124	2	-0.00228716	40	12.0245	0.000120195
2	1	0	1	1	81.7468	0.695649	0.695459	0.175738	2	-0.00224341	40	12.2743	0.000122219
2	1	0	0	1	81.963	0.699973	0.700315	0.176674	2	-0.00220524	40	12.4905	0.000123727
2	1	0	1	1	82.1771	0.695749	0.695539	0.172658	2	-0.00216797	40	12.7046	0.00012009
2	1	0	1	1	82.4269	0.690752	0.690456	0.170744	2	-0.00212514	40	12.9544	0.000117891
2	1	0	1	1	82.6768	0.685754	0.685596	0.169457	2	-0.00208268	40	13.2043	0.000116179
2	1	0	1	1	82.9267	0.680756	0.680905	0.168525	2	-0.00204047	40	13.4542	0.00011475
2	1	0	1	1	83.1766	0.675759	0.675584	0.167978	2	-0.00199846	40	13.7041	0.000113483
2	1	0	1	1	83.4265	0.670761	0.670588	0.167394	2	-0.0019566	40	13.954	0.000112252
2	1	0	1	1	83.6764	0.665763	0.665571	0.166854	2	-0.00191487	40	14.2039	0.000111053
2	1	0	1	1	83.9262	0.660766	0.660323	0.166548	2	-0.00187329	40	14.4537	0.000109975
2	1	0	1	1	84.1761	0.655768	0.655383	0.165927	2	-0.00183182	40	14.7036	0.000108746
2	1	0	1	1	84.426	0.65077	0.65051	0.165286	2	-0.00179046	40	14.9535	0.00010752
2	1	0	1	1	84.6759	0.645773	0.645481	0.165013	2	-0.00174924	40	15.2034	0.000106513
2	1	0	1	1	84.9258	0.640775	0.640246	0.164731	2	-0.00170812	40	15.4533	0.000105468
2	1	0	1	1	85.1757	0.635777	0.63547	0.164356	2	-0.00166709	40	15.7032	0.000104443
2	1	0	1	1	85.4256	0.630779	0.630543	0.163806	2	-0.00162616	40	15.9531	0.000103287
2	1	0	1	1	85.6754	0.625782	0.625572	0.163293	2	-0.00158536	40	16.2029	0.000102152
2	1	0	1	1	85.9253	0.620784	0.620505	0.162911	2	-0.00154468	40	16.4528	0.000101087
2	1	0	1	1	86.1752	0.615786	0.61545	0.162415	2	-0.00150413	40	16.7027	9.99584e-05
2	1	0	1	1	86.4251	0.610789	0.610656	0.162037	2	-0.00146372	40	16.9526	9.8949e-05
2	1	0	1	1	86.675	0.605791	0.605522	0.161434	2	-0.00142344	40	17.2025	9.77518e-05
2	1	0	1	1	86.9249	0.600793	0.60078	0.160785	2	-0.00138332	40	17.4524	9.65966e-05
2	1	0	1	1	87.1747	0.595796	0.595484	0.160233	2	-0.00134339	40	17.7022	9.54161e-05
2	1	0	1	1	87.4246	0.590798	0.590497	0.159291	2	-0.00130366	40	17.9521	9.4061e-05
2	1	0	1	1	87.6745	0.5858	0.585409	0.158246	2	-0.00126416	40	18.202	9.26387e-05
2	1	0	1	1	87.9244	0.580803	0.580677	0.157104	2	-0.00122494	40	18.4519	9.12269e-05
2	1	0	1	1	88.1743	0.575805	0.575388	0.15617	2	-0.001186	40	18.7018	8.98582e-05
2	1	0	1	1	88.4242	0.570807	0.570521	0.154772	2	-0.00114738	40	18.9517	8.83004e-05
2	1	0	1	1	88.674	0.56581	0.565499	0.153244	2	-0.00110916	40	19.2015	8.66593e-05
2	1	0	1	1	88.9239	0.560812	0.560622	0.151346	2	-0.00107137	40	19.4514	8.48481e-05
2	1	0	1	1	89.1738	0.555814	0.55542	0.149154	2	-0.00103408	40	19.7013	8.28429e-05
2	1	0	1	1	89.4237	0.550817	0.550795	0.146666	2	-0.000997373	40	19.9512	8.07829e-05
2	1	0	1	1	89.6736	0.545819	0.545388	0.143907	2	-0.00096133	40	20.2011	7.84852e-05
2	1	0	1	1	89.9235	0.540821	0.54039	0.140689	2	-0.000926042	40	20.451	7.60269e-05
2	1	0	1	1	90.1734	0.535822	0.535496	0.136833	2	-0.000891647	40	20.7009	7.32733e-05
2	1	0	1	1	90.4232	0.530826	0.530548	0.132501	2	-0.000858284	40	20.9507	7.02983e-05
2	1	0	1	1	90.6731	0.525828	0.525371	0.127455	2	-0.000826083	40	21.2006	6.69614e-05
2	1	0	1	1	90.923	0.520831	0.52052	0.121559	2	-0.000795227	40	21.4505	6.32738e-05
2	1	0	1	1	91.1729	0.515833	0.515492	0.115049	2	-0.000765918	40	21.7004	5.93071e-05
2	1	0	1	1	91.4228	0.510835	0.510876	0.107445	2	-0.000738358	40	21.9503	5.48913e-05
2	1	0	1	1	91.6726	0.505839	0.505393	0.0989332	2	-0.000712791	40	22.2001	5.00002e-05
2	1	0	1	1	91.9225	0.50084	0.500583	0.089684	2	-0.000689448	40	22.45	4.48943e-05
2	1	0	1	1	92.1724	0.495842	0.495491	0.0790499	2	-0.000668576	40	22.6999	3.91685e-05
2	1	0	1	1	92.4223	0.490844	0.490579	0.067517	2	-0.000650441	40	22.9498	3.31225e-05
2	1	0	1	1	92.6722	0.485847	0.485411	0.055167	2	-0.000635299	40	23.1997	2.67787e-05
2	1	0	1	1	92.9521	0.480249	0.479703	0.0394134	2	-0.000622136	41	23.4796	1.89067e-05
2	1	0	1	1	93.2019	0.475252	0.475346	0.0249376	2	-0.000614098	41	23.7294	1.1854e-05
2	1	0	1	1	93.4518	0.470254	0.470177	0.0102576	2	-0.000609696	41	23.9793	4.82291e-06
2	0	0	1	1	93.7017	0.465256	0.46494	-0.00492223	2	-0.000609037	41	0.05	-2.28854e-06
2	0	0	1	1	93.9516	0.460259	0.460152	-0.0201143	2	-0.00061219	41	0.2999	-9.25566e-06
2	0	0	1	1	94.2015	0.455261	0.454993	-0.0353233	2	-0.000619151	41	0.5498	-1.60718e-05
2	0	0	1	1	94.4514	0.450263	0.449693	-0.0499994	2	-0.000629844	41	0.7997	-2.24844e-05
2	0	0	1	1	94.7012	0.445266	0.44506	-0.0641042	2	-0.000644126	41	1.0495	-2.85302e-05
2	0	0	1	1	94.9511	0.440268	0.440193	-0.0773328	2	-0.000661814	41	1.2994	-3.40413e-05
2	0	0	1	1	95.201	0.43527	0.435122	-0.0895636	2	-0.000682684	41	1.5493	-3.89711e-05
2	0	0	1	1	95.4509	0.430273	0.430033	-0.100595	2	-0.000706458	41	1.7992	-4.32592e-05
2	0	0	1	1	95.7308	0.424675	0.424332	-0.110685	2	-0.00073618	40	2.0791	-4.69674e-05
2	0	0	1	1	95.9806	0.419679	0.41934	-0.11949	2	-0.000765151	40	2.3289	-5.0107e-05
2	0	0	1	1	96.2305	0.41468	0.414598	-0.127025	2	-0.000796187	40	2.5788	-5.26641e-05
2	0	0	1	1	96.4804	0.409682	0.409235	-0.133806	2	-0.000829003	40	2.8287	-5.47583e-05
2	0	0	1	1	96.7303	0.404684	0.404363	-0.139412	2	-0.000863369	40	3.0786	-5.63731e-05
2	0	0	1	1	96.9802	0.399687	0.399293	-0.144443	2	-0.000899068	40	3.3285	-5.76751e-05
2	0	0	1	1	97.2301	0.394689	0.394409	-0.148497	2	-0.000935905	40	3.5784	-5.85684e-05
2	0	0	1	1	97.48	0.389691	0.389294	-0.152217	2	-0.000973707	40	3.8283	-5.92571e-05
2	0	0	1	1	97.7298	0.384694	0.384719	-0.155352	2	-0.00101232	40	4.0781	-5.97669e-05
2	0	0	1	1	97.9797	0.379696	0.379384	-0.15775	2	-0.00105166	40	4.328	-5.98477e-05
2	0	0	1	1	98.2296	0.374698	0.374293	-0.160061	2	-0.0010916	40	4.5779	-5.99098e-05
2	0	0	1	1	98.4795	0.369701	0.369375	-0.162037	2	-0.00113207	40	4.8278	-5.98524e-05
2	0	0	1	1	98.7294	0.364703	0.364667	-0.163816	2	-0.001173	40	5.0777	-5.97383e-05
2	0	0	1	1	98.9793	0.359705	0.359353	-0.165225	2	-0.00121433	40	5.3276	-5.93741e-05
2	0	0	1	1	99.2291	0.354708	0.354121	-0.166401	2	-0.00125599	40	5.5774	-5.8926e-05
2	0	0	1	1	99.479	0.34971	0.349442	-0.167708	2	-0.00129797	40	5.8273	-5.86041e-05
2	0	0	1	1	99.7289	0.344712	0.344597	-0.168612	2	-0.0013402	40	6.0772	-5.81033e-05
2	0	0	1	1	99.9788	0.339715	0.339392	-0.169212	2	-0.00138266	40	6.3271	-5.74291e-05
2	0	0	1	1	100.229	0.334717	0.334664	-0.170132	2	-0.00142529	40	6.577	-5.69369e-05
2	0	0	1	1	100.479	0.329719	0.329502	-0.170717	2	-0.00146808	40	6.8269	-5.62515e-05
2	0	0	1	1	100.728	0.324723	0.324516	-0.171477	2	-0.00151101	40	7.0767	-5.56469e-05
2	0	0	1	1	100.978	0.319724	0.319539	-0.171954	2	-0.00155412	40	7.3266	-5.49461e-05
2	0	0	1	1	101.228	0.314726	0.31469	-0.17252	2	-0.00159736	40	7.5765	-5.42904e-05
2	0	0	1	1	101.478	0.309729	0.309417	-0.172772	2	-0.00164072	40	7.8264	-5.34585e-05
2	0	0	1	1	101.728	0.304731	0.304579	-0.173239	2	-0.00168419	40	8.0763	-5.27649e-05
2	0	0	1	1	101.978	0.299733	0.299437	-0.173594	2	-0.00172774	40	8.3262	-5.19805e-05
2	0	0	1	1	102.228	0.294735	0.294297	-0.173816	2	-0.00177138	40	8.5761	-5.11535e-05
2	0	0	1	1	102.478	0.289738	0.289692	-0.174141	2	-0.00181507	40	8.8259	-5.04474e-05
2	0	0	1	1	102.727	0.28474	0.284311	-0.17438	2	-0.00185883	40	9.0758	-4.95783e-05
2	0	0	1	1	102.977	0.279742	0.279444	-0.174727	2	-0.00190265	40	9.3257	-4.88265e-05
2	0	0	1	1	103.227	0.274745	0.274643	-0.174544	2	-0.00194652	40	9.5756	-4.79374e-05
2	0	0	1	1	103.477	0.269747	0.269546	-0.174838	2	-0.00199045	40	9.8255	-4.71268e-05
2	0	0	1	1	103.727	0.264749	0.264612	-0.175192	2	-0.00203442	40	10.0754	-4.63578e-05
2	0	0	1	1	103.977	0.259752	0.259482	-0.175184	2	-0.00207843	40	10.3252	-4.54571e-05
2	0	0	1	1	104.227	0.254754	0.254705	-0.1754	2	-0.00212248	40	10.5751	-4.46751e-05
2	0	0	1	1	104.477	0.249756	0.249558	-0.175469	2	-0.00216655	40	10.825	-4.37896e-05
2	0	0	1	1	104.727	0.244759	0.244511	-0.175641	2	-0.00221065	40	11.0749	-4.29461e-05
2	0	0	1	1	104.976	0.239761	0.239457	-0.175725	2	-0.0022548	40	11.3248	-4.20786e-05
2	0	0	1	1	105.226	0.234763	0.234355	-0.175822	2	-0.00229898	40	11.5747	-4.12047e-05
2	0	0	1	1	105.476	0.229766	0.229425	-0.17585	2	-0.00234319	40	11.8245	-4.03445e-05
2	0	0	1	1	105.726	0.224768	0.224548	-0.175993	2	-0.00238744	40	12.0744	-3.95189e-05
2	0	0	1	1	105.976	0.21977	0.219631	-0.176093	2	-0.00243172	40	12.3243	-3.86755e-05
2	0	0	1	1	106.226	0.214773	0.214512	-0.176226	2	-0.00247604	40	12.5742	-3.78025e-05
2	0	0	1	1	106.476	0.209775	0.209383	-0.176097	2	-0.00252037	40	12.8241	-3.68719e-05
2	0	0	1	1	106.726	0.204777	0.204817	-0.176119	2	-0.00256471	40	13.074	-3.60721e-05
2	0	0	1	1	106.976	0.199779	0.199701	-0.176134	2	-0.00260907	40	13.3239	-3.51741e-05
2	0	0	1	1	107.225	0.194782	0.194316	-0.176167	2	-0.00265342	40	13.5737	-3.4232e-05
2	0	0	1	1	107.475	0.189784	0.189492	-0.176333	2	-0.00269779	40	13.8236	-3.34136e-05
2	0	0	1	1	107.725	0.184787	0.184702	-0.176194	2	-0.00274216	40	14.0735	-3.25435e-05
2	0	0	1	1	107.975	0.179789	0.179539	-0.176221	2	-0.00278655	40	14.3234	-3.16386e-05
2	0	0	1	1	108.225	0.174791	0.174475	-0.176268	2	-0.00283095	40	14.5733	-3.07544e-05
2	0	0	1	1	108.475	0.169795	0.169487	-0.176003	2	-0.00287535	40	14.8231	-2.98302e-05
2	0	0	1	1	108.725	0.164796	0.164659	-0.176102	2	-0.00291979	40	15.073	-2.89967e-05
2	0	0	1	1	108.975	0.159798	0.159582	-0.176315	2	-0.00296425	40	15.3229	-2.81367e-05
2	0	0	1	1	109.224	0.154801	0.154531	-0.176382	2	-0.00300874	40	15.5728	-2.72564e-05
2	0	0	1	1	109.474	0.149803	0.149753	-0.176316	2	-0.00305324	40	15.8227	-2.64037e-05
2	0	0	1	1	109.724	0.144805	0.144511	-0.176235	2	-0.00309776	40	16.0726	-2.54679e-05
2	0	0	1	1	109.974	0.139807	0.139404	-0.176211	2	-0.00314227	40	16.3225	-2.45647e-05
2	0	0	1	1	110.224	0.13481	0.134462	-0.176268	2	-0.00318675	40	16.5723	-2.37013e-05
2	0	0	1	1	110.474	0.129812	0.129455	-0.176154	2	-0.00323124	40	16.8222	-2.28041e-05
2	0	0	1	1	110.724	0.124814	0.124758	-0.176108	2	-0.00327571	40	17.0721	-2.19709e-05
2	0	0	1	1	110.974	0.119817	0.119616	-0.176011	2	-0.00332017	40	17.322	-2.10538e-05
2	0	0	1	1	111.224	0.114819	0.114479	-0.176099	2	-0.00336461	40	17.5719	-2.01596e-05
2	0	0	1	1	111.473	0.109821	0.10925	-0.175903	2	-0.00340908	40	17.8218	-1.92175e-05
2	0	0	1	1	111.723	0.104822	0.104935	-0.176257	2	-0.00345357	40	18.0717	-1.84955e-05
2	0	0	1	1	111.973	0.099826	0.0996877	-0.176113	2	-0.00349804	40	18.3215	-1.75563e-05
2	0	0	1	1	112.223	0.0948284	0.094467	-0.176072	2	-0.00354254	40	18.5714	-1.6633e-05
2	0	0	1	1	112.473	0.0898307	0.0895381	-0.176318	2	-0.00358704	40	18.8213	-1.57872e-05
2	0	0	1	1	112.723	0.084833	0.0843408	-0.176198	2	-0.00363154	40	19.0712	-1.48607e-05
2	0	0	1	1	112.973	0.0798353	0.0797472	-0.176435	2	-0.00367604	40	19.3211	-1.40702e-05
2	0	0	1	1	113.223	0.074839	0.0746978	-0.176228	2	-0.00372051	40	19.5709	-1.31638e-05
2	0	0	1	1	113.472	0.06984	0.0697996	-0.176319	2	-0.00376501	40	19.8208	-1.2307e-05
2	0	0	1	1	113.722	0.0648423	0.0647043	-0.176312	2	-0.0038095	40	20.0707	-1.14081e-05
2	0	0	1	1	113.972	0.0598446	0.0595338	-0.176314	2	-0.00385398	40	20.3206	-1.04966e-05
2	0	0	1	1	114.222	0.0548469	0.0546389	-0.176465	2	-0.00389847	40	20.5705	-9.64186e-06
2	0	0	1	1	114.472	0.0498492	0.0496334	-0.176295	2	-0.00394294	40	20.8204	-8.75011e-06
2	0	0	1	1	114.722	0.0448516	0.0444206	-0.176401	2	-0.00398741	40	21.0703	-7.83585e-06
2	0	0	1	1	114.972	0.0398539	0.0394489	-0.17643	2	-0.00403187	40	21.3201	-6.95996e-06
2	0	0	1	1	115.222	0.0348562	0.0345979	-0.176691	2	-0.00407634	40	21.57	-6.11314e-06
2	0	0	1	1	115.472	0.0298585	0.0297187	-0.176582	2	-0.00412081	40	21.8199	-5.24779e-06
2	0	0	1	1	115.721	0.0248608	0.0248899	-0.176753	2	-0.00416529	40	22.0698	-4.39936e-06
2	0	0	1	1	115.971	0.0198632	0.0195863	-0.176755	2	-0.00420977	40	22.3197	-3.46199e-06
2	0	0	1	1	116.221	0.0148655	0.0148869	-0.176756	2	-0.00425424	40	22.5696	-2.63136e-06
2	0	0	1	1	116.471	0.00986781	0.00972094	-0.176962	2	-0.00429872	40	22.8194	-1.72024e-06
2	0	0	1	1	116.721	0.00487013	0.00444286	-0.176959	2	-0.00434321	40	23.0693	-7.86205e-07
2	0	0	1	1	116.961	7.23571e-05	-0.000655312	-0.176982	2	-0.00438592	40	23.3092	1.15978e-07
2	0	0	1	0	117.179	0.00427041	0.00405924	-0.178181	2	-0.00442453	40	23.5272	-7.23281e-07
2	0	0	1	0	117.429	0.00926809	0.00923237	-0.178361	2	-0.00446876	40	23.7771	-1.64669e-06
2	0	0	1	0	117.679	0.014264	0.0140226	-0.177902	2	-0.00451297	40	24.0269	-2.49464e-06
2	0	0	1	0	117.928	0.0192634	0.0190079	-0.178187	2	-0.00455721	40	24.2768	-3.38695e-06
2	0	0	1	0	118.178	0.0242611	0.0242354	-0.178249	2	-0.00460142	40	24.5267	-4.31993e-06
2	0	0	1	0	118.428	0.0292588	0.0289746	-0.178035	2	-0.00464561	40	24.7766	-5.1585e-06
2	0	0	1	0	118.678	0.0342565	0.0340802	-0.1781	2	-0.00468979	40	25.0265	-6.06966e-06
2	0	0	1	0	118.928	0.0392542	0.039043	-0.178068	2	-0.00473397	40	25.2764	-6.95232e-06
2	0	0	1	0	119.178	0.0442518	0.0440081	-0.178065	2	-0.00477815	40	25.5263	-7.83631e-06
2	0	0	1	0	119.428	0.0492495	0.0486453	-0.17814	2	-0.00482232	40	25.7761	-8.66564e-06
2	0	0	1	0	119.678	0.0542472	0.0541527	-0.178229	2	-0.0048665	40	26.026	-9.6516e-06
2	0	0	1	0	119.928	0.0592449	0.0588787	-0.178198	2	-0.00491069	40	26.2759	-1.04921e-05
2	0	0	1	0	120.177	0.0642426	0.0635999	-0.178165	2	-0.00495487	40	26.5258	-1.13313e-05
2	0	0	1	0	120.427	0.0692402	0.0691796	-0.178172	2	-0.00499905	40	26.7757	-1.23258e-05
2	0	0	1	0	120.677	0.0742379	0.0739911	-0.17834	2	-0.00504324	40	27.0256	-1.31955e-05
2	0	0	1	0	120.927	0.0792374	0.0792627	-0.178282	2	-0.00508741	40	27.2755	-1.41311e-05
2	0	0	1	0	121.177	0.0842333	0.0840418	-0.178154	2	-0.00513155	40	27.5253	-1.49724e-05
2	0	0	1	0	121.427	0.089231	0.0890447	-0.178117	2	-0.0051757	40	27.7752	-1.58604e-05
2	0	0	1	0	121.677	0.0942286	0.0939791	-0.178312	2	-0.00521982	40	28.0251	-1.67576e-05
2	0	0	1	0	121.927	0.0992263	0.0987372	-0.178018	2	-0.00526391	40	28.275	-1.7577e-05
2	0	0	1	0	122.177	0.104224	0.10382	-0.177923	2	-0.00530798	40	28.5249	-1.84719e-05
2	0	0	1	0	122.426	0.109221	0.109036	-0.178086	2	-0.00535201	40	28.7747	-1.94178e-05
2	0	0	1	0	122.676	0.114219	0.113997	-0.17801	2	-0.00539602	40	29.0246	-2.02927e-05
2	0	0	1	0	122.926	0.119217	0.118887	-0.177662	2	-0.00544001	40	29.2745	-2.11216e-05
2	0	0	1	0	123.176	0.124215	0.124033	-0.177678	2	-0.00548397	40	29.5244	-2.20379e-05
2	0	0	1	0	123.426	0.129212	0.12889	-0.177701	2	-0.00552792	40	29.7743	-2.29039e-05
2	0	0	1	0	123.676	0.13421	0.134017	-0.177669	2	-0.00557186	40	30.0242	-2.38106e-05
2	0	0	1	0	123.926	0.139208	0.138882	-0.177673	2	-0.00561581	40	30.2741	-2.46756e-05
2	0	0	1	0	124.176	0.144205	0.144201	-0.177406	2	-0.00565973	40	30.5239	-2.55822e-05
2	0	0	1	0	124.425	0.149203	0.149226	-0.17761	2	-0.00570366	40	30.7738	-2.65041e-05
2	0	0	1	0	124.675	0.154201	0.153557	-0.177455	2	-0.00574758	40	31.0237	-2.72494e-05
2	0	0	1	0	124.925	0.159198	0.15877	-0.177468	2	-0.00579148	40	31.2736	-2.81765e-05
2	0	0	1	0	125.175	0.164196	0.163844	-0.177244	2	-0.00583538	40	31.5235	-2.90404e-05
2	0	0	1	0	125.425	0.169194	0.168872	-0.177001	2	-0.00587924	40	31.7734	-2.98906e-05
2	0	0	1	0	125.675	0.174191	0.17392	-0.176769	2	-0.00592305	40	32.0232	-3.07437e-05
2	0	0	1	0	125.925	0.179189	0.17896	-0.176657	2	-0.0059668	40	32.2731	-3.16146e-05
2	0	0	1	0	126.175	0.184187	0.184048	-0.176431	2	-0.0060105	40	32.523	-3.24717e-05
2	0	0	1	0	126.425	0.189185	0.188813	-0.176188	2	-0.00605415	40	32.7729	-3.32667e-05
2	0	0	1	0	126.674	0.194182	0.193728	-0.175725	2	-0.00609774	40	33.0228	-3.40429e-05
2	0	0	1	0	126.924	0.19918	0.199034	-0.175553	2	-0.00614128	40	33.2727	-3.4941e-05
2	0	0	1	0	127.174	0.204177	0.204095	-0.175387	2	-0.00618475	40	33.5225	-3.57958e-05
2	0	0	1	0	127.424	0.209175	0.208798	-0.175118	2	-0.00622822	40	33.7724	-3.65642e-05
2	0	0	1	0	127.674	0.214173	0.213777	-0.174912	2	-0.00627164	40	34.0223	-3.73922e-05
2	0	0	1	0	127.924	0.219171	0.218993	-0.17489	2	-0.00631503	40	34.2722	-3.82996e-05
2	0	0	1	0	128.174	0.224168	0.223739	-0.174454	2	-0.00635837	40	34.5221	-3.90323e-05
2	0	0	1	0	128.424	0.229166	0.228724	-0.174216	2	-0.00640166	40	34.772	-3.98473e-05
2	0	0	1	0	128.674	0.234165	0.233719	-0.174048	2	-0.00644489	40	35.0219	-4.06783e-05
2	0	0	1	0	128.923	0.239161	0.238903	-0.173853	2	-0.00648803	40	35.2717	-4.1534e-05
2	0	0	1	0	129.173	0.244159	0.243857	-0.173238	2	-0.0065311	40	35.5216	-4.22452e-05
2	0	0	1	0	129.423	0.249157	0.249081	-0.173142	2	-0.00657408	40	35.7715	-4.31265e-05
2	0	0	1	0	129.673	0.254154	0.253936	-0.172399	2	-0.00661697	40	36.0214	-4.37785e-05
2	0	0	1	0	129.923	0.259152	0.258857	-0.172154	2	-0.00665975	40	36.2713	-4.45634e-05
2	0	0	1	0	130.173	0.26415	0.263909	-0.171745	2	-0.00670244	40	36.5212	-4.5325e-05
2	0	0	1	0	130.423	0.269147	0.268854	-0.171309	2	-0.006745	40	36.771	-4.6057e-05
2	0	0	1	0	130.673	0.274145	0.273753	-0.170764	2	-0.00678748	40	37.0209	-4.67471e-05
2	0	0	1	0	130.922	0.279143	0.278923	-0.170207	2	-0.00682983	40	37.2708	-4.74749e-05
2	0	0	1	0	131.172	0.28414	0.283738	-0.169722	2	-0.00687205	40	37.5207	-4.81565e-05
2	0	0	1	0	131.422	0.289138	0.289341	-0.169026	2	-0.00691412	40	37.7706	-4.8906e-05
2	0	0	1	0	131.672	0.294136	0.294023	-0.168258	2	-0.00695602	40	38.0205	-4.94717e-05
2	0	0	1	0	131.922	0.299133	0.298921	-0.167566	2	-0.00699773	40	38.2703	-5.00891e-05
2	0	0	1	0	132.172	0.304131	0.303845	-0.166714	2	-0.00703924	40	38.5202	-5.06552e-05
2	0	0	1	0	132.422	0.309129	0.308897	-0.165923	2	-0.00708055	40	38.7701	-5.12531e-05
2	0	0	1	0	132.672	0.314127	0.3137	-0.165052	2	-0.00712164	40	39.02	-5.17766e-05
2	0	0	1	0	132.922	0.319124	0.319063	-0.163979	2	-0.00716251	40	39.2699	-5.23198e-05
2	0	0	1	0	133.171	0.324122	0.324207	-0.163055	2	-0.00720311	40	39.5198	-5.28634e-05
2	0	0	1	0	133.421	0.329121	0.328936	-0.161784	2	-0.00724345	40	39.7697	-5.32165e-05
2	0	0	1	0	133.671	0.334117	0.333897	-0.16069	2	-0.00728348	40	40.0195	-5.36538e-05
2	0	0	1	0	133.921	0.339115	0.339103	-0.159301	2	-0.00732322	40	40.2694	-5.40194e-05
2	0	0	1	0	134.171	0.344113	0.343776	-0.157806	2	-0.00736259	40	40.5193	-5.42498e-05
2	0	0	1	0	134.421	0.34911	0.348902	-0.156115	2	-0.00740157	40	40.7692	-5.4469e-05
2	0	0	1	0	134.671	0.354108	0.353971	-0.154135	2	-0.00744009	40	41.0191	-5.45594e-05
2	0	0	1	0	134.921	0.359104	0.358952	-0.15191	2	-0.0074781	40	41.2689	-5.45283e-05
2	0	0	1	0	135.17	0.364103	0.363855	-0.149521	2	-0.00751554	40	41.5188	-5.44039e-05
2	0	0	1	0	135.42	0.369101	0.368727	-0.14665	2	-0.00755231	40	41.7687	-5.40737e-05
2	0	0	1	0	135.67	0.374099	0.373987	-0.143273	2	-0.00758831	40	42.0186	-5.3582e-05
2	0	0	1	0	135.92	0.379096	0.379141	-0.139553	2	-0.00762342	40	42.2685	-5.29101e-05
2	0	0	1	0	136.17	0.384094	0.383949	-0.135153	2	-0.00765749	40	42.5184	-5.18921e-05
2	0	0	1	0	136.42	0.389092	0.38863	-0.129935	2	-0.00769037	40	42.7683	-5.04967e-05
2	0	0	1	0	136.67	0.394089	0.393701	-0.123974	2	-0.00772188	40	43.0181	-4.88088e-05
2	0	0	1	0	136.92	0.399087	0.398798	-0.117304	2	-0.00775184	40	43.268	-4.67806e-05
2	0	0	1	0	137.17	0.404085	0.403732	-0.109763	2	-0.00778003	40	43.5179	-4.43149e-05
2	0	0	1	0	137.419	0.409082	0.408784	-0.101351	2	-0.00780621	40	43.7678	-4.14307e-05
2	0	0	1	0	137.669	0.41408	0.413761	-0.0918568	2	-0.00783015	40	44.0177	-3.80067e-05
2	0	0	1	0	137.919	0.419078	0.418786	-0.0814576	2	-0.00785163	40	44.2676	-3.41133e-05
2	0	0	1	0	138.169	0.424077	0.423605	-0.070082	2	-0.00787041	40	44.5175	-2.96871e-05
2	0	0	1	0	138.419	0.429073	0.428822	-0.0579318	2	-0.00788625	40	44.7673	-2.48424e-05
2	0	0	1	0	138.669	0.434071	0.433946	-0.0449355	2	-0.00789895	40	45.0172	-1.94996e-05
2	0	0	1	0	138.949	0.439668	0.43922	-0.0289269	2	-0.00790926	41	45.2971	-1.27053e-05
2	0	0	1	0	139.199	0.444666	0.44425	-0.0145875	2	-0.00791471	41	45.547	-6.4805e-06
2	0	0	1	0	139.449	0.449664	0.449225	-5.90067e-05	2	-0.00791654	41	45.7969	-2.65073e-08
2	1	0	1	0	139.698	0.454661	0.454606	0.0146519	2	-0.00791471	41	0.2249	6.66084e-06
2	1	0	0	0	139.883	0.458385	0.458205	0.0253193	2	-0.00791103	41	0.4093	1.16014e-05