File: Python/Data/GoldElectrode/240319/Gold/240319-CVEIS_Activation-0p5H2SO4-Ag_AgCl_BLF8-Au_RDE-80cycles_06_PEIS_C15.mpt
EC-Lab ASCII FILE
Nb header lines : 66

Potentio Electrochemical Impedance Spectroscopy

Run on channel : 15 (SN 19485)
User :
Electrode connection : standard
Potential control : Ewe
Ewe ctrl range : min = -2.50 V, max = 2.50 V
Ewe,I filtering : 50 kHz
Safety Limits :
	Do not start on E overload
Channel : Floating
Acquisition started on : 03/19/2024 13:27:19.036
Loaded Setting File :  C:\Data\mathias\GoldElectrode\240313-CVEIS_Activation-0p5H2SO4-Ag_AgCl_BLF8-Au_RDE-80cycles.mps
Saved on :
	File : 240319-CVEIS_Activation-0p5H2SO4-Ag_AgCl_BLF8-Au_RDE-80cycles_06_PEIS_C15.mpr
	Directory : C:\Data\mathias\GoldElectrode\
	Host : 192.168.0.1
Device : VMP-300 (SN 0826)
Address : USB
EC-Lab for windows v11.52 (software)
Internet server v11.52 (firmware)
Command interpretor v11.52 (firmware)
Electrode material :
Initial state :
Electrolyte :
Comments :
Cable : special
Electrode surface area : 0.001 cm²
Characteristic mass : 0.001 g
Equivalent Weight : 0.000 g/eq.
Density : 0.000 g/cm3
Volume (V) : 0.001 cm³
Record EIS quality indicators
Cycle Definition : Charge/Discharge alternance
Mode                Single sine
E (V)               0.0000
vs.                 Eoc
tE (h:m:s)          0:00:0.0000
record              0
dI                  0.000
unit dI             mA
dt (s)              0.000
fi                  100.000
unit fi             kHz
ff                  100.000
unit ff             Hz
Nd                  10
Points              per decade
spacing             Logarithmic
Va (mV)             5.0
pw                  0.10
Na                  2
corr                0
E range min (V)     -2.500
E range max (V)     2.500
I Range             Auto
Bandwidth           8
nc cycles           0
goto Ns'            0
nr cycles           0
inc. cycle          0

freq/Hz	Re(Z)/Ohm	-Im(Z)/Ohm	|Z|/Ohm	Phase(Z)/deg	time/s	<Ewe>/V	<I>/mA	Cs/µF	Cp/µF	cycle number	I Range	|Ewe|/V	|I|/A	Ns	(Q-Qo)/mA.h	THD Ewe/%	NSD Ewe/%	NSR Ewe/%	|Ewe h2|/V	|Ewe h3|/V	|Ewe h4|/V	|Ewe h5|/V	|Ewe h6|/V	|Ewe h7|/V	THD I/%	NSD I/%	NSR I/%	|I h2|/A	|I h3|/A	|I h4|/A	|I h5|/A	|I h6|/A	|I h7|/A	Re(Y)/Ohm-1	Im(Y)/Ohm-1	|Y|/Ohm-1	Phase(Y)/deg	Re(C)/nF	Im(C)/nF	|C|/nF	Phase(C)/deg	Re(M)	Im(M)	|M|	Phase(M)/deg	Re(Permittivity)	Im(Permittivity)	|Permittivity|	Phase(Permittivity)/deg	Re(Resistivity)/Ohm.cm	Im(Resistivity)/Ohm.cm	|Resistivity|/Ohm.cm	Phase(Resistivity)/deg	Re(Conductivity)/mS/cm	Im(Conductivity)/mS/cm	|Conductivity|/mS/cm	Phase(Conductivity)/deg	Tan(Delta)	Loss Angle(Delta)/deg	dq/mA.h
100004	7.60331	0.599291	7.62689	-4.50672	776.068	0.631081	-0.0177334	2.65562	0.0163963	1	38	0.00478025	0.000626762	0	-4.57166e-06	4.33659	1.48602	78.6719	4.88474e-05	0.000149142	3.43189e-05	8.38644e-05	5.84095e-05	7.09271e-05	0.30507	0.157356	6.1578	3.23946e-07	1.41946e-06	5.6029e-07	6.36025e-07	5.79694e-07	3.29935e-07	0.13071	0.0103025	0.131115	4.50672	16.3963	208.023	208.668	-85.4933	0.0000000E+000	0.0000000E+000	0.0000000E+000	85.4933	0.0000000E+000	0.0000000E+000	0.0000000E+000	-85.4933	0.0000000E+000	0.0000000E+000	0.0000000E+000	-4.50672	0.0000000E+000	0.0000000E+000	0.0000000E+000	4.50672	12.6872	85.4933	-4.57166e-06
79433.3	7.62446	0.384907	7.63417	-2.89002	776.882	0.631025	-0.00904743	5.20549	0.0132328	1	38	0.00502405	0.000658101	0	-6.64597e-06	3.59153	2.76397	78.9959	5.52148e-05	8.53729e-05	7.85297e-05	0.00010159	3.56162e-05	2.60783e-05	0.366053	0.182973	5.78784	1.27804e-06	1.22026e-06	8.55241e-07	5.18655e-07	2.80455e-07	9.89709e-07	0.130823	0.00660439	0.13099	2.89002	13.2328	262.122	262.456	-87.11	0.0000000E+000	0.0000000E+000	0.0000000E+000	87.11	0.0000000E+000	0.0000000E+000	0.0000000E+000	-87.11	0.0000000E+000	0.0000000E+000	0.0000000E+000	-2.89002	0.0000000E+000	0.0000000E+000	0.0000000E+000	2.89002	19.8086	87.11	-2.07431e-06
63093.8	7.64266	0.687904	7.67356	-5.14324	777.696	0.631026	-0.00838458	3.66695	0.0294691	1	38	0.00522881	0.000681406	0	-9.9343e-06	4.4525	4.95867	73.3431	2.58667e-05	9.69279e-05	8.67758e-05	0.00016958	5.20378e-05	4.95247e-05	0.376445	0.338323	5.57782	3.71722e-07	6.09446e-07	1.00728e-06	1.91981e-06	7.98514e-07	3.49602e-07	0.129793	0.0116825	0.130318	5.14324	29.4691	327.404	328.728	-84.8568	0.0000000E+000	0.0000000E+000	0.0000000E+000	84.8568	0.0000000E+000	0.0000000E+000	0.0000000E+000	-84.8568	0.0000000E+000	0.0000000E+000	0.0000000E+000	-5.14324	0.0000000E+000	0.0000000E+000	0.0000000E+000	5.14324	11.1101	84.8568	-3.28833e-06
50122.5	7.76488	0.827642	7.80886	-6.08406	778.51	0.63099	-0.00930997	3.83659	0.0430978	1	38	0.00547827	0.000701545	0	-1.21855e-05	3.85441	6.17642	70.54	6.41221e-05	7.0136e-05	4.80533e-05	7.17469e-05	0.000123143	0.000103935	0.238088	0.311315	5.34773	4.08786e-07	1.03592e-06	3.84499e-07	7.7703e-07	4.57098e-07	5.16762e-07	0.127338	0.0135727	0.12806	6.08406	43.0977	404.34	406.63	-83.9159	0.0000000E+000	0.0000000E+000	0.0000000E+000	83.9159	0.0000000E+000	0.0000000E+000	0.0000000E+000	-83.9159	0.0000000E+000	0.0000000E+000	0.0000000E+000	-6.08406	0.0000000E+000	0.0000000E+000	0.0000000E+000	6.08406	9.38193	83.9159	-2.2512e-06
39814.1	7.67763	0.810531	7.7203	-6.02642	779.324	0.631033	-0.00824122	4.9319	0.0543607	1	38	0.00522309	0.000676541	0	-1.37429e-05	3.25348	1.27577	74.822	8.57043e-05	3.71106e-05	9.80815e-05	2.78605e-05	6.56624e-05	5.77627e-05	0.253496	0.187706	5.64478	6.65526e-07	1.12368e-06	4.88587e-07	4.49e-07	5.27063e-07	4.4555e-07	0.128813	0.0135988	0.129529	6.02642	54.3608	514.924	517.785	-83.9736	0.0000000E+000	0.0000000E+000	0.0000000E+000	83.9736	0.0000000E+000	0.0000000E+000	0.0000000E+000	-83.9736	0.0000000E+000	0.0000000E+000	0.0000000E+000	-6.02642	0.0000000E+000	0.0000000E+000	0.0000000E+000	6.02642	9.47235	83.9736	-1.55737e-06
31621.1	7.79616	0.782306	7.83532	-5.73016	780.138	0.631028	-0.00853726	6.43378	0.0641366	1	38	0.00518409	0.000661631	0	-1.49149e-05	3.62866	1.80043	74.9739	8.71086e-05	0.000100133	5.47931e-05	7.62258e-05	3.63822e-05	6.45821e-05	0.306429	0.0963627	5.73808	7.90623e-07	5.9565e-07	8.82298e-07	8.79016e-07	8.5732e-07	8.83322e-07	0.12699	0.0127428	0.127627	5.73016	64.1366	639.161	642.371	-84.2698	0.0000000E+000	0.0000000E+000	0.0000000E+000	84.2698	0.0000000E+000	0.0000000E+000	0.0000000E+000	-84.2698	0.0000000E+000	0.0000000E+000	0.0000000E+000	-5.73016	0.0000000E+000	0.0000000E+000	0.0000000E+000	5.73016	9.96562	84.2698	-1.17206e-06
25116.9	7.74034	1.0955	7.81748	-8.05566	780.952	0.631043	-0.00860802	5.78416	0.113588	1	38	0.00519324	0.000664311	0	-1.56424e-05	8.63367	1.20323	74.8205	0.000412442	7.54177e-05	7.29561e-05	5.55292e-05	2.27085e-05	0.000116736	0.588892	0.200025	5.70955	3.35431e-06	9.90077e-07	9.84882e-07	7.38712e-07	6.95541e-07	6.9879e-07	0.126656	0.0179259	0.127918	8.05566	113.588	802.566	810.564	-81.9443	0.0000000E+000	0.0000000E+000	0.0000000E+000	81.9443	0.0000000E+000	0.0000000E+000	0.0000000E+000	-81.9443	0.0000000E+000	0.0000000E+000	0.0000000E+000	-8.05566	0.0000000E+000	0.0000000E+000	0.0000000E+000	8.05566	7.06556	81.9443	-7.27489e-07
19948.8	7.79008	1.16098	7.87612	-8.47659	781.766	0.63104	-0.00753927	6.87193	0.149315	1	38	0.00504653	0.000640738	0	-1.8083e-05	2.72999	2.37312	76.6589	3.88747e-05	6.6119e-05	8.25679e-05	3.57371e-05	4.43651e-05	4.85488e-05	0.297922	0.186712	5.85778	3.57789e-07	7.90949e-07	1.1397e-06	9.29056e-07	3.93371e-07	5.3389e-07	0.125579	0.0187155	0.126966	8.47659	149.315	1001.89	1012.96	-81.5234	0.0000000E+000	0.0000000E+000	0.0000000E+000	81.5234	0.0000000E+000	0.0000000E+000	0.0000000E+000	-81.5234	0.0000000E+000	0.0000000E+000	0.0000000E+000	-8.47659	0.0000000E+000	0.0000000E+000	0.0000000E+000	8.47659	6.70991	81.5234	-2.44053e-06
15847.7	7.84662	1.41008	7.97231	-10.1876	782.58	0.631027	-0.00842182	7.12215	0.222807	1	38	0.00510582	0.000640444	0	-1.92112e-05	4.28508	1.34211	75.9282	8.61626e-05	3.03144e-05	7.95854e-05	0.000146056	8.02953e-05	6.21386e-05	0.318874	0.138854	5.88631	2.49073e-07	9.45936e-07	5.28238e-07	1.10602e-06	1.0548e-06	6.79557e-07	0.123457	0.0221858	0.125434	10.1876	222.807	1239.85	1259.71	-79.8124	0.0000000E+000	0.0000000E+000	0.0000000E+000	79.8124	0.0000000E+000	0.0000000E+000	0.0000000E+000	-79.8124	0.0000000E+000	0.0000000E+000	0.0000000E+000	-10.1876	0.0000000E+000	0.0000000E+000	0.0000000E+000	10.1876	5.56467	79.8124	-1.1282e-06
12590.9	7.99293	1.60038	8.15157	-11.3223	783.394	0.631065	-0.00777759	7.89838	0.304442	1	38	0.00514515	0.000631185	0	-2.03363e-05	7.14829	1.69541	72.8707	7.62878e-05	0.000104651	9.35941e-05	6.4003e-05	0.000119525	0.00028855	0.399648	0.17746	5.97746	8.34611e-07	8.88886e-07	9.03593e-07	8.93459e-07	9.08004e-07	1.25106e-06	0.120288	0.0240847	0.122676	11.3223	304.442	1520.5	1550.68	-78.6777	0.0000000E+000	0.0000000E+000	0.0000000E+000	78.6777	0.0000000E+000	0.0000000E+000	0.0000000E+000	-78.6777	0.0000000E+000	0.0000000E+000	0.0000000E+000	-11.3223	0.0000000E+000	0.0000000E+000	0.0000000E+000	11.3223	4.99438	78.6777	-1.12517e-06
10002.2	8.05437	2.04137	8.30904	-14.2221	784.208	0.631014	-0.00808481	7.79475	0.470483	1	38	0.00521065	0.000627106	0	-2.17033e-05	3.43259	1.42927	74.7284	3.99375e-05	6.71971e-05	6.66796e-05	7.6935e-05	9.17949e-05	4.81096e-05	0.217685	0.184522	6.04615	6.91184e-08	5.27145e-07	4.74276e-07	8.30453e-07	6.38186e-07	4.1005e-07	0.116662	0.0295679	0.120351	14.2221	470.483	1856.32	1915.02	-75.7779	0.0000000E+000	0.0000000E+000	0.0000000E+000	75.7779	0.0000000E+000	0.0000000E+000	0.0000000E+000	-75.7779	0.0000000E+000	0.0000000E+000	0.0000000E+000	-14.2221	0.0000000E+000	0.0000000E+000	0.0000000E+000	14.2221	3.94558	75.7779	-1.36696e-06
7944	8.16861	2.19803	8.45917	-15.0605	785.058	0.63089	-0.00803268	9.11482	0.615402	1	38	0.00503068	0.000594702	0	-2.36182e-05	3.78764	2.52762	78.4693	6.89512e-05	5.55547e-05	7.44338e-05	5.52228e-05	3.67657e-05	0.000100531	0.448198	0.203351	6.53124	7.73486e-07	1.37035e-06	9.47514e-07	5.78713e-07	6.21581e-07	1.23525e-06	0.114154	0.0307169	0.118215	15.0605	615.402	2287.04	2368.39	-74.9395	0.0000000E+000	0.0000000E+000	0.0000000E+000	74.9395	0.0000000E+000	0.0000000E+000	0.0000000E+000	-74.9395	0.0000000E+000	0.0000000E+000	0.0000000E+000	-15.0605	0.0000000E+000	0.0000000E+000	0.0000000E+000	15.0605	3.71634	74.9395	-1.9149e-06
6307.74	8.1885	2.92799	8.69624	-19.6757	785.956	0.630851	-0.00811461	8.61742	0.976906	1	38	0.0051129	0.000587943	0	-2.4947e-05	4.84539	3.50781	73.5728	3.05475e-05	8.41352e-05	5.06971e-05	0.000179592	2.2987e-05	0.000108051	0.386603	0.292734	6.48285	7.97727e-07	6.85571e-07	9.42712e-07	1.37586e-06	6.00312e-07	8.20165e-07	0.108278	0.0387174	0.114992	19.6757	976.907	2732.04	2901.45	-70.3243	0.0000000E+000	0.0000000E+000	0.0000000E+000	70.3243	0.0000000E+000	0.0000000E+000	0.0000000E+000	-70.3243	0.0000000E+000	0.0000000E+000	0.0000000E+000	-19.6757	0.0000000E+000	0.0000000E+000	0.0000000E+000	19.6757	2.79663	70.3243	-1.32881e-06
5011.6	8.29258	3.56661	9.02705	-23.2724	786.712	0.630808	-0.00713895	8.90405	1.38998	1	38	0.00546307	0.000605189	0	-2.63481e-05	4.64334	1.7239	70.9147	8.67756e-05	5.1311e-05	0.000180299	0.000103278	3.76064e-05	7.65923e-05	0.34638	0.173763	6.22622	4.4244e-07	7.94512e-07	1.49067e-06	5.27987e-07	7.61704e-07	6.48417e-07	0.101765	0.0437688	0.110778	23.2724	1389.98	3231.78	3518.02	-66.7276	0.0000000E+000	0.0000000E+000	0.0000000E+000	66.7276	0.0000000E+000	0.0000000E+000	0.0000000E+000	-66.7276	0.0000000E+000	0.0000000E+000	0.0000000E+000	-23.2724	0.0000000E+000	0.0000000E+000	0.0000000E+000	23.2724	2.32506	66.7276	-1.40106e-06
3981.28	8.59787	4.30713	9.61637	-26.6087	787.677	0.63092	-0.00749831	9.28132	1.86193	1	38	0.00512031	0.000532458	0	-2.76652e-05	4.10369	1.40313	74.1701	5.01175e-05	6.79831e-05	8.61234e-05	9.54732e-05	0.000113719	7.27203e-05	0.371931	0.147094	7.23743	4.07826e-07	9.50249e-07	8.26862e-07	1.35994e-06	1.87618e-07	4.74553e-07	0.0929754	0.0465763	0.103989	26.6087	1861.93	3716.77	4157.06	-63.3913	0.0000000E+000	0.0000000E+000	0.0000000E+000	63.3913	0.0000000E+000	0.0000000E+000	0.0000000E+000	-63.3913	0.0000000E+000	0.0000000E+000	0.0000000E+000	-26.6087	0.0000000E+000	0.0000000E+000	0.0000000E+000	26.6087	1.99619	63.3913	-1.31715e-06
3163.04	8.61426	5.35573	10.1434	-31.8704	788.42	0.630906	-0.00715013	9.395	2.61917	1	38	0.0051684	0.000509531	0	-2.87805e-05	3.13917	1.33345	73.0561	4.83869e-05	7.64102e-05	1.69062e-05	6.05586e-05	7.66611e-05	7.29275e-05	0.320026	0.266875	7.40295	5.11667e-07	4.50918e-07	5.02204e-07	1.05361e-06	2.81228e-07	8.22092e-07	0.0837236	0.0520534	0.0985859	31.8704	2619.17	4212.73	4960.56	-58.1296	0.0000000E+000	0.0000000E+000	0.0000000E+000	58.1296	0.0000000E+000	0.0000000E+000	0.0000000E+000	-58.1296	0.0000000E+000	0.0000000E+000	0.0000000E+000	-31.8704	0.0000000E+000	0.0000000E+000	0.0000000E+000	31.8704	1.60842	58.1296	-1.1153e-06
2512.41	8.70625	6.40596	10.809	-36.3452	789.163	0.630881	-0.00746852	9.88883	3.47328	1	38	0.00510847	0.000472612	0	-3.05675e-05	4.17033	1.98733	76.9116	0.000116243	3.83204e-05	0.000141434	6.01798e-05	4.58551e-05	5.95451e-05	0.463763	0.147526	8.06723	5.07971e-07	1.01718e-06	1.16651e-06	9.46632e-07	7.61953e-07	6.82567e-07	0.0745174	0.054829	0.0925152	36.3452	3473.28	4720.49	5860.61	-53.6548	0.0000000E+000	0.0000000E+000	0.0000000E+000	53.6548	0.0000000E+000	0.0000000E+000	0.0000000E+000	-53.6548	0.0000000E+000	0.0000000E+000	0.0000000E+000	-36.3452	0.0000000E+000	0.0000000E+000	0.0000000E+000	36.3452	1.35909	53.6548	-1.78703e-06
1995.64	8.94939	7.77738	11.8566	-40.992	789.906	0.630913	-0.00612048	10.2543	4.41215	1	38	0.00504956	0.000425885	0	-3.18094e-05	4.50041	2.28465	77.7236	4.96038e-05	5.19811e-05	9.93224e-05	8.17549e-05	7.34676e-05	0.000137118	0.559011	0.269689	8.91232	1.35694e-06	8.41442e-07	8.53041e-07	1.17626e-06	4.79683e-07	7.96212e-07	0.0636608	0.0553238	0.0843411	40.992	4412.15	5077.04	6726.32	-49.008	0.0000000E+000	0.0000000E+000	0.0000000E+000	49.008	0.0000000E+000	0.0000000E+000	0.0000000E+000	-49.008	0.0000000E+000	0.0000000E+000	0.0000000E+000	-40.992	0.0000000E+000	0.0000000E+000	0.0000000E+000	40.992	1.15069	49.008	-1.24183e-06
1584.49	9.25657	9.86682	13.5292	-46.8278	790.651	0.630972	-0.00542784	10.1801	5.41459	1	38	0.00507918	0.000375424	0	-3.34361e-05	4.18188	2.33012	75.6173	0.0001362	3.46475e-05	5.83091e-05	7.55281e-05	4.97728e-05	0.000107526	0.418942	0.286024	10.2368	1.05655e-06	5.10231e-07	3.24516e-07	3.84153e-07	4.85986e-07	6.02819e-07	0.0505718	0.0539058	0.0739144	46.8278	5414.59	5079.7	7424.36	-43.1722	0.0000000E+000	0.0000000E+000	0.0000000E+000	43.1722	0.0000000E+000	0.0000000E+000	0.0000000E+000	-43.1722	0.0000000E+000	0.0000000E+000	0.0000000E+000	-46.8278	0.0000000E+000	0.0000000E+000	0.0000000E+000	46.8278	0.938151	43.1722	-1.62676e-06
1258.79	9.61467	12.2372	15.5625	-51.8437	791.394	0.630899	-0.0066772	10.332	6.38838	1	38	0.00506058	0.000325178	0	-3.48524e-05	2.79117	2.1919	77.2397	6.18787e-05	8.30727e-05	5.0548e-05	2.68574e-05	5.83633e-05	2.68451e-05	0.691015	0.305555	12.0838	1.61823e-06	7.51033e-07	5.18175e-07	8.76251e-07	2.07546e-07	6.79139e-07	0.0396985	0.050527	0.0642569	51.8437	6388.38	5019.28	8124.31	-38.1563	0.0000000E+000	0.0000000E+000	0.0000000E+000	38.1563	0.0000000E+000	0.0000000E+000	0.0000000E+000	-38.1563	0.0000000E+000	0.0000000E+000	0.0000000E+000	-51.8437	0.0000000E+000	0.0000000E+000	0.0000000E+000	51.8437	0.785689	38.1563	-1.41631e-06
999.682	9.87139	14.701	17.7077	-56.1195	792.138	0.631034	-0.00669024	10.8296	7.46414	1	38	0.00487136	0.000275098	0	-3.58408e-05	4.1314	5.80517	78.814	0.000105025	7.40576e-05	6.12522e-05	9.60501e-05	3.44095e-05	6.60136e-05	0.902099	0.801186	14.084	1.29956e-06	3.43177e-07	4.66698e-07	1.53941e-06	8.62991e-07	8.67773e-07	0.0314813	0.0468836	0.0564725	56.1195	7464.14	5012	8990.75	-33.8805	0.0000000E+000	0.0000000E+000	0.0000000E+000	33.8805	0.0000000E+000	0.0000000E+000	0.0000000E+000	-33.8805	0.0000000E+000	0.0000000E+000	0.0000000E+000	-56.1195	0.0000000E+000	0.0000000E+000	0.0000000E+000	56.1195	0.671478	33.8805	-9.88341e-07
794.239	11.304	17.9666	21.2268	-57.8233	792.881	0.630777	-0.00658224	11.1533	7.99032	1	38	0.00493513	0.000232495	0	-3.70696e-05	3.37636	2.78594	78.7444	2.55343e-05	4.80021e-05	9.99226e-05	9.34591e-05	3.8993e-05	6.00804e-05	0.803118	0.386505	16.3469	1.13559e-06	1.01369e-06	3.11557e-07	4.74311e-07	8.10497e-07	2.12536e-07	0.0250877	0.0398745	0.0471102	57.8233	7990.32	5027.24	9440.26	-32.1767	0.0000000E+000	0.0000000E+000	0.0000000E+000	32.1767	0.0000000E+000	0.0000000E+000	0.0000000E+000	-32.1767	0.0000000E+000	0.0000000E+000	0.0000000E+000	-57.8233	0.0000000E+000	0.0000000E+000	0.0000000E+000	57.8233	0.629167	32.1767	-1.22883e-06
631.01	11.3827	22.7231	25.4147	-63.3923	793.622	0.630852	-0.0048041	11.0998	8.87324	1	38	0.00493269	0.000194088	0	-3.76027e-05	4.23997	3.20635	78.6766	4.63276e-05	5.23065e-05	8.2206e-05	0.000136143	5.50385e-05	8.00281e-05	0.962512	0.356498	19.6213	7.52817e-07	8.04177e-07	5.88476e-07	7.68452e-07	3.88795e-07	8.70289e-07	0.0176228	0.0351802	0.0393473	63.3923	8873.24	4444.88	9924.28	-26.6077	0.0000000E+000	0.0000000E+000	0.0000000E+000	26.6077	0.0000000E+000	0.0000000E+000	0.0000000E+000	-26.6077	0.0000000E+000	0.0000000E+000	0.0000000E+000	-63.3923	0.0000000E+000	0.0000000E+000	0.0000000E+000	63.3923	0.500931	26.6077	-5.3309e-07
501.122	12.8787	27.8017	30.6397	-65.1448	794.617	0.630958	-0.000542576	11.4237	9.4054	1	39	0.00519122	0.000169428	0	-3.80952e-05	3.88426	1.24411	70.3665	0.000106261	7.98733e-05	3.67682e-05	8.2567e-05	8.45602e-05	7.67633e-05	0.731207	0.233428	10.0923	5.94957e-07	3.445e-07	2.70659e-07	7.74966e-07	4.64618e-07	3.43469e-07	0.0137184	0.0296142	0.0326374	65.1448	9405.4	4356.91	10365.5	-24.8552	0.0000000E+000	0.0000000E+000	0.0000000E+000	24.8552	0.0000000E+000	0.0000000E+000	0.0000000E+000	-24.8552	0.0000000E+000	0.0000000E+000	0.0000000E+000	-65.1448	0.0000000E+000	0.0000000E+000	0.0000000E+000	65.1448	0.463235	24.8552	-4.92539e-07
398.089	14.1216	34.0765	36.8866	-67.4904	795.363	0.630897	-0.000589918	11.7324	10.0128	1	39	0.00506366	0.000137276	0	-3.8219e-05	4.4143	3.2316	73.8244	5.45064e-05	4.30603e-05	4.22148e-05	7.44083e-05	7.93568e-05	0.000174364	0.834108	0.534487	12.7027	5.38544e-07	6.57712e-07	3.12515e-07	3.25438e-07	4.05884e-07	4.0137e-07	0.0103788	0.0250447	0.0271101	67.4904	10012.8	4149.4	10838.5	-22.5096	0.0000000E+000	0.0000000E+000	0.0000000E+000	22.5096	0.0000000E+000	0.0000000E+000	0.0000000E+000	-22.5096	0.0000000E+000	0.0000000E+000	0.0000000E+000	-67.4904	0.0000000E+000	0.0000000E+000	0.0000000E+000	67.4904	0.414409	22.5096	-1.23804e-07
316.316	16.1586	42.5065	45.4742	-69.186	796.105	0.6309	-0.00031445	11.8371	10.3425	1	39	0.00508919	0.000111914	0	-3.83481e-05	3.81574	1.69151	71.6381	5.76729e-05	9.89554e-05	7.65619e-05	5.50886e-05	9.96004e-05	6.63306e-05	0.83238	0.504485	15.2485	3.31477e-07	5.29513e-07	3.59727e-07	3.10322e-07	3.59494e-07	2.67271e-07	0.007814	0.0205553	0.0219905	69.186	10342.5	3931.63	11064.5	-20.814	0.0000000E+000	0.0000000E+000	0.0000000E+000	20.814	0.0000000E+000	0.0000000E+000	0.0000000E+000	-20.814	0.0000000E+000	0.0000000E+000	0.0000000E+000	-69.186	0.0000000E+000	0.0000000E+000	0.0000000E+000	69.186	0.380145	20.814	-1.29081e-07
251.206	18.7313	51.4807	54.7825	-70.0061	796.848	0.63092	-0.000206909	12.3068	10.868	1	39	0.00501826	9.16034e-05	0	-3.8543e-05	2.87644	1.48714	74.3934	9.30882e-05	3.88148e-05	3.96704e-05	3.9237e-05	4.73742e-05	6.56555e-05	1.11463	0.540443	18.1817	6.63546e-07	2.14282e-07	1.96191e-07	2.61289e-07	4.89009e-07	4.08261e-07	0.00624141	0.0171538	0.018254	70.0061	10868	3954.33	11565.1	-19.9939	0.0000000E+000	0.0000000E+000	0.0000000E+000	19.9939	0.0000000E+000	0.0000000E+000	0.0000000E+000	-19.9939	0.0000000E+000	0.0000000E+000	0.0000000E+000	-70.0061	0.0000000E+000	0.0000000E+000	0.0000000E+000	70.0061	0.36385	19.9939	-1.94872e-07
199.553	20.6578	62.0232	65.373	-71.5789	797.593	0.630979	-0.000474737	12.859	11.5749	1	39	0.00489887	7.49372e-05	0	-3.86146e-05	3.88951	2.83324	74.963	5.02716e-05	3.50199e-05	8.28855e-05	6.49509e-05	5.16293e-05	0.000121698	1.48751	0.995048	22.6702	7.69418e-07	4.63957e-07	3.92178e-07	1.51699e-07	2.51398e-07	3.71468e-07	0.00483378	0.014513	0.0152968	71.5789	11574.9	3855.21	12200.1	-18.4211	0.0000000E+000	0.0000000E+000	0.0000000E+000	18.4211	0.0000000E+000	0.0000000E+000	0.0000000E+000	-18.4211	0.0000000E+000	0.0000000E+000	0.0000000E+000	-71.5789	0.0000000E+000	0.0000000E+000	0.0000000E+000	71.5789	0.333065	18.4211	-7.16388e-08
158.529	24.0472	76.5808	80.2676	-72.5672	798.339	0.630917	-0.000504744	13.1097	11.933	1	39	0.00494731	6.16353e-05	0	-3.85799e-05	2.48164	1.80274	75.9955	2.70544e-05	5.22165e-05	5.32707e-05	6.11146e-05	4.53842e-05	3.41223e-05	1.51904	0.542284	28.1265	3.71723e-07	3.38904e-07	2.74612e-07	4.75168e-07	3.55264e-07	3.05482e-07	0.00373236	0.0118861	0.0124583	72.5672	11933	3747.1	12507.5	-17.4328	0.0000000E+000	0.0000000E+000	0.0000000E+000	17.4328	0.0000000E+000	0.0000000E+000	0.0000000E+000	-17.4328	0.0000000E+000	0.0000000E+000	0.0000000E+000	-72.5672	0.0000000E+000	0.0000000E+000	0.0000000E+000	72.5672	0.314011	17.4328	3.47226e-08
125.927	29.3806	95.1327	99.5663	-72.8373	799.081	0.63096	-0.000688701	13.2853	12.1285	1	39	0.0049776	4.99928e-05	0	-3.87253e-05	2.47426	1.24338	73.0873	3.65727e-05	4.41816e-05	3.70734e-05	6.31147e-05	1.76801e-05	7.16962e-05	1.49134	0.617765	35.7536	2.88386e-07	2.35271e-07	8.14721e-08	3.63903e-07	2.2368e-07	4.12069e-07	0.00296371	0.00959633	0.0100436	72.8373	12128.5	3745.74	12693.7	-17.1627	0.0000000E+000	0.0000000E+000	0.0000000E+000	17.1627	0.0000000E+000	0.0000000E+000	0.0000000E+000	-17.1627	0.0000000E+000	0.0000000E+000	0.0000000E+000	-72.8373	0.0000000E+000	0.0000000E+000	0.0000000E+000	72.8373	0.308838	17.1627	-1.45387e-07
99.9682	32.3373	115.795	120.226	-74.397	799.813	0.631004	-0.000570164	13.7489	12.7542	1	39	0.00507072	4.21765e-05	0	-3.88211e-05	9.30609	6.52581	72.2031	0.000167801	0.000191938	0.000167114	5.19976e-05	0.000343397	7.9599e-05	2.95634	1.39023	39.9109	4.02538e-07	4.70514e-07	1.17157e-07	6.02513e-07	4.5253e-07	7.1324e-07	0.00223721	0.00801115	0.00831767	74.397	12754.2	3561.77	13242.2	-15.603	0.0000000E+000	0.0000000E+000	0.0000000E+000	15.603	0.0000000E+000	0.0000000E+000	0.0000000E+000	-15.603	0.0000000E+000	0.0000000E+000	0.0000000E+000	-74.397	0.0000000E+000	0.0000000E+000	0.0000000E+000	74.397	0.279262	15.6031	-9.58414e-08