File: Python/Data/RDE/240223-OCV-EIS-Fe2Fe3_5mM-HCl1M-0RPM-Ag_AgCl_BLF8-GC-RDE-1minRestVSEoc-3ppf-14p1mVAmplitude_06_PEIS_C15.mpt
EC-Lab ASCII FILE
Nb header lines : 67

Potentio Electrochemical Impedance Spectroscopy

Run on channel : 15 (SN 19485)
User :
Electrode connection : standard
Potential control : Ewe
Ewe ctrl range : min = -1.00 V, max = 1.00 V
Ewe,I filtering : 50 kHz
Safety Limits :
	Do not start on E overload
Channel : Floating
Acquisition started on : 02/23/2024 16:29:27.631
Loaded Setting File :  NONE
Saved on :
	File : 240223-OCV-EIS-Fe2Fe3_5mM-HCl1M-0RPM-Ag_AgCl_BLF8-GC-RDE-1minRestVSEoc-3ppf-14p1mVAmplitude_06_PEIS_C15.mpr
	Directory : C:\Data\mathias\RDE-RPM-variation\
	Host : 192.168.0.1
Device : VMP-300 (SN 0826)
Address : USB
EC-Lab for windows v11.52 (software)
Internet server v11.52 (firmware)
Command interpretor v11.52 (firmware)
Electrode material :
Initial state :
Electrolyte :
Comments :
Cable : special
Reference electrode : SCE Saturated Calomel Electrode (0.241 V)
Electrode surface area : 0.001 cm²
Characteristic mass : 0.001 g
Equivalent Weight : 0.000 g/eq.
Density : 0.000 g/cm3
Volume (V) : 0.001 cm³
Record EIS quality indicators
Cycle Definition : Charge/Discharge alternance
Mode                Single sine
E (V)               0.0000
vs.                 Eoc
tE (h:m:s)          0:01:0.0000
record              0
dI                  0.000
unit dI             mA
dt (s)              0.000
fi                  1.000
unit fi             MHz
ff                  100.000
unit ff             mHz
Nd                  10
Points              per decade
spacing             Logarithmic
Va (mV)             14.1
pw                  0.10
Na                  3
corr                0
E range min (V)     -1.000
E range max (V)     1.000
I Range             Auto
Bandwidth           8
nc cycles           0
goto Ns'            0
nr cycles           0
inc. cycle          1

freq/Hz	Re(Z)/Ohm	-Im(Z)/Ohm	|Z|/Ohm	Phase(Z)/deg	time/s	<Ewe>/V	<I>/mA	Cs/µF	Cp/µF	cycle number	I Range	|Ewe|/V	|I|/A	Ns	(Q-Qo)/mA.h	THD Ewe/%	NSD Ewe/%	NSR Ewe/%	|Ewe h2|/V	|Ewe h3|/V	|Ewe h4|/V	|Ewe h5|/V	|Ewe h6|/V	|Ewe h7|/V	THD I/%	NSD I/%	NSR I/%	|I h2|/A	|I h3|/A	|I h4|/A	|I h5|/A	|I h6|/A	|I h7|/A	Re(Y)/Ohm-1	Im(Y)/Ohm-1	|Y|/Ohm-1	Phase(Y)/deg	Re(C)/nF	Im(C)/nF	|C|/nF	Phase(C)/deg	Re(M)	Im(M)	|M|	Phase(M)/deg	Re(Permittivity)	Im(Permittivity)	|Permittivity|	Phase(Permittivity)/deg	Re(Resistivity)/Ohm.cm	Im(Resistivity)/Ohm.cm	|Resistivity|/Ohm.cm	Phase(Resistivity)/deg	Re(Conductivity)/mS/cm	Im(Conductivity)/mS/cm	|Conductivity|/mS/cm	Phase(Conductivity)/deg	Tan(Delta)	Loss Angle(Delta)/deg	dq/mA.h
1.00002e+06	3.51964	4.07666	5.38582	-49.1939	1087.74	0.459302	-0.00940493	0.0390398	0.0223673	1	38	0.0111347	0.0020674	0	-6.96311e-06	-1	-1	-1	0	0	0	0	0	0	-1	-1	-1	0	0	0	0	0	0	0.121337	0.14054	0.185673	49.1939	22.3673	19.3111	29.5502	-40.8061	0.0000000E+000	0.0000000E+000	0.0000000E+000	40.8061	0.0000000E+000	0.0000000E+000	0.0000000E+000	-40.8061	0.0000000E+000	0.0000000E+000	0.0000000E+000	-49.1939	0.0000000E+000	0.0000000E+000	0.0000000E+000	49.1939	0.863363	40.8061	-6.96311e-06
794333	3.54317	3.20408	4.77705	-42.1229	1088.75	0.459307	-0.00052344	0.0625338	0.028132	1	38	0.0138511	0.00289951	0	-9.74325e-06	-1	-1	-1	0	0	0	0	0	0	-1	-1	-1	0	0	0	0	0	0	0.155265	0.140405	0.209334	42.1229	28.132	31.1093	41.9428	-47.8771	0.0000000E+000	0.0000000E+000	0.0000000E+000	47.8771	0.0000000E+000	0.0000000E+000	0.0000000E+000	-47.8771	0.0000000E+000	0.0000000E+000	0.0000000E+000	-42.1229	0.0000000E+000	0.0000000E+000	0.0000000E+000	42.1229	1.10583	47.8771	-2.78014e-06
630957	3.53344	2.52039	4.34023	-35.5002	1089.9	0.459318	-0.00128494	0.100081	0.0337492	1	38	0.014452	0.00332978	0	-8.18294e-06	-1	-1	-1	0	0	0	0	0	0	-1	-1	-1	0	0	0	0	0	0	0.187574	0.133796	0.230403	35.5002	33.7492	47.3143	58.1176	-54.4998	0.0000000E+000	0.0000000E+000	0.0000000E+000	54.4998	0.0000000E+000	0.0000000E+000	0.0000000E+000	-54.4998	0.0000000E+000	0.0000000E+000	0.0000000E+000	-35.5002	0.0000000E+000	0.0000000E+000	0.0000000E+000	35.5002	1.40194	54.4998	1.5603e-06
501206	3.504	2.00614	4.03765	-29.7923	1091.04	0.459288	-0.000528983	0.158286	0.0390757	1	38	0.0145392	0.0036009	0	-5.25649e-06	-1	-1	-1	0	0	0	0	0	0	-1	-1	-1	0	0	0	0	0	0	0.214935	0.123056	0.247669	29.7923	39.0757	68.2513	78.6457	-60.2077	0.0000000E+000	0.0000000E+000	0.0000000E+000	60.2077	0.0000000E+000	0.0000000E+000	0.0000000E+000	-60.2077	0.0000000E+000	0.0000000E+000	0.0000000E+000	-29.7923	0.0000000E+000	0.0000000E+000	0.0000000E+000	29.7923	1.74664	60.2077	2.92645e-06
398103	3.46335	1.62084	3.82386	-25.0794	1092.19	0.459306	-0.000743105	0.246652	0.0443158	1	38	0.0145407	0.00380261	0	-1.46586e-05	-1	-1	-1	0	0	0	0	0	0	-1	-1	-1	0	0	0	0	0	0	0.23686	0.11085	0.261516	25.0794	44.3158	94.6927	104.549	-64.9206	0.0000000E+000	0.0000000E+000	0.0000000E+000	64.9206	0.0000000E+000	0.0000000E+000	0.0000000E+000	-64.9206	0.0000000E+000	0.0000000E+000	0.0000000E+000	-25.0794	0.0000000E+000	0.0000000E+000	0.0000000E+000	25.0794	2.13677	64.9206	-9.40215e-06
316230	3.43521	1.36326	3.69583	-21.6456	1093.34	0.459301	-0.000182663	0.36918	0.050231	1	38	0.0145955	0.00394918	0	-1.7887e-05	-1	-1	-1	0	0	0	0	0	0	-1	-1	-1	0	0	0	0	0	0	0.251495	0.0998056	0.270575	21.6456	50.231	126.575	136.177	-68.3544	0.0000000E+000	0.0000000E+000	0.0000000E+000	68.3544	0.0000000E+000	0.0000000E+000	0.0000000E+000	-68.3544	0.0000000E+000	0.0000000E+000	0.0000000E+000	-21.6456	0.0000000E+000	0.0000000E+000	0.0000000E+000	21.6456	2.51985	68.3544	-3.2284e-06
251188	3.40857	1.16781	3.60307	-18.9119	1094.48	0.4593	-0.000778477	0.542564	0.0569964	1	38	0.0145712	0.0040441	0	-1.74976e-05	-1	-1	-1	0	0	0	0	0	0	-1	-1	-1	0	0	0	0	0	0	0.262559	0.0899551	0.277541	18.9119	56.9964	166.36	175.853	-71.0881	0.0000000E+000	0.0000000E+000	0.0000000E+000	71.0881	0.0000000E+000	0.0000000E+000	0.0000000E+000	-71.0881	0.0000000E+000	0.0000000E+000	0.0000000E+000	-18.9119	0.0000000E+000	0.0000000E+000	0.0000000E+000	18.9119	2.91878	71.0881	3.89444e-07
199544	3.39739	1.05279	3.55677	-17.2172	1095.63	0.45931	0.000271655	0.757603	0.0663761	1	38	0.01457	0.00409641	0	-1.25847e-05	-1	-1	-1	0	0	0	0	0	0	-1	-1	-1	0	0	0	0	0	0	0.268555	0.0832203	0.281154	17.2172	66.3761	214.198	224.247	-72.7828	0.0000000E+000	0.0000000E+000	0.0000000E+000	72.7828	0.0000000E+000	0.0000000E+000	0.0000000E+000	-72.7828	0.0000000E+000	0.0000000E+000	0.0000000E+000	-17.2172	0.0000000E+000	0.0000000E+000	0.0000000E+000	17.2172	3.22704	72.7828	4.91286e-06
158486	3.38477	1.00288	3.53022	-16.5041	1096.78	0.459299	-0.000378163	1.00134	0.0808116	1	38	0.0145698	0.00412717	0	-9.74195e-06	-1	-1	-1	0	0	0	0	0	0	-1	-1	-1	0	0	0	0	0	0	0.271598	0.080472	0.283269	16.5041	80.8116	272.744	284.464	-73.4959	0.0000000E+000	0.0000000E+000	0.0000000E+000	73.4959	0.0000000E+000	0.0000000E+000	0.0000000E+000	-73.4959	0.0000000E+000	0.0000000E+000	0.0000000E+000	-16.5041	0.0000000E+000	0.0000000E+000	0.0000000E+000	16.5041	3.37506	73.4959	2.84279e-06
125909	3.38546	1.00856	3.5325	-16.5893	1097.93	0.459291	-0.000191969	1.25332	0.102165	1	38	0.0145725	0.00412526	0	-1.78456e-05	-1	-1	-1	0	0	0	0	0	0	-1	-1	-1	0	0	0	0	0	0	0.271303	0.0808235	0.283086	16.5893	102.165	342.938	357.833	-73.4107	0.0000000E+000	0.0000000E+000	0.0000000E+000	73.4107	0.0000000E+000	0.0000000E+000	0.0000000E+000	-73.4107	0.0000000E+000	0.0000000E+000	0.0000000E+000	-16.5893	0.0000000E+000	0.0000000E+000	0.0000000E+000	16.5893	3.35673	73.4107	-8.10364e-06
100004	3.4002	1.05325	3.5596	-17.211	1099.07	0.45934	-0.000283204	1.51102	0.132293	1	38	0.0145703	0.00409324	0	-1.51892e-05	0.491018	0.285217	8.88888	2.17019e-05	1.20172e-05	2.297e-05	2.84527e-05	3.95216e-05	3.45269e-05	0.0656018	0.021358	0.707971	1.89741e-06	1.20404e-06	7.06807e-07	7.61985e-07	5.9812e-07	5.0974e-07	0.268351	0.083125	0.280931	17.211	132.293	427.078	447.098	-72.789	0.0000000E+000	0.0000000E+000	0.0000000E+000	72.789	0.0000000E+000	0.0000000E+000	0.0000000E+000	-72.789	0.0000000E+000	0.0000000E+000	0.0000000E+000	-17.211	0.0000000E+000	0.0000000E+000	0.0000000E+000	17.211	3.22828	72.789	2.65638e-06
79433.3	3.41294	1.15446	3.60291	-18.6886	1100.22	0.459318	-0.000478702	1.73556	0.178193	1	38	0.014559	0.00404092	0	-1.09407e-05	0.443035	0.388686	8.86178	2.05218e-05	3.67622e-05	1.34872e-05	1.64257e-05	3.00868e-05	2.37525e-05	0.059825	0.0220093	0.710977	1.65588e-06	9.88816e-07	6.64881e-07	6.18947e-07	6.77064e-07	5.93538e-07	0.262919	0.088935	0.277554	18.6886	178.193	526.793	556.115	-71.3114	0.0000000E+000	0.0000000E+000	0.0000000E+000	71.3114	0.0000000E+000	0.0000000E+000	0.0000000E+000	-71.3114	0.0000000E+000	0.0000000E+000	0.0000000E+000	-18.6886	0.0000000E+000	0.0000000E+000	0.0000000E+000	18.6886	2.95631	71.3114	4.24852e-06
63093.8	3.4472	1.30732	3.68677	-20.7688	1101.37	0.459298	5.75192e-05	1.92953	0.242619	1	38	0.0145861	0.00395635	0	-1.30947e-05	0.501445	0.347925	8.67044	2.87738e-05	2.74995e-05	3.48818e-05	1.18917e-05	2.52777e-05	3.46733e-05	0.0604807	0.0393799	0.723544	1.00263e-06	1.29395e-06	6.97768e-07	1.0358e-06	8.71628e-07	6.62438e-07	0.253615	0.0961814	0.27124	20.7688	242.619	639.746	684.207	-69.2312	0.0000000E+000	0.0000000E+000	0.0000000E+000	69.2312	0.0000000E+000	0.0000000E+000	0.0000000E+000	-69.2312	0.0000000E+000	0.0000000E+000	0.0000000E+000	-20.7688	0.0000000E+000	0.0000000E+000	0.0000000E+000	20.7688	2.63684	69.2312	-2.15403e-06
50122.5	3.48303	1.52877	3.80377	-23.6976	1102.51	0.459295	-0.000648144	2.07704	0.335508	1	38	0.0145843	0.00383418	0	-7.25792e-06	0.473955	0.237856	8.85105	1.59013e-05	3.09264e-05	1.78738e-05	3.00383e-05	2.8278e-05	2.61362e-05	0.061734	0.037055	0.744605	9.37139e-07	1.28915e-06	6.3879e-07	5.73792e-07	8.2307e-07	1.042e-06	0.24073	0.105661	0.262897	23.6976	335.508	764.394	834.784	-66.3024	0.0000000E+000	0.0000000E+000	0.0000000E+000	66.3024	0.0000000E+000	0.0000000E+000	0.0000000E+000	-66.3024	0.0000000E+000	0.0000000E+000	0.0000000E+000	-23.6976	0.0000000E+000	0.0000000E+000	0.0000000E+000	23.6976	2.27832	66.3024	5.8368e-06
39814.1	3.53082	1.80908	3.9673	-27.1292	1103.66	0.459281	-0.0001566	2.20966	0.459464	1	38	0.0146306	0.00368779	0	-4.74044e-06	0.483818	0.258086	8.92248	4.24043e-05	3.47562e-05	1.80879e-05	1.49861e-05	1.69637e-05	2.61372e-05	0.0580144	0.0536343	0.775283	8.25918e-07	1.35111e-06	4.65157e-07	4.15854e-07	8.06146e-07	7.84475e-07	0.224329	0.114939	0.25206	27.1292	459.464	896.745	1007.6	-62.8708	0.0000000E+000	0.0000000E+000	0.0000000E+000	62.8708	0.0000000E+000	0.0000000E+000	0.0000000E+000	-62.8708	0.0000000E+000	0.0000000E+000	0.0000000E+000	-27.1292	0.0000000E+000	0.0000000E+000	0.0000000E+000	27.1292	1.95172	62.8708	2.51748e-06
31621.1	3.58666	2.17667	4.19548	-31.2526	1104.81	0.459309	-0.000750564	2.31234	0.622403	1	38	0.0146674	0.00349601	0	-1.14889e-06	0.47406	0.237543	8.51808	1.90766e-05	2.76573e-05	2.43296e-05	1.90627e-05	3.26476e-05	2.69705e-05	0.0464573	0.0557399	0.823605	2.95095e-07	9.53257e-07	5.36599e-07	6.81325e-07	4.31516e-07	6.20215e-07	0.203764	0.12366	0.238352	31.2526	622.403	1025.58	1199.67	-58.7474	0.0000000E+000	0.0000000E+000	0.0000000E+000	58.7474	0.0000000E+000	0.0000000E+000	0.0000000E+000	-58.7474	0.0000000E+000	0.0000000E+000	0.0000000E+000	-31.2526	0.0000000E+000	0.0000000E+000	0.0000000E+000	31.2526	1.64778	58.7474	3.59155e-06
25116.9	3.65391	2.63601	4.50551	-35.8075	1105.96	0.45932	8.91602e-05	2.40385	0.822836	1	38	0.0147309	0.00326952	0	3.12195e-06	0.439085	0.318048	8.73799	2.27402e-05	3.1627e-05	2.53595e-05	2.90424e-05	1.73788e-05	2.31836e-05	0.0486339	0.0700714	0.8929	5.98458e-07	8.47184e-07	4.65998e-07	6.10218e-07	5.80741e-07	5.23675e-07	0.179999	0.129855	0.22195	35.8075	822.836	1140.58	1406.4	-54.1925	0.0000000E+000	0.0000000E+000	0.0000000E+000	54.1925	0.0000000E+000	0.0000000E+000	0.0000000E+000	-54.1925	0.0000000E+000	0.0000000E+000	0.0000000E+000	-35.8075	0.0000000E+000	0.0000000E+000	0.0000000E+000	35.8075	1.38615	54.1925	4.27084e-06
19948.8	3.7407	3.20619	4.92671	-40.6002	1107.1	0.459285	0.000383321	2.48837	1.05385	1	38	0.0147849	0.00300096	0	-3.94279e-07	0.421205	0.235353	8.80592	2.27796e-05	1.58951e-05	2.21041e-05	1.21968e-05	3.3516e-05	2.86297e-05	0.0710143	0.0312664	0.960699	1.26728e-06	1.09622e-06	8.83825e-07	5.13891e-07	4.77923e-07	5.5519e-07	0.154113	0.132092	0.202975	40.6002	1053.85	1229.54	1619.37	-49.3998	0.0000000E+000	0.0000000E+000	0.0000000E+000	49.3998	0.0000000E+000	0.0000000E+000	0.0000000E+000	-49.3998	0.0000000E+000	0.0000000E+000	0.0000000E+000	-40.6002	0.0000000E+000	0.0000000E+000	0.0000000E+000	40.6002	1.16671	49.3998	-3.51623e-06
15847.7	3.85509	3.93573	5.50924	-45.593	1108.25	0.459305	-0.000273942	2.5517	1.30226	1	38	0.0148125	0.00268867	0	2.8947e-06	0.520314	0.258438	8.89421	3.82612e-05	2.88111e-05	2.89578e-05	2.90512e-05	2.05571e-05	2.90298e-05	0.0948832	0.0154796	1.05916	1.66041e-06	1.13965e-06	3.05078e-07	8.34229e-07	6.1896e-07	9.49924e-07	0.127014	0.129671	0.181513	45.593	1302.26	1275.57	1822.9	-44.407	0.0000000E+000	0.0000000E+000	0.0000000E+000	44.407	0.0000000E+000	0.0000000E+000	0.0000000E+000	-44.407	0.0000000E+000	0.0000000E+000	0.0000000E+000	-45.593	0.0000000E+000	0.0000000E+000	0.0000000E+000	45.593	0.979512	44.407	3.28898e-06
12590.9	3.99737	4.83938	6.27682	-50.443	1109.4	0.459303	-0.000365184	2.612	1.55264	1	38	0.0147821	0.00235503	0	4.59563e-06	0.351818	0.343702	8.5505	1.13185e-05	1.6304e-05	1.56095e-05	2.06815e-05	3.4621e-05	1.65631e-05	0.149098	0.0355755	1.20964	3.08662e-06	9.45249e-07	6.51301e-07	3.59474e-07	8.25129e-07	5.8049e-07	0.10146	0.122831	0.159316	50.443	1552.64	1282.5	2013.83	-39.557	0.0000000E+000	0.0000000E+000	0.0000000E+000	39.557	0.0000000E+000	0.0000000E+000	0.0000000E+000	-39.557	0.0000000E+000	0.0000000E+000	0.0000000E+000	-50.443	0.0000000E+000	0.0000000E+000	0.0000000E+000	50.443	0.826009	39.557	1.70093e-06
10002.2	4.19	5.94329	7.27178	-54.8163	1110.54	0.459305	-0.000247894	2.6773	1.78842	1	38	0.0146323	0.0020122	0	8.95898e-06	0.41903	0.259609	8.68986	2.68219e-05	1.55572e-05	2.94613e-05	1.42994e-05	2.74201e-05	2.37807e-05	0.190041	0.0594975	1.42733	3.47398e-06	4.74084e-07	7.36962e-07	8.8631e-07	5.43514e-07	4.72305e-07	0.0792377	0.112395	0.137518	54.8163	1788.42	1260.83	2188.18	-35.1837	0.0000000E+000	0.0000000E+000	0.0000000E+000	35.1837	0.0000000E+000	0.0000000E+000	0.0000000E+000	-35.1837	0.0000000E+000	0.0000000E+000	0.0000000E+000	-54.8163	0.0000000E+000	0.0000000E+000	0.0000000E+000	54.8163	0.704996	35.1837	4.36335e-06
7944	4.44144	7.30569	8.54982	-58.7028	1111.72	0.459191	-0.000964745	2.74233	2.00229	1	38	0.0143697	0.0016807	0	8.76652e-06	0.463451	0.243929	9.04756	3.54434e-05	2.60065e-05	2.28564e-05	2.86727e-05	2.70349e-05	1.91286e-05	0.32082	0.0706426	1.73163	5.26898e-06	5.42212e-07	5.01814e-07	3.98293e-07	3.41875e-07	5.56177e-07	0.0607588	0.0999417	0.116961	58.7028	2002.29	1217.28	2343.28	-31.2972	0.0000000E+000	0.0000000E+000	0.0000000E+000	31.2972	0.0000000E+000	0.0000000E+000	0.0000000E+000	-31.2972	0.0000000E+000	0.0000000E+000	0.0000000E+000	-58.7028	0.0000000E+000	0.0000000E+000	0.0000000E+000	58.7028	0.607943	31.2972	-1.92463e-07
6307.74	4.74455	8.98176	10.1579	-62.1551	1112.77	0.459176	-0.00171326	2.80922	2.19635	1	38	0.0141452	0.00139253	0	9.33954e-06	0.550266	0.282988	9.05907	3.36414e-05	4.1032e-05	1.61459e-05	2.11157e-05	2.20887e-05	3.36295e-05	0.470797	0.0618165	2.04452	6.33867e-06	6.01208e-07	5.1986e-07	7.48261e-07	9.03538e-07	6.5435e-07	0.045982	0.0870472	0.0984457	62.1551	2196.35	1160.2	2483.95	-27.8449	0.0000000E+000	0.0000000E+000	0.0000000E+000	27.8449	0.0000000E+000	0.0000000E+000	0.0000000E+000	-27.8449	0.0000000E+000	0.0000000E+000	0.0000000E+000	-62.1551	0.0000000E+000	0.0000000E+000	0.0000000E+000	62.1551	0.528243	27.8449	5.73022e-07
5011.6	5.16389	11.042	12.1898	-64.9364	1113.89	0.459164	-0.00171884	2.87605	2.35992	1	38	0.0134376	0.00110237	0	8.09618e-06	0.532698	0.291187	9.70982	3.99611e-05	3.30219e-05	2.76261e-05	1.3568e-05	2.84706e-05	2.07894e-05	0.631628	0.075995	2.60212	6.60176e-06	1.297e-06	5.70788e-07	1.21915e-06	8.73596e-07	5.56746e-07	0.0347523	0.0743111	0.0820358	64.9364	2359.92	1103.64	2605.23	-25.0636	0.0000000E+000	0.0000000E+000	0.0000000E+000	25.0636	0.0000000E+000	0.0000000E+000	0.0000000E+000	-25.0636	0.0000000E+000	0.0000000E+000	0.0000000E+000	-64.9364	0.0000000E+000	0.0000000E+000	0.0000000E+000	64.9364	0.46766	25.0636	-1.24337e-06
3981.28	5.66455	13.551	14.6873	-67.3142	1115	0.459161	-0.00203538	2.95004	2.51123	1	38	0.0127781	0.000870012	0	7.60456e-06	0.537435	0.296071	10.2343	2.19124e-05	3.75191e-05	3.31724e-05	1.61564e-05	2.69262e-05	1.3348e-05	0.763788	0.108384	3.34802	6.01189e-06	2.3744e-06	6.23103e-07	5.90656e-07	8.4017e-07	8.2853e-07	0.0262593	0.0628186	0.0680862	67.3142	2511.23	1049.74	2721.8	-22.6858	0.0000000E+000	0.0000000E+000	0.0000000E+000	22.6858	0.0000000E+000	0.0000000E+000	0.0000000E+000	-22.6858	0.0000000E+000	0.0000000E+000	0.0000000E+000	-67.3142	0.0000000E+000	0.0000000E+000	0.0000000E+000	67.3142	0.418018	22.6858	-4.91619e-07
3163.04	6.34156	16.6111	17.7804	-69.1048	1116.32	0.459176	-0.00131854	3.02913	2.64381	1	38	0.0139779	0.000786141	0	7.37689e-06	0.626184	0.303135	9.3194	4.34844e-05	1.94461e-05	3.31679e-05	3.15714e-05	3.69941e-05	3.73436e-05	0.860371	0.139047	3.70191	6.08886e-06	2.50792e-06	5.47673e-07	6.96591e-07	6.69307e-07	7.989e-07	0.0200592	0.0525429	0.0562417	69.1048	2643.81	1009.32	2829.92	-20.8952	0.0000000E+000	0.0000000E+000	0.0000000E+000	20.8952	0.0000000E+000	0.0000000E+000	0.0000000E+000	-20.8952	0.0000000E+000	0.0000000E+000	0.0000000E+000	-69.1048	0.0000000E+000	0.0000000E+000	0.0000000E+000	69.1048	0.381767	20.8952	-2.27666e-07
2512.41	7.23107	20.3168	21.5653	-70.4086	1117.43	0.459168	-0.00152894	3.11798	2.76742	1	38	0.0135997	0.000630628	0	6.62838e-06	0.576143	0.303549	9.53832	2.86261e-05	2.87524e-05	3.16928e-05	1.9515e-05	2.39304e-05	3.93451e-05	0.822147	0.114248	4.56226	4.40985e-06	2.30446e-06	3.83744e-07	1.01912e-06	5.89945e-07	6.67305e-07	0.0155486	0.0436863	0.0463708	70.4086	2767.42	984.967	2937.48	-19.5914	0.0000000E+000	0.0000000E+000	0.0000000E+000	19.5914	0.0000000E+000	0.0000000E+000	0.0000000E+000	-19.5914	0.0000000E+000	0.0000000E+000	0.0000000E+000	-70.4086	0.0000000E+000	0.0000000E+000	0.0000000E+000	70.4086	0.355915	19.5914	-7.48509e-07
1995.64	8.27111	24.8134	26.1556	-71.5651	1118.54	0.459181	-0.00187526	3.21405	2.89264	1	38	0.0133527	0.000510509	0	6.35139e-06	0.615365	0.311641	9.61845	1.95497e-05	2.69898e-05	3.74732e-05	2.68727e-05	3.70255e-05	3.7832e-05	0.854421	0.140403	5.60902	3.1049e-06	2.51749e-06	4.09985e-07	1.25134e-06	7.27862e-07	4.4862e-07	0.0120902	0.0362707	0.0382327	71.5651	2892.64	964.211	3049.11	-18.4349	0.0000000E+000	0.0000000E+000	0.0000000E+000	18.4349	0.0000000E+000	0.0000000E+000	0.0000000E+000	-18.4349	0.0000000E+000	0.0000000E+000	0.0000000E+000	-71.5651	0.0000000E+000	0.0000000E+000	0.0000000E+000	71.5651	0.333332	18.4349	-2.76994e-07
1584.49	9.70725	30.3069	31.8236	-72.2399	1119.64	0.45918	-0.00149357	3.31427	3.00589	1	38	0.0132003	0.000414797	0	5.60924e-06	0.502455	0.2047	9.60748	3.44173e-05	2.65996e-05	2.46564e-05	2.18936e-05	1.97379e-05	2.34424e-05	0.850509	0.124101	6.87797	2.58427e-06	1.4369e-06	6.85254e-07	1.33881e-06	7.04517e-07	6.94862e-07	0.00958512	0.0299257	0.0314232	72.2399	3005.89	962.781	3156.32	-17.7601	0.0000000E+000	0.0000000E+000	0.0000000E+000	17.7601	0.0000000E+000	0.0000000E+000	0.0000000E+000	-17.7601	0.0000000E+000	0.0000000E+000	0.0000000E+000	-72.2399	0.0000000E+000	0.0000000E+000	0.0000000E+000	72.2399	0.320298	17.7601	-7.42147e-07
1258.79	11.446	37.0383	38.7666	-72.8273	1121	0.459164	-0.000169252	3.41362	3.11604	1	39	0.0147445	0.000380342	0	5.64815e-06	0.616481	0.283319	8.71204	5.7319e-05	2.86569e-05	1.42296e-05	2.20087e-05	2.70968e-05	4.32228e-05	1.32138	0.0913984	3.48788	4.39108e-06	2.32257e-06	2.28578e-07	5.19484e-07	1.63432e-07	3.98381e-07	0.00761618	0.0246454	0.0257954	72.8273	3116.04	962.951	3261.44	-17.1727	0.0000000E+000	0.0000000E+000	0.0000000E+000	17.1727	0.0000000E+000	0.0000000E+000	0.0000000E+000	-17.1727	0.0000000E+000	0.0000000E+000	0.0000000E+000	-72.8273	0.0000000E+000	0.0000000E+000	0.0000000E+000	72.8273	0.30903	17.1727	3.89134e-08
999.682	13.6098	44.9391	46.9547	-73.1511	1122.11	0.459164	-0.000384337	3.5427	3.24507	1	39	0.0140311	0.000298823	0	5.55933e-06	0.603768	0.326781	9.11991	4.12159e-05	4.39224e-05	1.71695e-05	3.0368e-05	2.71259e-05	1.98718e-05	1.21113	0.181107	4.45144	2.95644e-06	1.86049e-06	2.62877e-07	7.40851e-07	2.91158e-07	3.26087e-07	0.00617295	0.0203829	0.0212971	73.1511	3245.07	982.768	3390.62	-16.8489	0.0000000E+000	0.0000000E+000	0.0000000E+000	16.8489	0.0000000E+000	0.0000000E+000	0.0000000E+000	-16.8489	0.0000000E+000	0.0000000E+000	0.0000000E+000	-73.1511	0.0000000E+000	0.0000000E+000	0.0000000E+000	73.1511	0.30285	16.8489	-8.88237e-08
794.239	16.3566	54.6422	57.0378	-73.3355	1123.21	0.459177	-0.000237658	3.66725	3.36567	1	39	0.0136151	0.000238704	0	5.66261e-06	0.433035	0.341482	9.40045	1.49706e-05	3.09291e-05	1.48647e-05	1.88524e-05	3.17883e-05	2.11336e-05	1.13423	0.202483	5.54953	2.09837e-06	9.73056e-07	3.62981e-07	1.23829e-06	3.27237e-07	2.82285e-07	0.00502767	0.0167959	0.0175322	73.3355	3365.67	1007.48	3513.23	-16.6645	0.0000000E+000	0.0000000E+000	0.0000000E+000	16.6645	0.0000000E+000	0.0000000E+000	0.0000000E+000	-16.6645	0.0000000E+000	0.0000000E+000	0.0000000E+000	-73.3355	0.0000000E+000	0.0000000E+000	0.0000000E+000	73.3355	0.299339	16.6645	1.03275e-07
631.01	19.8419	66.2294	69.1377	-73.3221	1124.32	0.459158	5.02976e-05	3.80832	3.49465	1	39	0.0133462	0.000193038	0	5.85512e-06	0.519916	0.229416	9.48182	2.45358e-05	1.71791e-05	1.4943e-05	3.89377e-05	2.72949e-05	3.03997e-05	1.0255	0.222841	6.87956	1.39278e-06	8.19878e-07	2.14686e-07	9.54456e-07	2.76259e-07	3.86193e-07	0.004151	0.0138554	0.0144639	73.3221	3494.65	1046.98	3648.12	-16.6779	0.0000000E+000	0.0000000E+000	0.0000000E+000	16.6779	0.0000000E+000	0.0000000E+000	0.0000000E+000	-16.6779	0.0000000E+000	0.0000000E+000	0.0000000E+000	-73.3221	0.0000000E+000	0.0000000E+000	0.0000000E+000	73.3221	0.299594	16.6779	1.92517e-07
501.122	24.121	80.4688	84.0062	-73.3136	1125.42	0.459206	-0.000180815	3.94684	3.62144	1	39	0.0131979	0.000157107	0	5.76356e-06	0.463577	0.294245	9.34374	1.89584e-05	2.38917e-05	2.80656e-05	2.56071e-05	1.65317e-05	2.79865e-05	1.09883	0.211438	8.20879	1.10563e-06	7.50366e-07	1.73913e-07	1.0363e-06	8.21525e-08	2.09074e-07	0.003418	0.0114026	0.0119039	73.3136	3621.44	1085.55	3780.64	-16.6864	0.0000000E+000	0.0000000E+000	0.0000000E+000	16.6864	0.0000000E+000	0.0000000E+000	0.0000000E+000	-16.6864	0.0000000E+000	0.0000000E+000	0.0000000E+000	-73.3136	0.0000000E+000	0.0000000E+000	0.0000000E+000	73.3136	0.299756	16.6864	-9.15585e-08
398.089	29.844	97.3991	101.869	-72.9644	1126.53	0.459151	0.00015038	4.10473	3.75243	1	39	0.0130965	0.000128562	0	5.78597e-06	0.404651	0.360464	9.41471	1.97287e-05	2.50045e-05	1.53503e-05	1.36328e-05	2.27905e-05	2.10729e-05	1.09179	0.24218	10.0961	8.85029e-07	5.66552e-07	2.54055e-07	6.9802e-07	3.30683e-07	3.41799e-07	0.00287591	0.00938583	0.00981655	72.9644	3752.43	1149.78	3924.63	-17.0356	0.0000000E+000	0.0000000E+000	0.0000000E+000	17.0356	0.0000000E+000	0.0000000E+000	0.0000000E+000	-17.0356	0.0000000E+000	0.0000000E+000	0.0000000E+000	-72.9644	0.0000000E+000	0.0000000E+000	0.0000000E+000	72.9644	0.30641	17.0356	2.24087e-08
316.316	36.5711	117.331	122.898	-72.6881	1127.64	0.459175	7.82511e-05	4.28832	3.90859	1	39	0.0130097	0.000105858	0	5.86061e-06	0.57532	0.265637	9.69337	1.95642e-05	3.36517e-05	4.19039e-05	2.51748e-05	2.88771e-05	2.08387e-05	1.16904	0.270983	12.5157	8.06768e-07	4.86641e-07	3.19049e-07	3.9296e-07	3.27708e-07	2.64104e-07	0.00242129	0.00776821	0.00813681	72.6881	3908.59	1218.28	4094.05	-17.3119	0.0000000E+000	0.0000000E+000	0.0000000E+000	17.3119	0.0000000E+000	0.0000000E+000	0.0000000E+000	-17.3119	0.0000000E+000	0.0000000E+000	0.0000000E+000	-72.6881	0.0000000E+000	0.0000000E+000	0.0000000E+000	72.6881	0.311692	17.3119	7.46324e-08
251.206	44.7853	141.487	148.406	-72.4357	1128.74	0.459204	-0.00018939	4.47789	4.07009	1	39	0.012975	8.74291e-05	0	5.95214e-06	0.612016	0.237969	9.72171	4.35937e-05	1.9211e-05	2.27662e-05	2.63337e-05	2.78247e-05	3.63116e-05	1.55226	0.482467	15.1003	9.92839e-07	3.66275e-07	3.18722e-07	4.90046e-07	2.73781e-07	4.36009e-07	0.00203345	0.00642413	0.00673828	72.4357	4070.09	1288.32	4269.13	-17.5643	0.0000000E+000	0.0000000E+000	0.0000000E+000	17.5643	0.0000000E+000	0.0000000E+000	0.0000000E+000	-17.5643	0.0000000E+000	0.0000000E+000	0.0000000E+000	-72.4357	0.0000000E+000	0.0000000E+000	0.0000000E+000	72.4357	0.316533	17.5643	9.15323e-08
199.553	55.4948	170.132	178.954	-71.9344	1129.85	0.459175	0.000262393	4.68786	4.23705	1	39	0.012928	7.22422e-05	0	5.89055e-06	0.677239	0.258172	9.88639	3.06251e-05	3.08437e-05	2.96265e-05	3.39903e-05	4.53775e-05	2.87022e-05	1.64501	0.720749	18.446	8.31716e-07	3.69007e-07	3.08731e-07	3.81103e-07	3.68925e-07	3.40317e-07	0.00173288	0.00531254	0.00558802	71.9344	4237.05	1382.07	4456.76	-18.0656	0.0000000E+000	0.0000000E+000	0.0000000E+000	18.0656	0.0000000E+000	0.0000000E+000	0.0000000E+000	-18.0656	0.0000000E+000	0.0000000E+000	0.0000000E+000	-71.9344	0.0000000E+000	0.0000000E+000	0.0000000E+000	71.9344	0.326187	18.0656	-6.15888e-08
158.529	68.9576	203.76	215.112	-71.3029	1130.96	0.459172	0.000149074	4.92711	4.42079	1	39	0.0129063	5.99977e-05	0	5.85163e-06	0.538628	0.274054	9.84321	1.24321e-05	2.00056e-05	2.14473e-05	3.29575e-05	3.74863e-05	2.91553e-05	1.55305	0.569976	22.5218	4.93386e-07	3.43108e-07	3.44767e-07	2.27306e-07	3.45871e-07	3.46903e-07	0.00149022	0.0044034	0.00464873	71.3029	4420.79	1496.11	4667.09	-18.6971	0.0000000E+000	0.0000000E+000	0.0000000E+000	18.6971	0.0000000E+000	0.0000000E+000	0.0000000E+000	-18.6971	0.0000000E+000	0.0000000E+000	0.0000000E+000	-71.3029	0.0000000E+000	0.0000000E+000	0.0000000E+000	71.3029	0.338425	18.6971	-3.89179e-08
125.927	86.6905	245.099	259.978	-70.5215	1132.31	0.459227	-6.03341e-05	5.15657	4.58321	1	40	0.013184	5.07118e-05	0	5.89311e-06	0.898017	0.403266	15.3341	3.92808e-05	2.40289e-05	6.89423e-05	4.2464e-05	3.63873e-05	4.10907e-05	1.06712	0.14477	5.12633	4.12138e-07	2.16731e-07	8.50156e-08	2.52566e-07	2.96373e-08	4.3696e-08	0.00128262	0.00362633	0.00384648	70.5215	4583.21	1621.06	4861.44	-19.4785	0.0000000E+000	0.0000000E+000	0.0000000E+000	19.4785	0.0000000E+000	0.0000000E+000	0.0000000E+000	-19.4785	0.0000000E+000	0.0000000E+000	0.0000000E+000	-70.5215	0.0000000E+000	0.0000000E+000	0.0000000E+000	70.5215	0.353696	19.4785	4.14741e-08
99.9682	108.355	293.335	312.708	-69.7262	1133.4	0.459157	7.00179e-06	5.42744	4.77579	1	40	0.0130683	4.17908e-05	0	5.857e-06	0.790154	0.497342	15.5179	1.85105e-05	4.02908e-05	3.86956e-05	5.55415e-05	4.0271e-05	2.64935e-05	0.935066	0.252418	6.354	3.30667e-07	1.50716e-07	5.10296e-08	1.17757e-07	4.00913e-08	2.54307e-08	0.00110808	0.00299976	0.00319788	69.7262	4775.79	1764.13	5091.2	-20.2737	0.0000000E+000	0.0000000E+000	0.0000000E+000	20.2737	0.0000000E+000	0.0000000E+000	0.0000000E+000	-20.2737	0.0000000E+000	0.0000000E+000	0.0000000E+000	-69.7262	0.0000000E+000	0.0000000E+000	0.0000000E+000	69.7262	0.36939	20.2737	-3.6104e-08
79.4157	134.564	350.402	375.352	-68.9918	1134.47	0.45916	4.63601e-06	5.71935	4.98428	1	40	0.0129932	3.4616e-05	0	5.81069e-06	0.783918	0.597317	15.4061	2.86035e-05	4.3859e-05	4.3947e-05	3.98433e-05	2.63532e-05	4.8264e-05	0.965893	0.285022	7.62479	2.46909e-07	1.45275e-07	3.9974e-08	1.49941e-07	3.67592e-08	5.29128e-08	0.000955107	0.00248708	0.00266417	68.9918	4984.28	1914.1	5339.18	-21.0082	0.0000000E+000	0.0000000E+000	0.0000000E+000	21.0082	0.0000000E+000	0.0000000E+000	0.0000000E+000	-21.0082	0.0000000E+000	0.0000000E+000	0.0000000E+000	-68.9918	0.0000000E+000	0.0000000E+000	0.0000000E+000	68.9918	0.384028	21.0082	-4.63152e-08
63.0823	168.214	419.352	451.832	-68.1429	1135.55	0.459213	-7.56646e-05	6.01636	5.18248	1	40	0.0130001	2.8772e-05	0	5.79246e-06	0.809299	0.528785	15.4302	5.55326e-05	2.24026e-05	4.26304e-05	4.53811e-05	4.38908e-05	2.62083e-05	1.02246	0.298539	9.23763	2.3236e-07	1.08977e-07	4.94254e-08	1.02358e-07	6.52887e-08	2.83418e-08	0.000823962	0.00205412	0.00221321	68.1429	5182.48	2078.83	5583.88	-21.8571	0.0000000E+000	0.0000000E+000	0.0000000E+000	21.8571	0.0000000E+000	0.0000000E+000	0.0000000E+000	-21.8571	0.0000000E+000	0.0000000E+000	0.0000000E+000	-68.1429	0.0000000E+000	0.0000000E+000	0.0000000E+000	68.1429	0.401127	21.8571	-1.82258e-08
50.1122	211.889	494.748	538.212	-66.8157	1136.61	0.459272	-0.00012415	6.41937	5.42442	1	40	0.0129257	2.4016e-05	0	5.78125e-06	0.779212	0.428087	15.8697	3.41604e-05	2.86121e-05	4.00529e-05	4.30756e-05	5.20333e-05	3.26372e-05	1.01855	0.323095	11.24	1.77652e-07	7.66206e-08	5.59959e-08	1.18659e-07	4.72594e-08	3.86001e-08	0.000731478	0.00170796	0.001858	66.8157	5424.42	2323.15	5900.97	-23.1843	0.0000000E+000	0.0000000E+000	0.0000000E+000	23.1843	0.0000000E+000	0.0000000E+000	0.0000000E+000	-23.1843	0.0000000E+000	0.0000000E+000	0.0000000E+000	-66.8157	0.0000000E+000	0.0000000E+000	0.0000000E+000	66.8157	0.428276	23.1843	-1.12157e-08
39.8089	264.785	585.677	642.751	-65.6722	1137.68	0.459206	-6.02417e-05	6.82625	5.66778	1	40	0.0129126	2.00896e-05	0	5.73437e-06	0.827811	0.328843	15.075	3.31368e-05	3.64645e-05	3.58289e-05	7.48983e-05	2.56174e-05	2.25752e-05	0.991557	0.333543	12.6767	1.4706e-07	6.0735e-08	4.40415e-08	7.17383e-08	3.48185e-08	4.73622e-08	0.000640927	0.00141766	0.00155581	65.6722	5667.78	2562.41	6220.1	-24.3278	0.0000000E+000	0.0000000E+000	0.0000000E+000	24.3278	0.0000000E+000	0.0000000E+000	0.0000000E+000	-24.3278	0.0000000E+000	0.0000000E+000	0.0000000E+000	-65.6722	0.0000000E+000	0.0000000E+000	0.0000000E+000	65.6722	0.452102	24.3278	-4.68775e-08
31.6296	333.894	685.739	762.707	-64.038	1138.72	0.459139	1.04657e-05	7.33784	5.93157	1	40	0.0128744	1.68799e-05	0	5.70493e-06	0.73829	0.448877	15.7658	6.47933e-05	3.25268e-05	2.73488e-05	2.18854e-05	3.4666e-05	2.40089e-05	1.24019	0.355839	15.8745	1.72607e-07	7.99175e-08	3.92246e-08	3.35884e-08	5.03384e-08	2.38291e-08	0.000573974	0.00117881	0.00131112	64.038	5931.57	2888.15	6597.34	-25.962	0.0000000E+000	0.0000000E+000	0.0000000E+000	25.962	0.0000000E+000	0.0000000E+000	0.0000000E+000	-25.962	0.0000000E+000	0.0000000E+000	0.0000000E+000	-64.038	0.0000000E+000	0.0000000E+000	0.0000000E+000	64.038	0.486911	25.962	-2.94376e-08
25.1206	422.896	799.157	904.154	-62.1132	1139.79	0.459193	-3.89515e-05	7.92789	6.19353	1	40	0.0128603	1.42236e-05	0	5.66867e-06	1.01591	0.53181	15.127	3.44739e-05	4.5097e-05	7.08554e-05	3.52748e-05	5.74795e-05	5.26467e-05	1.48696	0.61422	17.9569	8.92546e-08	6.05745e-08	8.93496e-08	1.02114e-07	7.36238e-08	7.6944e-08	0.000517309	0.00097757	0.00110601	62.1132	6193.52	3277.48	7007.25	-27.8868	0.0000000E+000	0.0000000E+000	0.0000000E+000	27.8868	0.0000000E+000	0.0000000E+000	0.0000000E+000	-27.8868	0.0000000E+000	0.0000000E+000	0.0000000E+000	-62.1132	0.0000000E+000	0.0000000E+000	0.0000000E+000	62.1132	0.529178	27.8868	-3.62648e-08
19.9553	528.339	935.208	1074.13	-60.536	1140.86	0.459195	-6.30733e-05	8.52811	6.4648	1	40	0.012895	1.20051e-05	0	5.66642e-06	0.891936	0.434968	15.5755	6.02633e-05	4.85489e-05	4.27215e-05	3.8582e-05	3.30215e-05	2.78938e-05	1.44676	0.341678	21.7714	1.18395e-07	6.54157e-08	6.9446e-08	1.72424e-08	4.29244e-08	4.61758e-08	0.00045793	0.000810577	0.000930986	60.536	6464.8	3652.24	7425.13	-29.464	0.0000000E+000	0.0000000E+000	0.0000000E+000	29.464	0.0000000E+000	0.0000000E+000	0.0000000E+000	-29.464	0.0000000E+000	0.0000000E+000	0.0000000E+000	-60.536	0.0000000E+000	0.0000000E+000	0.0000000E+000	60.536	0.564943	29.464	-2.24376e-09
15.8469	668.262	1073.92	1264.86	-58.1075	1141.9	0.459226	-9.24106e-05	9.352	6.74158	1	40	0.0129069	1.02042e-05	0	5.60672e-06	0.892617	0.447045	15.8682	5.80551e-05	4.55948e-05	4.98884e-05	3.89602e-05	4.59839e-05	2.68559e-05	1.66567	0.709886	25.9713	1.02811e-07	9.3712e-08	4.38006e-08	4.1473e-08	4.68403e-08	3.00155e-08	0.000417695	0.000671251	0.000790599	58.1075	6741.58	4195.04	7940.23	-31.8925	0.0000000E+000	0.0000000E+000	0.0000000E+000	31.8925	0.0000000E+000	0.0000000E+000	0.0000000E+000	-31.8925	0.0000000E+000	0.0000000E+000	0.0000000E+000	-58.1075	0.0000000E+000	0.0000000E+000	0.0000000E+000	58.1075	0.622264	31.8925	-5.96979e-08
12.5873	834.322	1212.76	1472.03	-55.4738	1143.37	0.459183	-4.06178e-05	10.4259	7.07664	1	41	0.0128847	8.75303e-06	0	5.60345e-06	0.73052	0.370221	14.1358	2.43683e-05	4.9095e-05	3.31315e-05	2.88535e-05	3.29927e-05	4.11829e-05	0.917407	0.111706	4.18044	6.7624e-08	3.07535e-08	1.76311e-08	2.23455e-08	5.25361e-09	6.83793e-09	0.000385034	0.00055968	0.000679333	55.4738	7076.64	4868.41	8589.54	-34.5262	0.0000000E+000	0.0000000E+000	0.0000000E+000	34.5262	0.0000000E+000	0.0000000E+000	0.0000000E+000	-34.5262	0.0000000E+000	0.0000000E+000	0.0000000E+000	-55.4738	0.0000000E+000	0.0000000E+000	0.0000000E+000	55.4738	0.687954	34.5262	-3.27126e-09
9.99682	1048.19	1359.3	1716.51	-52.3632	1144.43	0.459173	-4.6728e-05	11.7124	7.34483	1	41	0.0129205	7.52719e-06	0	5.57501e-06	0.871333	0.619413	19.3236	2.68391e-05	5.12736e-05	5.41674e-05	3.53255e-05	2.85243e-05	5.06185e-05	1.03485	0.190097	6.45284	6.07293e-08	2.93171e-08	1.01171e-08	3.48356e-08	5.56331e-09	7.83985e-09	0.000355754	0.000461343	0.000582579	52.3632	7344.83	5663.81	9274.98	-37.6368	0.0000000E+000	0.0000000E+000	0.0000000E+000	37.6368	0.0000000E+000	0.0000000E+000	0.0000000E+000	-37.6368	0.0000000E+000	0.0000000E+000	0.0000000E+000	-52.3632	0.0000000E+000	0.0000000E+000	0.0000000E+000	52.3632	0.771128	37.6368	-2.84417e-08
7.93956	1283.43	1500.89	1974.81	-49.4659	1145.63	0.45919	-4.78305e-05	13.3559	7.71478	1	41	0.0129147	6.5397e-06	0	5.61077e-06	0.74164	0.31832	13.9185	3.17759e-05	4.18687e-05	2.2825e-05	3.37684e-05	3.08165e-05	5.17316e-05	0.822817	0.178154	5.50674	4.58555e-08	2.21215e-08	5.13399e-09	1.10998e-08	4.38059e-09	8.50774e-09	0.000329096	0.000384858	0.000506379	49.4659	7714.78	6596.99	10150.8	-40.5341	0.0000000E+000	0.0000000E+000	0.0000000E+000	40.5341	0.0000000E+000	0.0000000E+000	0.0000000E+000	-40.5341	0.0000000E+000	0.0000000E+000	0.0000000E+000	-49.4659	0.0000000E+000	0.0000000E+000	0.0000000E+000	49.4659	0.85511	40.5341	3.57595e-08
6.31058	1563.37	1601.92	2238.36	-45.6978	1147.02	0.459178	-4.76182e-05	15.7438	8.06363	1	41	0.0128573	5.74406e-06	0	5.51888e-06	0.8032	0.405248	13.974	3.83377e-05	3.36579e-05	4.19376e-05	3.09714e-05	4.30348e-05	5.09483e-05	0.961423	0.236197	6.21485	4.56433e-08	2.12152e-08	6.51962e-09	1.33866e-08	6.37534e-09	1.11894e-08	0.000312033	0.000319727	0.000446755	45.6978	8063.63	7869.56	11267.3	-44.3022	0.0000000E+000	0.0000000E+000	0.0000000E+000	44.3022	0.0000000E+000	0.0000000E+000	0.0000000E+000	-44.3022	0.0000000E+000	0.0000000E+000	0.0000000E+000	-45.6978	0.0000000E+000	0.0000000E+000	0.0000000E+000	45.6978	0.975933	44.3022	-9.18861e-08
5.01283	1876.98	1684	2521.69	-41.8981	1148.64	0.459222	-5.38715e-05	18.8536	8.40808	1	41	0.0128654	5.1019e-06	0	5.51143e-06	0.574656	0.372618	11.1632	2.28016e-05	2.45594e-05	3.7946e-05	2.94983e-05	2.87724e-05	1.62048e-05	0.85211	0.20633	5.63505	3.61782e-08	1.7722e-08	7.13391e-09	1.24157e-08	5.51693e-09	3.44005e-09	0.000295173	0.000264826	0.00039656	41.8981	8408.08	9371.6	12590.6	-48.1019	0.0000000E+000	0.0000000E+000	0.0000000E+000	48.1019	0.0000000E+000	0.0000000E+000	0.0000000E+000	-48.1019	0.0000000E+000	0.0000000E+000	0.0000000E+000	-41.8981	0.0000000E+000	0.0000000E+000	0.0000000E+000	41.8981	1.11459	48.1019	-7.45878e-09
3.9819	2209.1	1723.51	2801.89	-37.961	1150.56	0.459203	-4.604e-05	23.1907	8.77488	1	41	0.0128676	4.59245e-06	0	5.46694e-06	0.615067	0.351613	9.81561	3.70308e-05	3.12782e-05	3.78454e-05	1.06356e-05	2.63121e-05	2.31823e-05	0.908878	0.203141	5.59168	3.46972e-08	1.70797e-08	6.37355e-09	1.14011e-08	4.97281e-09	4.40133e-09	0.000281392	0.000219539	0.000356902	37.961	8774.88	11247.1	14265.2	-52.039	0.0000000E+000	0.0000000E+000	0.0000000E+000	52.039	0.0000000E+000	0.0000000E+000	0.0000000E+000	-52.039	0.0000000E+000	0.0000000E+000	0.0000000E+000	-37.961	0.0000000E+000	0.0000000E+000	0.0000000E+000	37.961	1.28174	52.039	-4.4489e-08
3.16296	2546.01	1722.43	3073.92	-34.0792	1152.87	0.459209	-4.83336e-05	29.2136	9.17244	1	41	0.0128797	4.18999e-06	0	5.4357e-06	0.42731	0.245353	8.78802	1.80823e-05	2.25188e-05	2.83396e-05	1.03971e-05	1.69364e-05	2.00598e-05	0.866528	0.185716	5.45767	3.09153e-08	1.44589e-08	6.12257e-09	7.93756e-09	3.51145e-09	3.9845e-09	0.000269449	0.000182288	0.000325318	34.0792	9172.44	13558.2	16369.5	-55.9208	0.0000000E+000	0.0000000E+000	0.0000000E+000	55.9208	0.0000000E+000	0.0000000E+000	0.0000000E+000	-55.9208	0.0000000E+000	0.0000000E+000	0.0000000E+000	-34.0792	0.0000000E+000	0.0000000E+000	0.0000000E+000	34.0792	1.47815	55.9208	-3.12343e-08
2.51085	2860.18	1670.29	3312.17	-30.2841	1155.67	0.459195	-4.58836e-05	37.9497	9.65086	1	41	0.0128575	3.88188e-06	0	5.40851e-06	0.36683	0.226219	7.51771	2.901e-05	1.73415e-05	1.46063e-05	1.37495e-05	1.61651e-05	1.31565e-05	0.875554	0.133402	5.1612	3.0015e-08	1.3147e-08	2.63233e-09	7.20573e-09	2.58797e-09	2.51996e-09	0.000260716	0.000152253	0.000301917	30.2841	9650.86	16526	19137.6	-59.7159	0.0000000E+000	0.0000000E+000	0.0000000E+000	59.7159	0.0000000E+000	0.0000000E+000	0.0000000E+000	-59.7159	0.0000000E+000	0.0000000E+000	0.0000000E+000	-30.2841	0.0000000E+000	0.0000000E+000	0.0000000E+000	30.2841	1.71239	59.7159	-2.71916e-08
1.99553	3163.91	1590.59	3541.23	-26.69	1159.09	0.45921	-4.9378e-05	50.1421	10.116	1	41	0.0128766	3.63619e-06	0	5.31624e-06	0.394332	0.190896	6.55555	2.17328e-05	2.01031e-05	1.32826e-05	3.01039e-05	1.62905e-05	1.05189e-05	0.865988	0.128233	4.88853	2.7746e-08	1.31298e-08	2.51552e-09	3.20703e-09	3.07846e-09	1.59974e-09	0.000252299	0.000126838	0.000282388	26.69	10116	20122.3	22522	-63.31	0.0000000E+000	0.0000000E+000	0.0000000E+000	63.31	0.0000000E+000	0.0000000E+000	0.0000000E+000	-63.31	0.0000000E+000	0.0000000E+000	0.0000000E+000	-26.69	0.0000000E+000	0.0000000E+000	0.0000000E+000	26.69	1.98914	63.31	-9.227e-08
1.58533	3427.32	1472.48	3730.25	-23.2498	1164.62	0.45921	-5.2915e-05	68.1793	10.6237	1	42	0.0128636	3.44845e-06	0	5.29702e-06	0.331868	0.107342	6.03156	2.67033e-05	1.38222e-05	7.19608e-06	1.71714e-05	1.01839e-05	1.88177e-05	0.783651	0.0238603	1.06802	2.40945e-08	1.13897e-08	7.04147e-10	4.27429e-09	7.62221e-10	6.66561e-10	0.000246309	0.000105821	0.000268079	23.2498	10623.7	24727.6	26913.1	-66.7502	0.0000000E+000	0.0000000E+000	0.0000000E+000	66.7502	0.0000000E+000	0.0000000E+000	0.0000000E+000	-66.7502	0.0000000E+000	0.0000000E+000	0.0000000E+000	-23.2498	0.0000000E+000	0.0000000E+000	0.0000000E+000	23.2498	2.32759	66.7502	-1.92233e-08
1.25825	3663.6	1345.83	3902.98	-20.1709	1169.83	0.459186	-5.18578e-05	93.9857	11.175	1	42	0.0128821	3.30058e-06	0	5.2742e-06	0.362684	0.243566	5.58871	1.39219e-05	1.16937e-05	1.77098e-05	1.52448e-05	2.8492e-05	1.40829e-05	0.756881	0.0537886	1.02766	2.22328e-08	1.04062e-08	6.52197e-10	4.47963e-09	4.84731e-10	5.58971e-10	0.0002405	8.83481e-05	0.000256215	20.1709	11175	30420.6	32408.2	-69.8291	0.0000000E+000	0.0000000E+000	0.0000000E+000	69.8291	0.0000000E+000	0.0000000E+000	0.0000000E+000	-69.8291	0.0000000E+000	0.0000000E+000	0.0000000E+000	-20.1709	0.0000000E+000	0.0000000E+000	0.0000000E+000	20.1709	2.72219	69.8291	-2.28126e-08
1.00006	3854.44	1216.69	4041.91	-17.5188	1176.29	0.459226	-4.92636e-05	130.802	11.8522	1	42	0.0128706	3.18428e-06	0	5.11583e-06	0.241417	0.182115	4.81252	1.43233e-05	5.25612e-06	1.08946e-05	7.59203e-06	1.45897e-05	1.51658e-05	0.763413	0.0558134	0.991351	2.19107e-08	9.78994e-09	5.30876e-10	3.66091e-09	7.71497e-10	4.09355e-10	0.000235933	7.44743e-05	0.000247408	17.5188	11852.2	37547.5	39373.7	-72.4812	0.0000000E+000	0.0000000E+000	0.0000000E+000	72.4812	0.0000000E+000	0.0000000E+000	0.0000000E+000	-72.4812	0.0000000E+000	0.0000000E+000	0.0000000E+000	-17.5188	0.0000000E+000	0.0000000E+000	0.0000000E+000	17.5188	3.16797	72.4812	-1.58379e-07
0.79456	4016.96	1092.82	4162.96	-15.2191	1184.31	0.459222	-4.98648e-05	183.293	12.631	1	42	0.0128702	3.09161e-06	0	4.90956e-06	0.223212	0.129449	4.20982	1.28317e-05	9.74197e-06	1.15036e-05	1.733e-05	4.3667e-06	6.86737e-06	0.750577	0.0419144	0.966497	2.09101e-08	9.53959e-09	5.91704e-10	3.06647e-09	3.20124e-10	3.95812e-10	0.000231789	6.30588e-05	0.000240214	15.2191	12631	46428.8	48116.3	-74.7809	0.0000000E+000	0.0000000E+000	0.0000000E+000	74.7809	0.0000000E+000	0.0000000E+000	0.0000000E+000	-74.7809	0.0000000E+000	0.0000000E+000	0.0000000E+000	-15.2191	0.0000000E+000	0.0000000E+000	0.0000000E+000	15.2191	3.67577	74.7809	-2.06264e-07
0.630906	4151.39	980.1	4265.51	-13.2837	1194.3	0.459199	-5.21454e-05	257.386	13.5889	1	42	0.012864	3.01581e-06	0	5.09123e-06	0.214685	0.131276	3.79491	6.81324e-06	1.87448e-05	1.12653e-05	7.60034e-06	9.19797e-06	5.09934e-06	0.762643	0.02609	1.04735	2.09384e-08	8.98947e-09	3.7243e-10	3.01384e-09	2.17949e-10	4.42553e-10	0.000228166	5.38676e-05	0.000234438	13.2837	13588.9	57558.1	59140.4	-76.7163	0.0000000E+000	0.0000000E+000	0.0000000E+000	76.7163	0.0000000E+000	0.0000000E+000	0.0000000E+000	-76.7163	0.0000000E+000	0.0000000E+000	0.0000000E+000	-13.2837	0.0000000E+000	0.0000000E+000	0.0000000E+000	13.2837	4.23567	76.7163	1.81671e-07
0.500946	4269.29	875.466	4358.12	-11.5885	1206.81	0.459206	-4.97632e-05	362.903	14.6443	1	42	0.0128638	2.95168e-06	0	4.75323e-06	0.222059	0.102057	3.34542	9.19529e-06	1.49639e-05	1.33006e-05	8.85545e-06	8.1541e-06	1.0628e-05	0.761256	0.055512	1.09333	2.0301e-08	9.08887e-09	1.98375e-10	3.11009e-09	5.5876e-10	9.75101e-11	0.000224779	4.60935e-05	0.000229456	11.5885	14644.3	71414.3	72900.4	-78.4115	0.0000000E+000	0.0000000E+000	0.0000000E+000	78.4115	0.0000000E+000	0.0000000E+000	0.0000000E+000	-78.4115	0.0000000E+000	0.0000000E+000	0.0000000E+000	-11.5885	0.0000000E+000	0.0000000E+000	0.0000000E+000	11.5885	4.87659	78.4115	-3.37999e-07
0.398211	4369.61	785.561	4439.66	-10.1917	1222.46	0.459211	-4.83588e-05	508.776	15.9289	1	42	0.0128663	2.89803e-06	0	4.17313e-06	0.145793	0.111909	2.86617	5.26064e-06	9.45676e-06	6.52654e-06	7.38976e-06	6.92717e-06	8.41722e-06	0.757258	0.0374134	1.12931	2.00592e-08	8.45846e-09	4.02803e-10	2.65783e-09	4.65681e-10	3.54816e-10	0.000221688	3.98548e-05	0.000225242	10.1917	15928.9	88603.2	90023.7	-79.8083	0.0000000E+000	0.0000000E+000	0.0000000E+000	79.8083	0.0000000E+000	0.0000000E+000	0.0000000E+000	-79.8083	0.0000000E+000	0.0000000E+000	0.0000000E+000	-10.1917	0.0000000E+000	0.0000000E+000	0.0000000E+000	10.1917	5.56241	79.8083	-5.80103e-07
0.316193	4455.46	707.413	4511.27	-9.0218	1242.09	0.459222	-4.76637e-05	711.533	17.4962	1	42	0.0128602	2.85068e-06	0	4.05744e-06	0.172312	0.0642594	2.58675	4.11488e-06	1.00083e-05	1.05217e-05	1.06456e-05	7.11016e-06	7.83841e-06	0.775515	0.0596895	1.12675	2.01396e-08	8.67541e-09	4.33319e-10	2.64588e-09	4.59146e-10	4.12981e-10	0.000218925	3.47597e-05	0.000221667	9.0218	17496.2	110195	111576	-80.9782	0.0000000E+000	0.0000000E+000	0.0000000E+000	80.9782	0.0000000E+000	0.0000000E+000	0.0000000E+000	-80.9782	0.0000000E+000	0.0000000E+000	0.0000000E+000	-9.0218	0.0000000E+000	0.0000000E+000	0.0000000E+000	9.0218	6.29824	80.9782	-1.15689e-07
0.251222	4532.89	640.139	4577.87	-8.03821	1266.71	0.459226	-4.57375e-05	989.666	19.3513	1	42	0.0128648	2.81022e-06	0	4.27286e-06	0.137055	0.0748719	2.34865	5.93326e-06	5.7432e-06	5.22576e-06	1.20244e-05	2.85601e-06	5.90962e-06	0.785513	0.063046	1.16139	2.02049e-08	8.55814e-09	2.25823e-10	2.3577e-09	3.57587e-10	1.58196e-10	0.000216296	3.05455e-05	0.000218442	8.03821	19351.3	137029	138388	-81.9618	0.0000000E+000	0.0000000E+000	0.0000000E+000	81.9618	0.0000000E+000	0.0000000E+000	0.0000000E+000	-81.9618	0.0000000E+000	0.0000000E+000	0.0000000E+000	-8.03821	0.0000000E+000	0.0000000E+000	0.0000000E+000	8.03821	7.0811	81.9618	2.15423e-07
0.199573	4602.34	581.818	4638.97	-7.20499	1297.61	0.459227	-4.26449e-05	1370.66	21.5607	1	42	0.0128674	2.77376e-06	0	4.15782e-06	0.132814	0.0601608	2.08254	4.62902e-06	6.64046e-06	6.50876e-06	1.08392e-05	4.3163e-06	4.72531e-06	0.790764	0.0628562	1.16589	2.01168e-08	8.40203e-09	3.48393e-10	2.32597e-09	3.04153e-10	2.31795e-10	0.000213863	2.70361e-05	0.000215565	7.20499	21560.7	170551	171908	-82.795	0.0000000E+000	0.0000000E+000	0.0000000E+000	82.795	0.0000000E+000	0.0000000E+000	0.0000000E+000	-82.795	0.0000000E+000	0.0000000E+000	0.0000000E+000	-7.20499	0.0000000E+000	0.0000000E+000	0.0000000E+000	7.20499	7.91027	82.795	-1.15049e-07
0.158419	4663.4	534.862	4693.97	-6.54287	1336.47	0.459222	-4.269e-05	1878.33	24.3879	1	42	0.0128654	2.74083e-06	0	3.34385e-06	0.131846	0.0558715	1.89177	5.68995e-06	1.12549e-05	6.03949e-06	8.67306e-06	2.63619e-06	1.51143e-06	0.778172	0.0584722	1.18654	1.96476e-08	8.02637e-09	2.94206e-10	2.0478e-09	1.36631e-10	2.2861e-10	0.000211652	2.42751e-05	0.000213039	6.54287	24387.9	212635	214029	-83.4571	0.0000000E+000	0.0000000E+000	0.0000000E+000	83.4571	0.0000000E+000	0.0000000E+000	0.0000000E+000	-83.4571	0.0000000E+000	0.0000000E+000	0.0000000E+000	-6.54287	0.0000000E+000	0.0000000E+000	0.0000000E+000	6.54287	8.71888	83.4571	-8.13963e-07
0.125939	4717.35	496.273	4743.39	-6.00551	1385.27	0.459228	-4.12335e-05	2546.48	27.8743	1	42	0.0128675	2.71272e-06	0	1.95448e-06	0.114622	0.0510291	1.63188	4.18604e-06	5.88269e-06	2.67046e-06	9.58748e-06	5.33778e-06	3.66758e-06	0.788167	0.0386952	1.23335	1.97328e-08	7.89519e-09	2.67361e-10	2.27505e-09	2.25597e-10	2.18373e-10	0.000209663	2.20568e-05	0.00021082	6.00551	27874.3	264961	266423	-83.9945	0.0000000E+000	0.0000000E+000	0.0000000E+000	83.9945	0.0000000E+000	0.0000000E+000	0.0000000E+000	-83.9945	0.0000000E+000	0.0000000E+000	0.0000000E+000	-6.00551	0.0000000E+000	0.0000000E+000	0.0000000E+000	6.00551	9.50557	83.9945	-1.38938e-06
0.0999518	4769.22	467.47	4792.07	-5.59814	1446.67	0.45924	-3.93609e-05	3406.25	32.4143	1	42	0.0128663	2.68492e-06	0	6.39252e-07	0.127583	0.0463783	1.5562	3.68142e-06	1.01925e-05	3.21447e-06	9.36895e-06	3.53824e-06	4.57924e-06	0.77987	0.0638542	1.26051	1.93961e-08	7.61367e-09	2.88936e-10	1.98332e-09	2.02604e-10	1.82182e-10	0.000207683	2.03567e-05	0.000208678	5.59814	32414.3	330697	332282	-84.4019	0.0000000E+000	0.0000000E+000	0.0000000E+000	84.4019	0.0000000E+000	0.0000000E+000	0.0000000E+000	-84.4019	0.0000000E+000	0.0000000E+000	0.0000000E+000	-5.59814	0.0000000E+000	0.0000000E+000	0.0000000E+000	5.59814	10.2022	84.4019	-1.31522e-06