File: Python/Data/RDE/240223-OCV-EIS-Fe2Fe3_5mM-HCl1M-2000RPM-Ag_AgCl_BLF8-GC-RDE-AllPreviousVariations_04_PEIS_C15.mpt
EC-Lab ASCII FILE
Nb header lines : 67

Potentio Electrochemical Impedance Spectroscopy

Run on channel : 15 (SN 19485)
User :
Electrode connection : standard
Potential control : Ewe
Ewe ctrl range : min = -1.00 V, max = 1.00 V
Ewe,I filtering : 50 kHz
Safety Limits :
	Do not start on E overload
Channel : Floating
Acquisition started on : 02/23/2024 12:36:41.987
Loaded Setting File :  C:\Data\mathias\RDE-RPM-variation\240222-CV-EIS-Fe2Fe3_5mM-HCl1M-0RPM-Ag_AgCl_BLF8-GC-RDE-DefaultSettings.mps
Saved on :
	File : 240223-OCV-EIS-Fe2Fe3_5mM-HCl1M-2000RPM-Ag_AgCl_BLF8-GC-RDE-AllPreviousVariations_04_PEIS_C15.mpr
	Directory : C:\Data\mathias\RDE-RPM-variation\
	Host : 192.168.0.1
Device : VMP-300 (SN 0826)
Address : USB
EC-Lab for windows v11.52 (software)
Internet server v11.52 (firmware)
Command interpretor v11.52 (firmware)
Electrode material :
Initial state :
Electrolyte :
Comments :
Cable : special
Reference electrode : SCE Saturated Calomel Electrode (0.241 V)
Electrode surface area : 0.001 cm²
Characteristic mass : 0.001 g
Equivalent Weight : 0.000 g/eq.
Density : 0.000 g/cm3
Volume (V) : 0.001 cm³
Record EIS quality indicators
Cycle Definition : Charge/Discharge alternance
Mode                Single sine
E (V)               0.0000
vs.                 Ref
tE (h:m:s)          0:01:0.0000
record              0
dI                  0.000
unit dI             mA
dt (s)              0.000
fi                  400.000
unit fi             kHz
ff                  100.000
unit ff             mHz
Nd                  10
Points              per decade
spacing             Logarithmic
Va (mV)             7.0
pw                  0.10
Na                  3
corr                0
E range min (V)     -1.000
E range max (V)     1.000
I Range             Auto
Bandwidth           8
nc cycles           2
goto Ns'            0
nr cycles           0
inc. cycle          1

freq/Hz	Re(Z)/Ohm	-Im(Z)/Ohm	|Z|/Ohm	Phase(Z)/deg	time/s	<Ewe>/V	<I>/mA	Cs/µF	Cp/µF	cycle number	I Range	|Ewe|/V	|I|/A	Ns	(Q-Qo)/mA.h	THD Ewe/%	NSD Ewe/%	NSR Ewe/%	|Ewe h2|/V	|Ewe h3|/V	|Ewe h4|/V	|Ewe h5|/V	|Ewe h6|/V	|Ewe h7|/V	THD I/%	NSD I/%	NSR I/%	|I h2|/A	|I h3|/A	|I h4|/A	|I h5|/A	|I h6|/A	|I h7|/A	Re(Y)/Ohm-1	Im(Y)/Ohm-1	|Y|/Ohm-1	Phase(Y)/deg	Re(C)/nF	Im(C)/nF	|C|/nF	Phase(C)/deg	Re(M)	Im(M)	|M|	Phase(M)/deg	Re(Permittivity)	Im(Permittivity)	|Permittivity|	Phase(Permittivity)/deg	Re(Resistivity)/Ohm.cm	Im(Resistivity)/Ohm.cm	|Resistivity|/Ohm.cm	Phase(Resistivity)/deg	Re(Conductivity)/mS/cm	Im(Conductivity)/mS/cm	|Conductivity|/mS/cm	Phase(Conductivity)/deg	Tan(Delta)	Loss Angle(Delta)/deg	dq/mA.h
399996	3.51634	1.61973	3.87145	-24.7322	478.376	-0.000171426	-0.525423	0.245653	0.042999	1	38	0.00651265	0.00168222	0	-0.0089131	-1	-1	-1	0	0	0	0	0	0	-1	-1	-1	0	0	0	0	0	0	0.234608	0.108067	0.258301	24.7322	42.999	93.3484	102.776	-65.2678	0.0000000E+000	0.0000000E+000	0.0000000E+000	65.2678	0.0000000E+000	0.0000000E+000	0.0000000E+000	-65.2678	0.0000000E+000	0.0000000E+000	0.0000000E+000	-24.7322	0.0000000E+000	0.0000000E+000	0.0000000E+000	24.7322	2.17094	65.2678	-0.0089131
200434	3.44722	1.01204	3.59271	-16.3612	481.816	-0.00022293	-0.52393	0.784606	0.0622589	1	38	0.00722817	0.0020119	0	-0.00941097	-1	-1	-1	0	0	0	0	0	0	-1	-1	-1	0	0	0	0	0	0	0.26707	0.0784067	0.278342	16.3612	62.2589	212.067	221.017	-73.6388	0.0000000E+000	0.0000000E+000	0.0000000E+000	73.6388	0.0000000E+000	0.0000000E+000	0.0000000E+000	-73.6388	0.0000000E+000	0.0000000E+000	0.0000000E+000	-16.3612	0.0000000E+000	0.0000000E+000	0.0000000E+000	16.3612	3.40621	73.6388	-0.000167379
100431	3.45236	0.951245	3.58101	-15.4047	485.256	-0.000179479	-0.526267	1.66595	0.117553	1	38	0.00725757	0.00202668	0	-0.00990261	1.08141	0.58222	18.8	2.69829e-05	2.93173e-05	2.60107e-05	2.70084e-05	2.79827e-05	4.26938e-05	0.0662776	0.0449437	1.42627	5.49305e-07	4.02173e-07	6.21269e-07	5.3672e-07	4.8755e-07	4.11954e-07	0.269218	0.074179	0.279251	15.4047	117.553	426.637	442.536	-74.5953	0.0000000E+000	0.0000000E+000	0.0000000E+000	74.5953	0.0000000E+000	0.0000000E+000	0.0000000E+000	-74.5953	0.0000000E+000	0.0000000E+000	0.0000000E+000	-15.4047	0.0000000E+000	0.0000000E+000	0.0000000E+000	15.4047	3.62931	74.5953	-0.000164266
50326.6	3.52763	1.32207	3.76723	-20.5448	488.697	-0.000188072	-0.525319	2.39204	0.2946	1	38	0.0072644	0.00192831	0	-0.0104041	0.921882	0.585166	18.5872	2.56455e-05	2.93301e-05	2.26307e-05	3.21115e-05	2.33135e-05	2.33476e-05	0.0829914	0.0669129	1.51421	7.90445e-07	5.01557e-07	6.76042e-07	6.27537e-07	5.42389e-07	3.7611e-07	0.248564	0.0931558	0.265447	20.5448	294.6	786.07	839.461	-69.4552	0.0000000E+000	0.0000000E+000	0.0000000E+000	69.4552	0.0000000E+000	0.0000000E+000	0.0000000E+000	-69.4552	0.0000000E+000	0.0000000E+000	0.0000000E+000	-20.5448	0.0000000E+000	0.0000000E+000	0.0000000E+000	20.5448	2.66826	69.4552	-0.000167842
25219	3.68659	2.23032	4.30874	-31.1733	492.138	-0.000155339	-0.52612	2.8296	0.758158	1	38	0.00729256	0.0016925	0	-0.010899	1.01448	0.436714	18.5399	2.62845e-05	2.7023e-05	1.77928e-05	2.78746e-05	2.48832e-05	3.6838e-05	0.109002	0.062885	1.79546	6.28721e-07	8.06891e-07	5.38209e-07	4.78512e-07	8.19118e-07	8.73965e-07	0.198574	0.120134	0.232086	31.1733	758.158	1253.19	1464.68	-58.8267	0.0000000E+000	0.0000000E+000	0.0000000E+000	58.8267	0.0000000E+000	0.0000000E+000	0.0000000E+000	-58.8267	0.0000000E+000	0.0000000E+000	0.0000000E+000	-31.1733	0.0000000E+000	0.0000000E+000	0.0000000E+000	31.1733	1.65294	58.8267	-0.000165084
12637.3	4.05664	4.05529	5.736	-44.9905	495.579	-0.000167306	-0.526137	3.10558	1.55227	1	38	0.00738998	0.00128835	0	-0.0113968	0.747449	0.499325	18.3224	1.91782e-05	2.17226e-05	1.40307e-05	1.01464e-05	3.25928e-05	2.02005e-05	0.111493	0.0818662	2.30112	7.65862e-07	3.89555e-07	4.52825e-07	4.55573e-07	5.10698e-07	6.69291e-07	0.123296	0.123255	0.174338	44.9905	1552.27	1552.79	2195.61	-45.0095	0.0000000E+000	0.0000000E+000	0.0000000E+000	45.0095	0.0000000E+000	0.0000000E+000	0.0000000E+000	-45.0095	0.0000000E+000	0.0000000E+000	0.0000000E+000	-44.9905	0.0000000E+000	0.0000000E+000	0.0000000E+000	44.9905	1.00033	45.0095	-0.00016671
6332.63	4.84413	7.40829	8.85146	-56.8201	498.954	-0.000290056	-0.5242	3.39249	2.37643	1	38	0.00756666	0.00085485	0	-0.0118798	0.966194	0.550102	17.8709	4.73924e-05	2.89261e-05	1.50947e-05	1.69193e-05	2.25368e-05	2.32508e-05	0.210563	0.0868493	3.48342	1.29767e-06	7.72172e-07	4.27039e-07	2.34029e-07	3.78435e-07	5.9299e-07	0.0618282	0.0945558	0.112976	56.8201	2376.43	1553.9	2839.37	-33.1799	0.0000000E+000	0.0000000E+000	0.0000000E+000	33.1799	0.0000000E+000	0.0000000E+000	0.0000000E+000	-33.1799	0.0000000E+000	0.0000000E+000	0.0000000E+000	-56.8201	0.0000000E+000	0.0000000E+000	0.0000000E+000	56.8201	0.65388	33.1799	-0.000148813
3171.96	6.65881	13.4489	15.0071	-63.6591	502.286	-0.000320347	-0.526855	3.73083	2.99631	1	38	0.00673405	0.000448725	0	-0.0123607	0.905838	0.479401	20.1024	3.00689e-05	2.25377e-05	2.04286e-05	7.67491e-06	2.1024e-05	2.82015e-05	0.496685	0.267361	6.45411	1.58178e-06	1.08438e-06	5.70549e-07	6.80708e-07	4.67949e-07	4.21205e-07	0.0295667	0.0597164	0.0666351	63.6591	2996.31	1483.53	3343.46	-26.3409	0.0000000E+000	0.0000000E+000	0.0000000E+000	26.3409	0.0000000E+000	0.0000000E+000	0.0000000E+000	-26.3409	0.0000000E+000	0.0000000E+000	0.0000000E+000	-63.6591	0.0000000E+000	0.0000000E+000	0.0000000E+000	63.6591	0.495119	26.3409	-0.000160542
1589.49	10.4053	23.5909	25.7837	-66.1991	505.826	-0.000306888	-0.525656	4.24441	3.55316	1	38	0.00691992	0.000268383	0	-0.012874	0.882168	0.390256	18.9718	1.82795e-05	3.10101e-05	2.73458e-05	2.35151e-05	1.65997e-05	1.36382e-05	0.79437	0.393988	10.7218	7.83887e-07	7.51922e-07	7.29493e-07	1.15015e-06	6.81882e-07	8.44863e-07	0.0156518	0.0354857	0.0387842	66.1991	3553.16	1567.2	3883.44	-23.8009	0.0000000E+000	0.0000000E+000	0.0000000E+000	23.8009	0.0000000E+000	0.0000000E+000	0.0000000E+000	-23.8009	0.0000000E+000	0.0000000E+000	0.0000000E+000	-66.1991	0.0000000E+000	0.0000000E+000	0.0000000E+000	66.1991	0.441072	23.8009	-0.000192779
796.787	17.9984	40.4473	44.2711	-66.0117	509.398	-0.0002996	-0.520144	4.93842	4.12218	1	39	0.00723545	0.000163435	0	-0.013383	0.856574	0.472563	17.437	2.02575e-05	1.48203e-05	1.56396e-05	2.43469e-05	2.39899e-05	3.73645e-05	0.761918	0.283286	7.91455	6.94642e-07	4.46569e-07	1.01652e-07	7.4641e-07	2.7946e-07	3.30398e-07	0.00918321	0.0206371	0.0225881	66.0117	4122.18	1834.31	4511.88	-23.9883	0.0000000E+000	0.0000000E+000	0.0000000E+000	23.9883	0.0000000E+000	0.0000000E+000	0.0000000E+000	-23.9883	0.0000000E+000	0.0000000E+000	0.0000000E+000	-66.0117	0.0000000E+000	0.0000000E+000	0.0000000E+000	66.0117	0.444985	23.9883	-0.000158071
399.106	31.497	66.8379	73.8875	-64.7681	512.722	-0.000290764	-0.518948	5.96636	4.88216	1	39	0.0068708	9.299e-05	0	-0.0138582	1.27371	0.648551	18.7776	4.97699e-05	1.84109e-05	2.01628e-05	2.22864e-05	2.96954e-05	4.23495e-05	1.00578	0.454116	14.7107	3.6321e-07	2.91171e-07	2.40558e-07	3.287e-07	4.62553e-07	3.9797e-07	0.00576936	0.0122428	0.0135341	64.7681	4882.16	2300.7	5397.1	-25.2319	0.0000000E+000	0.0000000E+000	0.0000000E+000	25.2319	0.0000000E+000	0.0000000E+000	0.0000000E+000	-25.2319	0.0000000E+000	0.0000000E+000	0.0000000E+000	-64.7681	0.0000000E+000	0.0000000E+000	0.0000000E+000	64.7681	0.471245	25.2319	-0.00015851
199.936	55.5867	107.971	121.439	-62.7592	516.04	-0.000256204	-0.51766	7.37264	5.82793	1	39	0.00677364	5.57779e-05	0	-0.0143322	0.96922	0.417578	18.5686	2.9843e-05	2.21994e-05	1.26862e-05	1.66655e-05	3.04576e-05	2.90782e-05	1.09721	0.742356	23.6399	2.75472e-07	2.29189e-07	2.02553e-07	1.65957e-07	2.36989e-07	1.86564e-07	0.00376922	0.00732127	0.00823456	62.7592	5827.93	3000.4	6554.94	-27.2408	0.0000000E+000	0.0000000E+000	0.0000000E+000	27.2408	0.0000000E+000	0.0000000E+000	0.0000000E+000	-27.2408	0.0000000E+000	0.0000000E+000	0.0000000E+000	-62.7592	0.0000000E+000	0.0000000E+000	0.0000000E+000	62.7592	0.514831	27.2408	-0.000158153
100.224	96.1434	170.309	195.573	-60.5542	519.354	-0.000254396	-0.518234	9.32415	7.07078	1	39	0.00674826	3.45051e-05	0	-0.0148063	1.06912	0.705159	18.5985	3.69719e-05	1.22939e-05	3.65472e-05	2.39204e-05	2.48304e-05	2.47417e-05	2.28448	1.33874	38.8366	3.48336e-07	2.21509e-07	3.88776e-07	2.74832e-07	2.59228e-07	3.00551e-07	0.00251364	0.00445267	0.00511319	60.5542	7070.78	3991.62	8119.67	-29.4458	0.0000000E+000	0.0000000E+000	0.0000000E+000	29.4458	0.0000000E+000	0.0000000E+000	0.0000000E+000	-29.4458	0.0000000E+000	0.0000000E+000	0.0000000E+000	-60.5542	0.0000000E+000	0.0000000E+000	0.0000000E+000	60.5542	0.564524	29.4458	-0.000158046
50.2089	160.233	262.533	307.569	-58.6028	522.583	-0.000253445	-0.519933	12.0741	8.79711	1	39	0.00675485	2.19621e-05	0	-0.0152662	1.0536	0.484856	18.9982	1.88163e-05	2.24578e-05	2.73813e-05	2.21855e-05	3.24789e-05	3.77409e-05	2.69857	1.83884	59.8145	2.0153e-07	1.94399e-07	1.99289e-07	2.23003e-07	1.81656e-07	3.62345e-07	0.00169383	0.00277524	0.00325131	58.6028	8797.11	5369.19	10306.2	-31.3972	0.0000000E+000	0.0000000E+000	0.0000000E+000	31.3972	0.0000000E+000	0.0000000E+000	0.0000000E+000	-31.3972	0.0000000E+000	0.0000000E+000	0.0000000E+000	-58.6028	0.0000000E+000	0.0000000E+000	0.0000000E+000	58.6028	0.610335	31.3972	-0.000152476
25.1691	263.57	398.855	478.074	-56.5426	525.759	-0.000243454	-0.517633	15.8539	11.0351	1	39	0.00674437	1.41074e-05	0	-0.01572	0.837765	0.65556	18.8284	3.15434e-05	2.10925e-05	1.61404e-05	1.98236e-05	1.94892e-05	1.98582e-05	4.3587	3.2213	93.7433	2.31265e-07	2.05023e-07	8.94848e-08	2.50083e-07	3.54692e-07	2.316e-07	0.0011532	0.00174512	0.00209173	56.5426	11035.1	7292.19	13226.9	-33.4574	0.0000000E+000	0.0000000E+000	0.0000000E+000	33.4574	0.0000000E+000	0.0000000E+000	0.0000000E+000	-33.4574	0.0000000E+000	0.0000000E+000	0.0000000E+000	-56.5426	0.0000000E+000	0.0000000E+000	0.0000000E+000	56.5426	0.660816	33.4574	-0.000151927
12.6144	431.023	589.684	730.416	-53.8354	529.036	-0.000264387	-0.517883	21.3962	13.9455	1	39	0.00674109	9.2291e-06	0	-0.0161874	0.524487	0.307302	13.4016	1.34717e-05	1.29765e-05	1.21578e-05	1.93431e-05	1.12021e-05	1.06702e-05	5.1081	4.67641	101.228	1.89662e-07	2.20565e-07	9.40795e-08	1.97746e-07	1.15833e-07	2.20149e-07	0.000807904	0.00110529	0.00136908	53.8354	13945.5	10193.3	17273.7	-36.1646	0.0000000E+000	0.0000000E+000	0.0000000E+000	36.1646	0.0000000E+000	0.0000000E+000	0.0000000E+000	-36.1646	0.0000000E+000	0.0000000E+000	0.0000000E+000	-53.8354	0.0000000E+000	0.0000000E+000	0.0000000E+000	53.8354	0.73094	36.1646	-0.000165677
6.31569	677.387	857.126	1092.48	-51.6807	532.684	-0.000275087	-0.519775	29.4005	18.0974	1	39	0.00673567	6.16548e-06	0	-0.0167081	0.653978	0.434645	13.6578	2.1508e-05	1.34287e-05	8.38498e-06	1.55621e-05	1.72707e-05	2.26245e-05	7.57573	7.94584	158.137	3.09543e-07	1.27988e-07	9.93736e-08	1.39227e-07	1.82865e-07	1.598e-07	0.000567555	0.000718151	0.000915346	51.6807	18097.4	14302.3	23066.7	-38.3193	0.0000000E+000	0.0000000E+000	0.0000000E+000	38.3193	0.0000000E+000	0.0000000E+000	0.0000000E+000	-38.3193	0.0000000E+000	0.0000000E+000	0.0000000E+000	-51.6807	0.0000000E+000	0.0000000E+000	0.0000000E+000	51.6807	0.7903	38.3193	-0.000197078
3.16616	1016.32	1323.53	1668.72	-52.4799	538.528	-0.000265841	-0.51944	37.98	23.8921	1	39	0.0067419	4.04017e-06	0	-0.0175444	0.434379	0.191822	8.69136	7.02238e-06	5.19966e-06	1.15078e-05	1.24787e-05	1.76752e-05	1.1186e-05	18.0122	30.4856	150.407	5.29454e-07	2.85382e-07	2.40934e-07	1.53016e-07	9.1052e-08	1.35589e-07	0.000364975	0.000475298	0.000599262	52.4799	23892.1	18346.4	30123.4	-37.5201	0.0000000E+000	0.0000000E+000	0.0000000E+000	37.5201	0.0000000E+000	0.0000000E+000	0.0000000E+000	-37.5201	0.0000000E+000	0.0000000E+000	0.0000000E+000	-52.4799	0.0000000E+000	0.0000000E+000	0.0000000E+000	52.4799	0.767886	37.5201	-0.000330581
1.5871	1876.92	1669.91	2512.25	-41.6597	548.958	-0.000257387	-0.518114	60.0514	26.5327	1	39	0.00673851	2.68226e-06	0	-0.0190418	0.372116	0.106561	5.83607	9.78937e-06	1.16016e-05	4.67528e-06	1.05442e-05	9.92205e-06	8.23635e-06	18.5792	25.8072	152.334	2.26667e-07	2.37729e-07	2.29867e-07	1.73647e-07	6.06832e-08	5.40003e-08	0.000297385	0.000264586	0.000398049	41.6597	26532.7	29821.8	39916.5	-48.3403	0.0000000E+000	0.0000000E+000	0.0000000E+000	48.3403	0.0000000E+000	0.0000000E+000	0.0000000E+000	-48.3403	0.0000000E+000	0.0000000E+000	0.0000000E+000	-41.6597	0.0000000E+000	0.0000000E+000	0.0000000E+000	41.6597	1.12396	48.3403	-0.000604529
0.79456	2704.53	806.941	2822.35	-16.6133	568.633	-0.00026862	-0.51846	248.229	20.2915	1	39	0.00673534	2.38643e-06	0	-0.0218675	0.184409	0.125076	3.71375	6.19239e-06	3.36196e-06	4.82307e-06	6.67676e-06	1.96804e-06	3.72269e-06	24.6993	17.8632	118.696	2.7011e-07	3.03748e-07	1.96533e-07	2.79275e-07	1.52837e-07	1.12924e-07	0.000339524	0.000101302	0.000354315	16.6133	20291.5	68008.7	70971.3	-73.3867	0.0000000E+000	0.0000000E+000	0.0000000E+000	73.3867	0.0000000E+000	0.0000000E+000	0.0000000E+000	-73.3867	0.0000000E+000	0.0000000E+000	0.0000000E+000	-16.6133	0.0000000E+000	0.0000000E+000	0.0000000E+000	16.6133	3.35159	73.3867	-0.00115151
0.398211	3111.63	943.079	3251.4	-16.8611	606.763	-0.000255912	-0.517933	423.798	35.6544	1	39	0.0067394	2.07277e-06	0	-0.0273493	0.174032	0.0876706	2.62176	4.01454e-06	7.63807e-06	4.1325e-06	4.46557e-06	1.7321e-06	2.74095e-06	43.7164	22.9689	108.535	3.26755e-07	5.49744e-07	2.51404e-07	2.30394e-07	3.34607e-07	2.17957e-07	0.000294338	8.92087e-05	0.00030756	16.8611	35654.4	117639	122924	-73.1389	0.0000000E+000	0.0000000E+000	0.0000000E+000	73.1389	0.0000000E+000	0.0000000E+000	0.0000000E+000	-73.1389	0.0000000E+000	0.0000000E+000	0.0000000E+000	-16.8611	0.0000000E+000	0.0000000E+000	0.0000000E+000	16.8611	3.29943	73.1389	-0.00224936
0.199573	3829.93	451.27	3856.42	-6.72003	681.915	-0.000264461	-0.517172	1767.18	24.1983	1	39	0.00674271	1.74844e-06	0	-0.0381445	0.134831	0.0868955	1.91431	1.41823e-06	6.40895e-06	3.57624e-06	3.23302e-06	2.9638e-06	1.87874e-06	29.6433	17.6782	110.12	1.46356e-07	1.21773e-07	2.06282e-07	2.52265e-07	2.73638e-07	1.88576e-07	0.000257526	3.03436e-05	0.000259308	6.72003	24198.3	205371	206792	-83.28	0.0000000E+000	0.0000000E+000	0.0000000E+000	83.28	0.0000000E+000	0.0000000E+000	0.0000000E+000	-83.28	0.0000000E+000	0.0000000E+000	0.0000000E+000	-6.72003	0.0000000E+000	0.0000000E+000	0.0000000E+000	6.72003	8.48699	83.28	-0.00443832
0.0999518	3198.83	441.13	3229.11	-7.85177	830.97	-0.000265427	-0.516366	3609.63	67.3647	1	39	0.00673833	2.08675e-06	0	-0.0595288	0.137894	0.0952792	1.72185	2.53961e-06	5.70458e-06	2.34853e-06	4.8234e-06	3.08039e-06	2.28394e-06	21.3937	14.2562	85.6602	1.70398e-07	1.60288e-07	2.10095e-07	1.65696e-07	1.05278e-07	1.6277e-07	0.00030678	4.23061e-05	0.000309683	7.85177	67364.7	488491	493114	-82.1482	0.0000000E+000	0.0000000E+000	0.0000000E+000	82.1482	0.0000000E+000	0.0000000E+000	0.0000000E+000	-82.1482	0.0000000E+000	0.0000000E+000	0.0000000E+000	-7.85177	0.0000000E+000	0.0000000E+000	0.0000000E+000	7.85177	7.25144	82.1482	-0.00880311
252347	3.44884	1.14778	3.63482	-18.4075	835.013	-0.000165144	-0.519277	0.549493	0.0547917	2	38	0.00722525	0.00198779	0	-0.0601182	-1	-1	-1	0	0	0	0	0	0	-1	-1	-1	0	0	0	0	0	0	0.26104	0.0868747	0.275117	18.4075	54.7916	164.637	173.515	-71.5925	0.0000000E+000	0.0000000E+000	0.0000000E+000	71.5925	0.0000000E+000	0.0000000E+000	0.0000000E+000	-71.5925	0.0000000E+000	0.0000000E+000	0.0000000E+000	-18.4075	0.0000000E+000	0.0000000E+000	0.0000000E+000	18.4075	3.00479	71.5925	-0.000162145
126447	3.43458	0.944244	3.56201	-15.3721	838.453	-0.000176068	-0.519352	1.33299	0.0936706	2	38	0.00723634	0.00203153	0	-0.0606187	-1	-1	-1	0	0	0	0	0	0	-1	-1	-1	0	0	0	0	0	0	0.270697	0.0744206	0.28074	15.3721	93.6706	340.716	353.358	-74.6279	0.0000000E+000	0.0000000E+000	0.0000000E+000	74.6279	0.0000000E+000	0.0000000E+000	0.0000000E+000	-74.6279	0.0000000E+000	0.0000000E+000	0.0000000E+000	-15.3721	0.0000000E+000	0.0000000E+000	0.0000000E+000	15.3721	3.63739	74.6279	-0.000169306
63362.9	3.48892	1.18103	3.6834	-18.7014	841.894	-0.000190682	-0.517696	2.12679	0.218649	2	38	0.00725796	0.00197045	0	-0.06111	0.791875	0.669501	18.0619	1.88089e-05	1.19952e-05	2.14705e-05	3.07859e-05	2.04668e-05	2.73295e-05	0.103243	0.0661864	1.4943	7.18696e-07	6.00113e-07	1.13352e-06	7.86686e-07	5.55696e-07	8.43003e-07	0.257155	0.0870489	0.271489	18.7014	218.649	645.921	681.925	-71.2986	0.0000000E+000	0.0000000E+000	0.0000000E+000	71.2986	0.0000000E+000	0.0000000E+000	0.0000000E+000	-71.2986	0.0000000E+000	0.0000000E+000	0.0000000E+000	-18.7014	0.0000000E+000	0.0000000E+000	0.0000000E+000	18.7014	2.95414	71.2986	-0.000165685
31751	3.6233	1.90388	4.09305	-27.7199	845.334	-0.00019428	-0.518616	2.63283	0.569649	2	38	0.00727513	0.00177743	0	-0.0616033	0.893017	0.569103	18.0602	3.18843e-05	2.26126e-05	1.30733e-05	3.27145e-05	2.04635e-05	1.91445e-05	0.0983803	0.0752838	1.65248	7.5405e-07	3.66543e-07	7.49877e-07	6.54175e-07	5.25172e-07	9.76311e-07	0.216277	0.113644	0.244317	27.7199	569.649	1084.11	1224.66	-62.2801	0.0000000E+000	0.0000000E+000	0.0000000E+000	62.2801	0.0000000E+000	0.0000000E+000	0.0000000E+000	-62.2801	0.0000000E+000	0.0000000E+000	0.0000000E+000	-27.7199	0.0000000E+000	0.0000000E+000	0.0000000E+000	27.7199	1.90311	62.2801	-0.000165132
15912.6	3.89947	3.43209	5.19472	-41.3524	848.773	-0.000174968	-0.519668	2.9142	1.27207	2	38	0.00733831	0.00141265	0	-0.0620938	0.734969	0.515546	18.4388	2.27017e-05	2.03442e-05	2.10094e-05	1.90781e-05	1.47699e-05	2.50759e-05	0.145121	0.0762391	2.08276	1.20091e-06	8.2016e-07	8.55293e-07	7.17833e-07	6.63939e-07	5.49907e-07	0.144504	0.127185	0.192503	41.3524	1272.07	1445.3	1925.38	-48.6476	0.0000000E+000	0.0000000E+000	0.0000000E+000	48.6476	0.0000000E+000	0.0000000E+000	0.0000000E+000	-48.6476	0.0000000E+000	0.0000000E+000	0.0000000E+000	-41.3524	0.0000000E+000	0.0000000E+000	0.0000000E+000	41.3524	1.13618	48.6476	-0.000162225
7967.67	4.53691	6.25037	7.72338	-54.0255	852.243	-0.000293672	-0.518186	3.19583	2.09305	2	38	0.00723438	0.000936685	0	-0.0625844	0.991343	0.434176	18.5121	1.84248e-05	3.07408e-05	2.07466e-05	2.94027e-05	3.22618e-05	3.1045e-05	0.202012	0.152071	3.18517	1.15386e-06	5.12453e-07	5.98758e-07	8.92311e-07	6.02535e-07	4.92218e-07	0.076058	0.104783	0.129477	54.0255	2093.05	1519.27	2586.31	-35.9745	0.0000000E+000	0.0000000E+000	0.0000000E+000	35.9745	0.0000000E+000	0.0000000E+000	0.0000000E+000	-35.9745	0.0000000E+000	0.0000000E+000	0.0000000E+000	-54.0255	0.0000000E+000	0.0000000E+000	0.0000000E+000	54.0255	0.725863	35.9745	-0.000163649
3993.72	6.00756	11.3314	12.8254	-62.0689	855.522	-0.00028959	-0.520765	3.51688	2.74525	2	38	0.00679424	0.000529747	0	-0.063049	1.01466	0.755422	19.7269	1.61514e-05	2.59172e-05	3.17821e-05	1.64327e-05	2.90113e-05	3.19925e-05	0.343085	0.187994	5.51697	1.37948e-06	2.36176e-07	3.89068e-07	6.78798e-07	5.65588e-07	4.86863e-07	0.0365219	0.0688874	0.07797	62.0689	2745.25	1455.45	3107.21	-27.9311	0.0000000E+000	0.0000000E+000	0.0000000E+000	27.9311	0.0000000E+000	0.0000000E+000	0.0000000E+000	-27.9311	0.0000000E+000	0.0000000E+000	0.0000000E+000	-62.0689	0.0000000E+000	0.0000000E+000	0.0000000E+000	62.0689	0.530168	27.9311	-0.000158335
2001.92	9.14777	20.1522	22.1313	-65.5851	859.059	-0.000294175	-0.521465	3.94504	3.27102	2	38	0.00702519	0.000317433	0	-0.0635565	0.823858	0.692073	18.9052	1.42715e-05	3.0257e-05	1.6923e-05	2.08058e-05	1.9789e-05	2.27168e-05	0.653415	0.250487	9.25353	8.70168e-07	1.05194e-06	5.30833e-07	1.14698e-06	4.84672e-07	4.36824e-07	0.0186768	0.0411443	0.045185	65.5851	3271.02	1484.83	3592.26	-24.4149	0.0000000E+000	0.0000000E+000	0.0000000E+000	24.4149	0.0000000E+000	0.0000000E+000	0.0000000E+000	-24.4149	0.0000000E+000	0.0000000E+000	0.0000000E+000	-65.5851	0.0000000E+000	0.0000000E+000	0.0000000E+000	65.5851	0.453934	24.4149	-0.000190575
1002.75	15.3641	34.65	37.9036	-66.0871	862.634	-0.000304372	-0.516774	4.58061	3.82799	2	39	0.00747085	0.000197101	0	-0.0640638	0.789397	0.710392	17.0212	1.14898e-05	2.85019e-05	2.78464e-05	2.15153e-05	1.66958e-05	2.88098e-05	0.731304	0.268663	6.81413	9.89256e-07	7.83858e-07	1.68696e-07	4.58091e-07	2.88777e-07	2.43219e-07	0.0106942	0.0241181	0.0263827	66.0871	3827.99	1697.36	4187.42	-23.9129	0.0000000E+000	0.0000000E+000	0.0000000E+000	23.9129	0.0000000E+000	0.0000000E+000	0.0000000E+000	-23.9129	0.0000000E+000	0.0000000E+000	0.0000000E+000	-66.0871	0.0000000E+000	0.0000000E+000	0.0000000E+000	66.0871	0.443408	23.9129	-0.00018965
502.588	27.1815	57.5379	63.6353	-64.7135	865.956	-0.000211858	-0.515751	5.50369	4.49953	2	39	0.00693788	0.000109026	0	-0.0645356	0.960317	0.491655	18.4206	1.79108e-05	2.44474e-05	3.59508e-05	1.6961e-05	3.1737e-05	2.03494e-05	0.982834	0.343158	12.2663	5.09803e-07	3.02504e-07	2.11206e-07	5.6636e-07	4.56692e-07	2.57128e-07	0.00671239	0.0142088	0.0157146	64.7135	4499.53	2125.62	4976.34	-25.2865	0.0000000E+000	0.0000000E+000	0.0000000E+000	25.2865	0.0000000E+000	0.0000000E+000	0.0000000E+000	-25.2865	0.0000000E+000	0.0000000E+000	0.0000000E+000	-64.7135	0.0000000E+000	0.0000000E+000	0.0000000E+000	64.7135	0.472409	25.2865	-0.000157674
251.853	48.1983	92.9258	104.682	-62.5853	869.269	-0.000297307	-0.516519	6.80042	5.35878	2	39	0.00681084	6.50623e-05	0	-0.0650068	0.949013	0.742096	18.7186	2.08015e-05	3.12231e-05	1.41232e-05	1.94417e-05	3.8805e-05	1.94388e-05	1.00438	0.772153	20.841	4.49094e-07	2.43408e-07	1.87064e-07	1.7044e-07	2.44814e-07	1.6087e-07	0.00439834	0.00847996	0.00955276	62.5853	5358.78	2779.47	6036.72	-27.4147	0.0000000E+000	0.0000000E+000	0.0000000E+000	27.4147	0.0000000E+000	0.0000000E+000	0.0000000E+000	-27.4147	0.0000000E+000	0.0000000E+000	0.0000000E+000	-62.5853	0.0000000E+000	0.0000000E+000	0.0000000E+000	62.5853	0.518675	27.4146	-0.000156756
126.171	84.8084	145.488	168.402	-59.7611	872.588	-0.000267165	-0.516807	8.67029	6.47133	2	39	0.00677542	4.02337e-05	0	-0.0654789	0.749939	0.622612	18.6337	2.54634e-05	1.90144e-05	1.66714e-05	2.3068e-05	1.73361e-05	1.3759e-05	1.79255	0.999945	32.2117	4.56696e-07	1.96306e-07	1.69901e-07	3.141e-07	2.19763e-07	1.40597e-07	0.00299051	0.00513019	0.00593818	59.7611	6471.33	3772.29	7490.54	-30.2389	0.0000000E+000	0.0000000E+000	0.0000000E+000	30.2389	0.0000000E+000	0.0000000E+000	0.0000000E+000	-30.2389	0.0000000E+000	0.0000000E+000	0.0000000E+000	-59.7611	0.0000000E+000	0.0000000E+000	0.0000000E+000	59.7611	0.582924	30.2389	-0.000156541
63.2394	141.938	222.166	263.637	-57.4262	875.857	-0.000269998	-0.516248	11.328	8.04449	2	39	0.006737	2.55541e-05	0	-0.0659418	0.708337	0.404809	19.0212	1.35978e-05	1.71667e-05	1.56973e-05	1.70938e-05	2.15249e-05	2.18472e-05	2.33171	1.46514	52.77	2.79181e-07	1.48247e-07	2.01209e-07	1.70824e-07	2.0391e-07	2.88843e-07	0.00204215	0.00319644	0.0037931	57.4262	8044.49	5139.48	9546.11	-32.5738	0.0000000E+000	0.0000000E+000	0.0000000E+000	32.5738	0.0000000E+000	0.0000000E+000	0.0000000E+000	-32.5738	0.0000000E+000	0.0000000E+000	0.0000000E+000	-57.4262	0.0000000E+000	0.0000000E+000	0.0000000E+000	57.4262	0.638883	32.5738	-0.000153706
31.6723	227.645	328.584	399.737	-55.2856	879.032	-0.000259	-0.515376	15.2931	10.3333	2	39	0.0067428	1.68681e-05	0	-0.0663934	0.948296	0.520332	19.029	3.2278e-05	1.45887e-05	1.86044e-05	3.01251e-05	2.93956e-05	1.6243e-05	4.43644	1.93392	80.076	3.65249e-07	1.94799e-07	2.76868e-07	3.40281e-07	2.74379e-07	2.30499e-07	0.00142465	0.00205636	0.00250165	55.2856	10333.3	7158.96	12570.9	-34.7144	0.0000000E+000	0.0000000E+000	0.0000000E+000	34.7144	0.0000000E+000	0.0000000E+000	0.0000000E+000	-34.7144	0.0000000E+000	0.0000000E+000	0.0000000E+000	-55.2856	0.0000000E+000	0.0000000E+000	0.0000000E+000	55.2856	0.692805	34.7144	-0.000148307
15.879	384.995	491.4	624.255	-51.9225	882.205	-0.000262262	-0.516381	20.3967	12.6388	2	39	0.00672975	1.07805e-05	0	-0.0668448	1.01646	0.578647	18.951	2.47736e-05	3.1412e-05	3.20824e-05	2.6322e-05	2.36178e-05	1.92899e-05	7.25109	3.91553	122.343	2.81179e-07	2.39469e-07	4.08284e-07	2.84388e-07	3.29903e-07	2.92195e-07	0.000987939	0.00126099	0.00160191	51.9225	12638.8	9902.07	16055.9	-38.0775	0.0000000E+000	0.0000000E+000	0.0000000E+000	38.0775	0.0000000E+000	0.0000000E+000	0.0000000E+000	-38.0775	0.0000000E+000	0.0000000E+000	0.0000000E+000	-51.9225	0.0000000E+000	0.0000000E+000	0.0000000E+000	51.9225	0.783465	38.0775	-0.00014822
7.95573	538.4	703.519	885.897	-52.5733	885.641	-0.000270688	-0.517262	28.4357	17.9329	2	39	0.00672329	7.58924e-06	0	-0.0673318	0.725516	0.510233	13.3989	1.89482e-05	1.99792e-05	2.17336e-05	2.15356e-05	1.45512e-05	1.87007e-05	6.73258	13.8681	125.524	2.77989e-07	1.22027e-07	1.85729e-07	2.04367e-07	1.68064e-07	1.8289e-07	0.000686023	0.000896416	0.0011288	52.5733	17932.9	13723.9	22581.7	-37.4267	0.0000000E+000	0.0000000E+000	0.0000000E+000	37.4267	0.0000000E+000	0.0000000E+000	0.0000000E+000	-37.4267	0.0000000E+000	0.0000000E+000	0.0000000E+000	-52.5733	0.0000000E+000	0.0000000E+000	0.0000000E+000	52.5733	0.765295	37.4267	-0.000170297
3.98597	926.349	988.026	1354.37	-46.8453	890.562	-0.000254074	-0.516616	40.4127	21.507	2	39	0.00674124	4.9774e-06	0	-0.0680314	0.52442	0.20171	8.93611	1.56032e-05	2.22157e-05	1.14078e-05	1.4429e-05	4.84923e-06	8.37788e-06	8.65897	11.8197	129.096	1.93298e-07	2.21232e-07	1.26042e-07	2.27831e-07	1.00504e-07	8.70084e-08	0.00050501	0.000538634	0.000738351	46.8453	21507	20164.4	29481.5	-43.1547	0.0000000E+000	0.0000000E+000	0.0000000E+000	43.1547	0.0000000E+000	0.0000000E+000	0.0000000E+000	-43.1547	0.0000000E+000	0.0000000E+000	0.0000000E+000	-46.8453	0.0000000E+000	0.0000000E+000	0.0000000E+000	46.8453	0.937576	43.1547	-0.000273421
1.99783	1431.38	1307.03	1938.35	-42.4	899.092	-0.000265787	-0.515536	60.9503	27.7131	2	39	0.00674064	3.47752e-06	0	-0.0692481	0.307771	0.21721	6.46937	9.22471e-06	8.95276e-06	1.02999e-05	4.69326e-06	8.17915e-06	6.93758e-06	19.1441	29.3015	131.847	4.90754e-07	3.11717e-07	2.10917e-07	1.31693e-07	8.50542e-08	1.00033e-07	0.000380972	0.000347875	0.000515904	42.4	27713.1	30349.7	41098.9	-47.6	0.0000000E+000	0.0000000E+000	0.0000000E+000	47.6	0.0000000E+000	0.0000000E+000	0.0000000E+000	-47.6	0.0000000E+000	0.0000000E+000	0.0000000E+000	-42.4	0.0000000E+000	0.0000000E+000	0.0000000E+000	42.4	1.09514	47.6	-0.000488313
1.00122	2685.12	635.317	2759.26	-13.3117	914.959	-0.000267143	-0.515964	250.208	13.2647	2	39	0.00673644	2.4414e-06	0	-0.0715165	0.189073	0.112072	4.24166	5.49648e-06	4.39353e-06	5.82739e-06	4.31455e-06	3.85622e-06	3.44406e-06	28.5446	20.9569	127.89	4.14184e-07	3.34757e-07	2.49812e-07	2.18113e-07	1.20212e-07	1.33112e-07	0.000352679	8.34461e-05	0.000362417	13.3117	13264.7	56062.4	57610.3	-76.6882	0.0000000E+000	0.0000000E+000	0.0000000E+000	76.6882	0.0000000E+000	0.0000000E+000	0.0000000E+000	-76.6882	0.0000000E+000	0.0000000E+000	0.0000000E+000	-13.3117	0.0000000E+000	0.0000000E+000	0.0000000E+000	13.3117	4.22643	76.6882	-0.000922972
0.501541	2740.72	630.767	2812.37	-12.9607	945.454	-0.000260895	-0.515493	503.089	25.3068	2	39	0.0067401	2.39659e-06	0	-0.0758767	0.208551	0.11865	3.04011	3.5968e-06	6.21288e-06	4.36493e-06	7.96179e-06	4.86018e-06	5.05191e-06	37.7632	25.7265	99.2413	4.2957e-07	4.48806e-07	3.53566e-07	2.40666e-07	3.2526e-07	1.69408e-07	0.000346514	7.97488e-05	0.000355572	12.9607	25306.8	109960	112834	-77.0393	0.0000000E+000	0.0000000E+000	0.0000000E+000	77.0393	0.0000000E+000	0.0000000E+000	0.0000000E+000	-77.0393	0.0000000E+000	0.0000000E+000	0.0000000E+000	-12.9607	0.0000000E+000	0.0000000E+000	0.0000000E+000	12.9607	4.34506	77.0393	-0.00178715
0.251222	3286.59	518.897	3327.3	-8.97197	1005.35	-0.000248884	-0.515372	1220.91	29.6934	2	39	0.00674079	2.0259e-06	0	-0.0844408	0.132049	0.0819381	2.31496	2.3561e-06	5.04654e-06	2.60994e-06	4.64801e-06	1.72779e-06	3.13261e-06	32.4895	20.6415	102.574	3.0081e-07	3.08402e-07	2.40046e-07	2.42598e-07	2.60533e-07	1.37647e-07	0.000296867	4.68702e-05	0.000300544	8.97197	29693.4	188072	190402	-81.028	0.0000000E+000	0.0000000E+000	0.0000000E+000	81.028	0.0000000E+000	0.0000000E+000	0.0000000E+000	-81.028	0.0000000E+000	0.0000000E+000	0.0000000E+000	-8.97197	0.0000000E+000	0.0000000E+000	0.0000000E+000	8.97197	6.33381	81.028	-0.00351992
0.125939	3259.82	388.819	3282.92	-6.8019	1123.91	-0.000266382	-0.514744	3250.22	45.5918	2	39	0.00673916	2.05279e-06	0	-0.101389	0.144099	0.0651426	1.62857	2.11631e-06	7.16157e-06	2.03689e-06	5.49685e-06	1.78043e-06	6.98842e-07	27.1328	14.5574	87.5089	1.44551e-07	2.76485e-07	2.25254e-07	2.12515e-07	2.08365e-07	2.23255e-07	0.000302463	3.60766e-05	0.000304606	6.8019	45591.8	382237	384946	-83.1981	0.0000000E+000	0.0000000E+000	0.0000000E+000	83.1981	0.0000000E+000	0.0000000E+000	0.0000000E+000	-83.1981	0.0000000E+000	0.0000000E+000	0.0000000E+000	-6.8019	0.0000000E+000	0.0000000E+000	0.0000000E+000	6.8019	8.38389	83.1981	-0.00697373
317705	3.47885	1.33318	3.72555	-20.968	1188.21	-0.000155805	-0.517367	0.375758	0.0481174	3	38	0.00714327	0.00191737	0	-0.11058	-1	-1	-1	0	0	0	0	0	0	-1	-1	-1	0	0	0	0	0	0	0.250642	0.0960521	0.268417	20.968	48.1174	125.56	134.464	-69.032	0.0000000E+000	0.0000000E+000	0.0000000E+000	69.032	0.0000000E+000	0.0000000E+000	0.0000000E+000	-69.032	0.0000000E+000	0.0000000E+000	0.0000000E+000	-20.968	0.0000000E+000	0.0000000E+000	0.0000000E+000	20.968	2.60944	69.032	-0.00015909
159201	3.42167	0.961866	3.55429	-15.7012	1191.65	-0.000158508	-0.517758	1.03935	0.0761173	3	38	0.0072078	0.00202791	0	-0.111072	-1	-1	-1	0	0	0	0	0	0	-1	-1	-1	0	0	0	0	0	0	0.270852	0.0761392	0.28135	15.7012	76.1173	270.774	281.269	-74.2988	0.0000000E+000	0.0000000E+000	0.0000000E+000	74.2988	0.0000000E+000	0.0000000E+000	0.0000000E+000	-74.2988	0.0000000E+000	0.0000000E+000	0.0000000E+000	-15.7012	0.0000000E+000	0.0000000E+000	0.0000000E+000	15.7012	3.55732	74.2988	-0.000161786
79767.3	3.47497	1.06872	3.6356	-17.0952	1195.09	-0.000166113	-0.517791	1.86694	0.161328	3	38	0.00725335	0.00199509	0	-0.111563	0.835079	0.563042	18.7557	3.21313e-05	3.20597e-05	1.59508e-05	1.20155e-05	2.39522e-05	2.07121e-05	0.0595334	0.0309429	1.43798	6.58921e-07	3.13332e-07	3.42356e-07	4.3668e-07	2.30493e-07	6.25403e-07	0.262905	0.0808562	0.275058	17.0952	161.327	524.559	548.806	-72.9048	0.0000000E+000	0.0000000E+000	0.0000000E+000	72.9048	0.0000000E+000	0.0000000E+000	0.0000000E+000	-72.9048	0.0000000E+000	0.0000000E+000	0.0000000E+000	-17.0952	0.0000000E+000	0.0000000E+000	0.0000000E+000	17.0952	3.25151	72.9048	-0.000164869
39971.8	3.57604	1.61507	3.92384	-24.3056	1198.53	-0.000149393	-0.518313	2.46534	0.417671	3	38	0.00723888	0.00184485	0	-0.112056	0.844482	0.535074	18.8471	2.38676e-05	1.52532e-05	1.76615e-05	2.75632e-05	2.99626e-05	2.27979e-05	0.0808812	0.0714129	1.58426	5.20849e-07	6.87831e-07	6.79621e-07	3.88421e-07	6.51055e-07	3.6992e-07	0.232263	0.104898	0.254852	24.3056	417.671	924.797	1014.74	-65.6944	0.0000000E+000	0.0000000E+000	0.0000000E+000	65.6944	0.0000000E+000	0.0000000E+000	0.0000000E+000	-65.6944	0.0000000E+000	0.0000000E+000	0.0000000E+000	-24.3056	0.0000000E+000	0.0000000E+000	0.0000000E+000	24.3056	2.21418	65.6944	-0.000165121
20032.3	3.80891	2.79517	4.72449	-36.2731	1201.97	-0.000166542	-0.518283	2.84238	0.99492	3	38	0.00727795	0.00154047	0	-0.112551	0.908273	0.627629	18.1278	2.11862e-05	3.15253e-05	2.95088e-05	2.43828e-05	2.8749e-05	1.61258e-05	0.100788	0.0677645	1.92449	7.44718e-07	1.08033e-06	4.12795e-07	3.99103e-07	3.37569e-07	4.28271e-07	0.170644	0.125227	0.211663	36.2731	994.92	1355.75	1681.65	-53.7269	0.0000000E+000	0.0000000E+000	0.0000000E+000	53.7269	0.0000000E+000	0.0000000E+000	0.0000000E+000	-53.7269	0.0000000E+000	0.0000000E+000	0.0000000E+000	-36.2731	0.0000000E+000	0.0000000E+000	0.0000000E+000	36.2731	1.36268	53.7269	-0.000164881
10039.3	4.28962	5.1466	6.69987	-50.1893	1205.41	-0.000198455	-0.517741	3.08031	1.81762	3	38	0.00718695	0.0010727	0	-0.113045	0.973252	0.628114	18.7861	3.2891e-05	2.7828e-05	2.54809e-05	2.63745e-05	1.84014e-05	2.21052e-05	0.203802	0.101616	2.74957	1.62081e-06	7.52326e-07	6.01623e-07	3.96457e-07	6.77069e-07	3.59015e-07	0.095562	0.114653	0.149257	50.1893	1817.62	1514.96	2366.18	-39.8107	0.0000000E+000	0.0000000E+000	0.0000000E+000	39.8107	0.0000000E+000	0.0000000E+000	0.0000000E+000	-39.8107	0.0000000E+000	0.0000000E+000	0.0000000E+000	-50.1893	0.0000000E+000	0.0000000E+000	0.0000000E+000	50.1893	0.833485	39.8107	-0.000165222
5028.39	5.43619	9.36878	10.8317	-59.8757	1208.76	-0.000287986	-0.517907	3.37838	2.52743	3	38	0.00712684	0.00065796	0	-0.113514	1.26814	0.634051	18.6865	4.16549e-05	3.38523e-05	4.67563e-05	1.92931e-05	3.81265e-05	2.07278e-05	0.401964	0.161225	4.41542	2.20353e-06	2.85439e-07	6.79421e-07	7.8658e-07	3.89465e-07	7.6927e-07	0.046334	0.0798524	0.0923214	59.8757	2527.43	1466.53	2922.09	-30.1243	0.0000000E+000	0.0000000E+000	0.0000000E+000	30.1243	0.0000000E+000	0.0000000E+000	0.0000000E+000	-30.1243	0.0000000E+000	0.0000000E+000	0.0000000E+000	-59.8757	0.0000000E+000	0.0000000E+000	0.0000000E+000	59.8757	0.580246	30.1243	-0.000157654
2519.19	7.86983	16.7808	18.5345	-64.8744	1212.08	-0.000316488	-0.516443	3.76485	3.08609	3	38	0.00636595	0.000343465	0	-0.113987	0.942931	0.76047	20.6664	2.6705e-05	2.62371e-05	2.1148e-05	2.09933e-05	2.366e-05	1.98078e-05	0.611998	0.324038	8.35404	1.06621e-06	8.01129e-07	6.96299e-07	8.16598e-07	5.65095e-07	8.47888e-07	0.0229088	0.0488483	0.0539534	64.8744	3086.09	1447.31	3408.62	-25.1256	0.0000000E+000	0.0000000E+000	0.0000000E+000	25.1256	0.0000000E+000	0.0000000E+000	0.0000000E+000	-25.1256	0.0000000E+000	0.0000000E+000	0.0000000E+000	-64.8744	0.0000000E+000	0.0000000E+000	0.0000000E+000	64.8744	0.468979	25.1256	-0.000157514
1262.98	12.8958	29.2174	31.9368	-66.1845	1215.62	-0.000313077	-0.51614	4.31303	3.6098	3	38	0.00688106	0.000215459	0	-0.114493	0.876279	0.606049	19.54	2.73918e-05	1.86024e-05	1.4345e-05	1.24099e-05	1.48652e-05	4.06355e-05	0.841637	0.489831	13.6796	7.6066e-07	4.80593e-07	6.47867e-07	9.10975e-07	6.16397e-07	7.68896e-07	0.0126435	0.0286457	0.0313118	66.1845	3609.8	1593.28	3945.78	-23.8155	0.0000000E+000	0.0000000E+000	0.0000000E+000	23.8155	0.0000000E+000	0.0000000E+000	0.0000000E+000	-23.8155	0.0000000E+000	0.0000000E+000	0.0000000E+000	-66.1845	0.0000000E+000	0.0000000E+000	0.0000000E+000	66.1845	0.441375	23.8155	-0.000157859
632.773	22.9034	48.6948	53.8122	-64.8102	1219.19	-0.000254377	-0.516653	5.16523	4.22955	3	39	0.00705681	0.000131138	0	-0.114995	1.06584	0.628363	18.1608	3.01921e-05	2.94691e-05	1.86183e-05	3.10982e-05	3.30235e-05	2.50767e-05	0.943982	0.323416	9.92335	5.90822e-07	5.05772e-07	2.50843e-07	7.70492e-07	3.05855e-07	2.12649e-07	0.00790933	0.0168159	0.0185832	64.8102	4229.55	1989.35	4674.03	-25.1898	0.0000000E+000	0.0000000E+000	0.0000000E+000	25.1898	0.0000000E+000	0.0000000E+000	0.0000000E+000	-25.1898	0.0000000E+000	0.0000000E+000	0.0000000E+000	-64.8102	0.0000000E+000	0.0000000E+000	0.0000000E+000	64.8102	0.470347	25.1898	-0.000156973
316.927	40.9428	78.7942	88.7966	-62.5428	1222.51	-0.000264201	-0.516064	6.37334	5.01837	3	39	0.00683725	7.6999e-05	0	-0.115465	1.2752	0.49061	18.8264	4.8091e-05	1.85855e-05	4.14881e-05	2.4631e-05	3.85992e-05	2.83155e-05	1.31834	0.395046	17.336	5.9003e-07	3.04035e-07	3.0751e-07	3.68361e-07	4.45674e-07	2.2908e-07	0.0051926	0.00999313	0.0112617	62.5428	5018.37	2607.63	5655.42	-27.4572	0.0000000E+000	0.0000000E+000	0.0000000E+000	27.4572	0.0000000E+000	0.0000000E+000	0.0000000E+000	-27.4572	0.0000000E+000	0.0000000E+000	0.0000000E+000	-62.5428	0.0000000E+000	0.0000000E+000	0.0000000E+000	62.5428	0.519617	27.4572	-0.000156575
158.831	71.4404	123.891	143.013	-60.0306	1225.84	-0.000302806	-0.512716	8.08808	6.0698	3	39	0.00677219	4.73537e-05	0	-0.115935	1.04733	0.450843	19.0005	1.65015e-05	2.79742e-05	2.33588e-05	3.22453e-05	2.46554e-05	3.02416e-05	1.53473	0.519232	28.3343	2.43271e-07	3.54502e-07	2.3328e-07	2.82599e-07	2.66611e-07	2.49768e-07	0.00349295	0.00605744	0.00699237	60.0306	6069.8	3500.08	7006.64	-29.9694	0.0000000E+000	0.0000000E+000	0.0000000E+000	29.9694	0.0000000E+000	0.0000000E+000	0.0000000E+000	-29.9694	0.0000000E+000	0.0000000E+000	0.0000000E+000	-60.0306	0.0000000E+000	0.0000000E+000	0.0000000E+000	60.0306	0.576639	29.9694	-0.000157044
79.6177	119.701	187.665	222.59	-57.4685	1229.12	-0.000248338	-0.514746	10.6519	7.57149	3	39	0.00674558	3.03049e-05	0	-0.116399	0.982287	0.36824	19.5417	3.19444e-05	2.52722e-05	1.83227e-05	2.96539e-05	1.99322e-05	3.03034e-05	2.39577	1.7033	45.1408	3.49285e-07	3.10205e-07	2.16308e-07	2.82302e-07	2.23547e-07	2.79451e-07	0.00241593	0.00378766	0.00449256	57.4685	7571.49	4829.43	8980.58	-32.5315	0.0000000E+000	0.0000000E+000	0.0000000E+000	32.5315	0.0000000E+000	0.0000000E+000	0.0000000E+000	-32.5315	0.0000000E+000	0.0000000E+000	0.0000000E+000	-57.4685	0.0000000E+000	0.0000000E+000	0.0000000E+000	57.4685	0.637844	32.5315	-0.00015146
39.8851	194.936	278.331	339.806	-54.9936	1232.34	-0.000269644	-0.513822	14.3366	9.61852	3	39	0.00673752	1.98275e-05	0	-0.116855	1.19511	0.708973	18.8453	3.21936e-05	4.03555e-05	3.56116e-05	2.37613e-05	1.86737e-05	2.84386e-05	3.65768	3.07625	67.9088	2.00497e-07	2.47493e-07	3.04033e-07	2.908e-07	2.70935e-07	2.68984e-07	0.00168822	0.00241045	0.00294285	54.9936	9618.52	6736.56	11743	-35.0064	0.0000000E+000	0.0000000E+000	0.0000000E+000	35.0064	0.0000000E+000	0.0000000E+000	0.0000000E+000	-35.0064	0.0000000E+000	0.0000000E+000	0.0000000E+000	-54.9936	0.0000000E+000	0.0000000E+000	0.0000000E+000	54.9936	0.700374	35.0064	-0.000151445
19.9808	317.143	417.121	523.994	-52.7537	1235.51	-0.000263306	-0.514203	19.0961	12.1009	3	39	0.00673846	1.28598e-05	0	-0.117304	1.13918	0.449285	18.7445	2.01639e-05	2.42865e-05	2.20972e-05	4.71903e-05	2.57731e-05	2.62469e-05	5.81007	3.06603	101.758	1.73853e-07	4.1772e-07	1.4517e-07	2.95818e-07	2.77743e-07	2.80323e-07	0.00115505	0.00151918	0.00190842	52.7537	12100.9	9200.46	15201.3	-37.2463	0.0000000E+000	0.0000000E+000	0.0000000E+000	37.2463	0.0000000E+000	0.0000000E+000	0.0000000E+000	-37.2463	0.0000000E+000	0.0000000E+000	0.0000000E+000	-52.7537	0.0000000E+000	0.0000000E+000	0.0000000E+000	52.7537	0.760315	37.2463	-0.000151001
10.016	472.444	587.896	754.205	-51.214	1238.78	-0.000260901	-0.514207	27.0286	16.4227	3	39	0.00673987	8.93639e-06	0	-0.117767	0.971082	0.517293	19.3536	3.1398e-05	2.33951e-05	2.05492e-05	1.73168e-05	2.85383e-05	2.21522e-05	7.33718	8.01054	149.352	2.62854e-07	3.36819e-07	2.66493e-07	1.1534e-07	2.57959e-07	1.9094e-07	0.000830561	0.00103353	0.0013259	51.214	16422.7	13197.6	21068.6	-38.786	0.0000000E+000	0.0000000E+000	0.0000000E+000	38.786	0.0000000E+000	0.0000000E+000	0.0000000E+000	-38.786	0.0000000E+000	0.0000000E+000	0.0000000E+000	-51.214	0.0000000E+000	0.0000000E+000	0.0000000E+000	51.214	0.803618	38.786	-0.000150947
5.01766	759.99	828.189	1124.05	-47.4589	1242.99	-0.000245007	-0.513515	38.2992	20.7912	3	39	0.00674043	5.99657e-06	0	-0.118361	0.581582	0.363062	11.3564	1.94631e-05	1.01636e-05	1.63283e-05	1.84728e-05	1.30586e-05	8.22928e-06	7.17129	12.181	130.438	1.76455e-07	1.2843e-07	1.25701e-07	2.34112e-07	1.72811e-07	1.27297e-07	0.000601505	0.000655481	0.000889642	47.4589	20791.2	19079.1	28218.5	-42.5411	0.0000000E+000	0.0000000E+000	0.0000000E+000	42.5411	0.0000000E+000	0.0000000E+000	0.0000000E+000	-42.5411	0.0000000E+000	0.0000000E+000	0.0000000E+000	-47.4589	0.0000000E+000	0.0000000E+000	0.0000000E+000	47.4589	0.917653	42.5412	-0.000229106
2.51368	1401.33	1135.23	1803.46	-39.0112	1250.02	-0.000251682	-0.514362	55.7733	22.0994	3	39	0.00674139	3.73802e-06	0	-0.119359	0.419185	0.166444	7.4293	1.32883e-05	1.47595e-05	6.84568e-06	1.04623e-05	6.62576e-06	1.02522e-05	9.9346	18.2617	137.989	2.28395e-07	1.67919e-07	1.12271e-07	5.12393e-08	5.45141e-08	1.75915e-07	0.00043085	0.000349035	0.000554489	39.0112	22099.4	27279.5	35107.8	-50.9888	0.0000000E+000	0.0000000E+000	0.0000000E+000	50.9888	0.0000000E+000	0.0000000E+000	0.0000000E+000	-50.9888	0.0000000E+000	0.0000000E+000	0.0000000E+000	-39.0112	0.0000000E+000	0.0000000E+000	0.0000000E+000	39.0112	1.2344	50.9888	-0.000398428
1.25968	1853.6	974.641	2094.22	-27.7358	1262.85	-0.000244263	-0.512934	129.633	28.0776	3	39	0.00673918	3.21799e-06	0	-0.121186	0.312778	0.141788	5.35498	9.69899e-06	7.84247e-06	9.20828e-06	5.36459e-06	8.60107e-06	4.14164e-06	27.5169	37.0591	118.268	5.48791e-07	3.70698e-07	2.83021e-07	3.71315e-07	1.57012e-07	1.97506e-07	0.000422641	0.000222229	0.000477505	27.7358	28077.6	53398.9	60330.7	-62.2642	0.0000000E+000	0.0000000E+000	0.0000000E+000	62.2642	0.0000000E+000	0.0000000E+000	0.0000000E+000	-62.2642	0.0000000E+000	0.0000000E+000	0.0000000E+000	-27.7358	0.0000000E+000	0.0000000E+000	0.0000000E+000	27.7358	1.90183	62.2642	-0.000740874
0.631645	2656.66	891.214	2802.16	-18.5448	1287.31	-0.000251645	-0.51384	282.726	28.5985	3	39	0.00673798	2.40457e-06	0	-0.12467	0.230328	0.080229	3.26424	5.35043e-06	1.06333e-05	3.38027e-06	4.21445e-06	4.85546e-06	5.64559e-06	35.5462	34.3618	109.705	3.79701e-07	3.59782e-07	3.62798e-07	2.51904e-07	2.29423e-07	1.58466e-07	0.000338337	0.0001135	0.000356868	18.5448	28598.5	85250.6	89919.6	-71.4552	0.0000000E+000	0.0000000E+000	0.0000000E+000	71.4552	0.0000000E+000	0.0000000E+000	0.0000000E+000	-71.4552	0.0000000E+000	0.0000000E+000	0.0000000E+000	-18.5448	0.0000000E+000	0.0000000E+000	0.0000000E+000	18.5448	2.98094	71.4552	-0.00142364
0.316193	2580.8	983.818	2761.96	-20.8672	1335.08	-0.000254388	-0.51345	511.627	64.9154	3	39	0.00674095	2.44064e-06	0	-0.131478	0.181208	0.084998	2.60206	1.69441e-06	7.45413e-06	4.94027e-06	3.4457e-06	3.45244e-06	4.74908e-06	27.5468	16.5426	89.3323	1.38842e-07	3.38248e-07	4.57716e-07	1.71285e-07	1.19843e-07	1.44442e-07	0.000338314	0.000128967	0.000362062	20.8672	64915.3	170289	182243	-69.1328	0.0000000E+000	0.0000000E+000	0.0000000E+000	69.1328	0.0000000E+000	0.0000000E+000	0.0000000E+000	-69.1328	0.0000000E+000	0.0000000E+000	0.0000000E+000	-20.8672	0.0000000E+000	0.0000000E+000	0.0000000E+000	20.8672	2.62325	69.1328	-0.00279664
0.158419	3035.04	516.832	3078.73	-9.66411	1429.46	-0.000248924	-0.513111	1943.86	54.7798	3	39	0.00674101	2.18954e-06	0	-0.144924	0.143083	0.121246	1.71306	2.49966e-06	5.72785e-06	2.88296e-06	3.19263e-06	2.38216e-06	3.23916e-06	31.4439	8.81045	82.5673	2.41052e-07	2.42542e-07	1.98331e-07	2.41479e-07	4.34138e-07	1.2352e-07	0.0003202	5.45263e-05	0.000324809	9.66411	54779.8	321688	326319	-80.3359	0.0000000E+000	0.0000000E+000	0.0000000E+000	80.3359	0.0000000E+000	0.0000000E+000	0.0000000E+000	-80.3359	0.0000000E+000	0.0000000E+000	0.0000000E+000	-9.66411	0.0000000E+000	0.0000000E+000	0.0000000E+000	9.66411	5.87239	80.3359	-0.00553394
0.0999518	2782.23	279.908	2796.27	-5.74495	1539.66	-0.000263102	-0.512398	5688.72	57.0015	3	39	0.00674309	2.41146e-06	0	-0.160607	0.130541	0.0799939	1.67577	2.092e-06	5.71106e-06	1.95897e-06	5.14053e-06	1.76799e-06	1.32495e-06	21.2977	8.30776	68.8353	2.15696e-07	2.77438e-07	1.43677e-07	2.06362e-07	8.68603e-08	1.31072e-07	0.000355823	3.57978e-05	0.000357619	5.74495	57001.5	566583	569443	-84.2551	0.0000000E+000	0.0000000E+000	0.0000000E+000	84.2551	0.0000000E+000	0.0000000E+000	0.0000000E+000	-84.2551	0.0000000E+000	0.0000000E+000	0.0000000E+000	-5.74495	0.0000000E+000	0.0000000E+000	0.0000000E+000	5.74495	9.93979	84.2551	-0.00873614