File: Python/Data/RDE/240223-OCV-EIS-Fe2Fe3_5mM-HCl1M-2000RPM-Ag_AgCl_BLF8-GC-RDE-1minRestVSEoc-3ppf-14p1mVAmplitude_06_PEIS_C15.mpt
EC-Lab ASCII FILE
Nb header lines : 67

Potentio Electrochemical Impedance Spectroscopy

Run on channel : 15 (SN 19485)
User :
Electrode connection : standard
Potential control : Ewe
Ewe ctrl range : min = -1.00 V, max = 1.00 V
Ewe,I filtering : 50 kHz
Safety Limits :
	Do not start on E overload
Channel : Floating
Acquisition started on : 02/23/2024 14:14:06.635
Loaded Setting File :  NONE
Saved on :
	File : 240223-OCV-EIS-Fe2Fe3_5mM-HCl1M-2000RPM-Ag_AgCl_BLF8-GC-RDE-1minRestVSEoc-3ppf-14p1mVAmplitude_06_PEIS_C15.mpr
	Directory : C:\Data\mathias\RDE-RPM-variation\
	Host : 192.168.0.1
Device : VMP-300 (SN 0826)
Address : USB
EC-Lab for windows v11.52 (software)
Internet server v11.52 (firmware)
Command interpretor v11.52 (firmware)
Electrode material :
Initial state :
Electrolyte :
Comments :
Cable : special
Reference electrode : SCE Saturated Calomel Electrode (0.241 V)
Electrode surface area : 0.001 cm²
Characteristic mass : 0.001 g
Equivalent Weight : 0.000 g/eq.
Density : 0.000 g/cm3
Volume (V) : 0.001 cm³
Record EIS quality indicators
Cycle Definition : Charge/Discharge alternance
Mode                Single sine
E (V)               0.0000
vs.                 Eoc
tE (h:m:s)          0:01:0.0000
record              0
dI                  0.000
unit dI             mA
dt (s)              0.000
fi                  1.000
unit fi             MHz
ff                  100.000
unit ff             mHz
Nd                  10
Points              per decade
spacing             Logarithmic
Va (mV)             14.1
pw                  0.10
Na                  3
corr                0
E range min (V)     -1.000
E range max (V)     1.000
I Range             Auto
Bandwidth           8
nc cycles           0
goto Ns'            0
nr cycles           0
inc. cycle          1

freq/Hz	Re(Z)/Ohm	-Im(Z)/Ohm	|Z|/Ohm	Phase(Z)/deg	time/s	<Ewe>/V	<I>/mA	Cs/µF	Cp/µF	cycle number	I Range	|Ewe|/V	|I|/A	Ns	(Q-Qo)/mA.h	THD Ewe/%	NSD Ewe/%	NSR Ewe/%	|Ewe h2|/V	|Ewe h3|/V	|Ewe h4|/V	|Ewe h5|/V	|Ewe h6|/V	|Ewe h7|/V	THD I/%	NSD I/%	NSR I/%	|I h2|/A	|I h3|/A	|I h4|/A	|I h5|/A	|I h6|/A	|I h7|/A	Re(Y)/Ohm-1	Im(Y)/Ohm-1	|Y|/Ohm-1	Phase(Y)/deg	Re(C)/nF	Im(C)/nF	|C|/nF	Phase(C)/deg	Re(M)	Im(M)	|M|	Phase(M)/deg	Re(Permittivity)	Im(Permittivity)	|Permittivity|	Phase(Permittivity)/deg	Re(Resistivity)/Ohm.cm	Im(Resistivity)/Ohm.cm	|Resistivity|/Ohm.cm	Phase(Resistivity)/deg	Re(Conductivity)/mS/cm	Im(Conductivity)/mS/cm	|Conductivity|/mS/cm	Phase(Conductivity)/deg	Tan(Delta)	Loss Angle(Delta)/deg	dq/mA.h
1.00002e+06	3.54873	4.07759	5.40557	-48.9669	1088.4	0.459684	-0.0121438	0.0390309	0.0222091	1	38	0.0111452	0.0020618	0	-2.94151e-06	-1	-1	-1	0	0	0	0	0	0	-1	-1	-1	0	0	0	0	0	0	0.121448	0.139547	0.184994	48.9669	22.2091	19.3287	29.4422	-41.0331	0.0000000E+000	0.0000000E+000	0.0000000E+000	41.0331	0.0000000E+000	0.0000000E+000	0.0000000E+000	-41.0331	0.0000000E+000	0.0000000E+000	0.0000000E+000	-48.9669	0.0000000E+000	0.0000000E+000	0.0000000E+000	48.9669	0.870302	41.0331	-2.94151e-06
794333	3.58274	3.20079	4.80428	-41.7773	1089.42	0.459667	-0.00305381	0.0625981	0.0277855	1	38	0.0138791	0.0028889	0	-5.95425e-06	-1	-1	-1	0	0	0	0	0	0	-1	-1	-1	0	0	0	0	0	0	0.155224	0.138676	0.208148	41.7773	27.7855	31.1012	41.7052	-48.2227	0.0000000E+000	0.0000000E+000	0.0000000E+000	48.2227	0.0000000E+000	0.0000000E+000	0.0000000E+000	-48.2227	0.0000000E+000	0.0000000E+000	0.0000000E+000	-41.7773	0.0000000E+000	0.0000000E+000	0.0000000E+000	41.7773	1.11933	48.2227	-3.01274e-06
630957	3.57172	2.51359	4.36753	-35.1359	1090.56	0.459669	-0.00347644	0.100352	0.0332386	1	38	0.014457	0.00331011	0	-2.79782e-06	-1	-1	-1	0	0	0	0	0	0	-1	-1	-1	0	0	0	0	0	0	0.187243	0.131772	0.228962	35.1359	33.2386	47.2308	57.7543	-54.8641	0.0000000E+000	0.0000000E+000	0.0000000E+000	54.8641	0.0000000E+000	0.0000000E+000	0.0000000E+000	-54.8641	0.0000000E+000	0.0000000E+000	0.0000000E+000	-35.1359	0.0000000E+000	0.0000000E+000	0.0000000E+000	35.1359	1.42096	54.8641	3.15642e-06
501206	3.53911	2.00631	4.06824	-29.5488	1091.71	0.459691	-0.00341498	0.158272	0.0384936	1	38	0.0145805	0.00358398	0	-9.44698e-06	-1	-1	-1	0	0	0	0	0	0	-1	-1	-1	0	0	0	0	0	0	0.213836	0.121223	0.245806	29.5488	38.4936	67.9022	78.0543	-60.4512	0.0000000E+000	0.0000000E+000	0.0000000E+000	60.4512	0.0000000E+000	0.0000000E+000	0.0000000E+000	-60.4512	0.0000000E+000	0.0000000E+000	0.0000000E+000	-29.5488	0.0000000E+000	0.0000000E+000	0.0000000E+000	29.5488	1.76399	60.4512	-6.64916e-06
398103	3.49772	1.62313	3.85598	-24.8939	1092.86	0.459657	-0.00301094	0.246304	0.0436424	1	38	0.0145547	0.00377457	0	-1.28621e-05	-1	-1	-1	0	0	0	0	0	0	-1	-1	-1	0	0	0	0	0	0	0.235242	0.109165	0.259338	24.8939	43.6424	94.0458	103.679	-65.1061	0.0000000E+000	0.0000000E+000	0.0000000E+000	65.1061	0.0000000E+000	0.0000000E+000	0.0000000E+000	-65.1061	0.0000000E+000	0.0000000E+000	0.0000000E+000	-24.8939	0.0000000E+000	0.0000000E+000	0.0000000E+000	24.8939	2.15492	65.1061	-3.41516e-06
316230	3.45957	1.35381	3.71503	-21.3716	1094.01	0.459678	-0.00345409	0.371756	0.0493688	1	38	0.0145707	0.00392209	0	-5.11517e-06	-1	-1	-1	0	0	0	0	0	0	-1	-1	-1	0	0	0	0	0	0	0.250668	0.0980924	0.269177	21.3716	49.3688	126.158	135.474	-68.6284	0.0000000E+000	0.0000000E+000	0.0000000E+000	68.6284	0.0000000E+000	0.0000000E+000	0.0000000E+000	-68.6284	0.0000000E+000	0.0000000E+000	0.0000000E+000	-21.3716	0.0000000E+000	0.0000000E+000	0.0000000E+000	21.3716	2.55542	68.6284	7.74697e-06
251188	3.42882	1.17095	3.62325	-18.8551	1095.15	0.459673	-0.00228106	0.541109	0.0565149	1	38	0.0145528	0.0040165	0	-5.4303e-06	-1	-1	-1	0	0	0	0	0	0	-1	-1	-1	0	0	0	0	0	0	0.261185	0.0891952	0.275995	18.8551	56.5149	165.49	174.873	-71.1449	0.0000000E+000	0.0000000E+000	0.0000000E+000	71.1449	0.0000000E+000	0.0000000E+000	0.0000000E+000	-71.1449	0.0000000E+000	0.0000000E+000	0.0000000E+000	-18.8551	0.0000000E+000	0.0000000E+000	0.0000000E+000	18.8551	2.92824	71.1449	-3.15123e-07
199544	3.41843	1.04655	3.57504	-17.0219	1096.3	0.459675	-0.00322506	0.762121	0.06531	1	38	0.014544	0.00406822	0	-5.96516e-06	-1	-1	-1	0	0	0	0	0	0	-1	-1	-1	0	0	0	0	0	0	0.267464	0.0818836	0.279717	17.0219	65.31	213.328	223.101	-72.9781	0.0000000E+000	0.0000000E+000	0.0000000E+000	72.9781	0.0000000E+000	0.0000000E+000	0.0000000E+000	-72.9781	0.0000000E+000	0.0000000E+000	0.0000000E+000	-17.0219	0.0000000E+000	0.0000000E+000	0.0000000E+000	17.0219	3.26639	72.9781	-5.34859e-07
158486	3.41779	0.988331	3.55783	-16.1284	1097.45	0.459664	-0.00335912	1.01608	0.0784083	1	38	0.0145933	0.00410174	0	-8.39579e-06	-1	-1	-1	0	0	0	0	0	0	-1	-1	-1	0	0	0	0	0	0	0.270008	0.0780788	0.281071	16.1284	78.4083	271.148	282.257	-73.8716	0.0000000E+000	0.0000000E+000	0.0000000E+000	73.8716	0.0000000E+000	0.0000000E+000	0.0000000E+000	-73.8716	0.0000000E+000	0.0000000E+000	0.0000000E+000	-16.1284	0.0000000E+000	0.0000000E+000	0.0000000E+000	16.1284	3.45815	73.8716	-2.43063e-06
125909	3.41873	0.985512	3.55794	-16.0806	1098.6	0.459642	-0.003091	1.28263	0.0984073	1	38	0.0145542	0.00409062	0	-6.20456e-06	-1	-1	-1	0	0	0	0	0	0	-1	-1	-1	0	0	0	0	0	0	0.270064	0.0778511	0.281062	16.0806	98.4072	341.373	355.274	-73.9194	0.0000000E+000	0.0000000E+000	0.0000000E+000	73.9194	0.0000000E+000	0.0000000E+000	0.0000000E+000	-73.9194	0.0000000E+000	0.0000000E+000	0.0000000E+000	-16.0806	0.0000000E+000	0.0000000E+000	0.0000000E+000	16.0806	3.46899	73.9194	2.19123e-06
100004	3.43426	1.02578	3.58419	-16.6304	1099.74	0.459659	-0.00242629	1.55149	0.127081	1	38	0.0145804	0.00406799	0	-7.08988e-07	0.439106	0.30371	8.79513	2.49614e-05	1.42855e-05	2.8211e-05	1.39294e-05	3.27412e-05	2.84953e-05	0.0669741	0.0287484	0.709913	1.84175e-06	1.48854e-06	5.85714e-07	7.4375e-07	5.65996e-07	4.91672e-07	0.267333	0.07985	0.279003	16.6304	127.081	425.458	444.031	-73.3696	0.0000000E+000	0.0000000E+000	0.0000000E+000	73.3696	0.0000000E+000	0.0000000E+000	0.0000000E+000	-73.3696	0.0000000E+000	0.0000000E+000	0.0000000E+000	-16.6304	0.0000000E+000	0.0000000E+000	0.0000000E+000	16.6304	3.34794	73.3696	5.49558e-06
79433.3	3.45434	1.13044	3.6346	-18.1207	1100.89	0.459679	-0.00295322	1.77244	0.171455	1	38	0.0146127	0.00402045	0	-5.56378e-06	0.479225	0.237437	8.8366	2.79882e-05	2.68076e-05	2.27587e-05	2.75037e-05	2.16721e-05	2.71994e-05	0.0544208	0.0242123	0.706243	1.23578e-06	1.15718e-06	8.05412e-07	4.56525e-07	5.14597e-07	6.5941e-07	0.261487	0.085572	0.275133	18.1207	171.455	523.924	551.265	-71.8793	0.0000000E+000	0.0000000E+000	0.0000000E+000	71.8793	0.0000000E+000	0.0000000E+000	0.0000000E+000	-71.8793	0.0000000E+000	0.0000000E+000	0.0000000E+000	-18.1207	0.0000000E+000	0.0000000E+000	0.0000000E+000	18.1207	3.05576	71.8793	-4.85479e-06
63093.8	3.48318	1.27199	3.70817	-20.0612	1102.04	0.459665	-0.00256408	1.98313	0.233345	1	38	0.0146231	0.00394349	0	-1.89621e-06	0.49913	0.279082	8.83773	3.09194e-05	3.59863e-05	1.85548e-05	2.20884e-05	3.34618e-05	1.95919e-05	0.0619009	0.0274066	0.755236	1.25968e-06	1.3806e-06	5.94514e-07	6.93602e-07	9.88906e-07	5.32306e-07	0.253313	0.0925049	0.269675	20.0612	233.345	638.985	680.259	-69.9388	0.0000000E+000	0.0000000E+000	0.0000000E+000	69.9388	0.0000000E+000	0.0000000E+000	0.0000000E+000	-69.9388	0.0000000E+000	0.0000000E+000	0.0000000E+000	-20.0612	0.0000000E+000	0.0000000E+000	0.0000000E+000	20.0612	2.73837	69.9388	3.66757e-06
50122.5	3.51965	1.46946	3.81409	-22.6606	1103.18	0.459695	-0.00211163	2.16087	0.320748	1	38	0.0146143	0.00383165	0	-8.55824e-06	0.423405	0.248158	8.75167	9.22647e-06	1.79302e-05	2.32585e-05	2.61835e-05	1.9171e-05	3.69851e-05	0.0728085	0.0308798	0.742833	6.29428e-07	1.88504e-06	5.80172e-07	7.00418e-07	1.20533e-06	1.06223e-06	0.241946	0.101013	0.262186	22.6606	320.748	768.256	832.524	-67.3394	0.0000000E+000	0.0000000E+000	0.0000000E+000	67.3394	0.0000000E+000	0.0000000E+000	0.0000000E+000	-67.3394	0.0000000E+000	0.0000000E+000	0.0000000E+000	-22.6606	0.0000000E+000	0.0000000E+000	0.0000000E+000	22.6606	2.3952	67.3394	-6.66203e-06
39814.1	3.56466	1.73589	3.96486	-25.9648	1104.33	0.459678	-0.0025436	2.30283	0.441418	1	38	0.0146428	0.00369314	0	-5.20047e-06	0.450538	0.348246	8.7103	2.69889e-05	2.00459e-05	2.55552e-05	1.31969e-05	2.27301e-05	3.35604e-05	0.0604151	0.0579761	0.775917	6.55548e-07	1.26532e-06	7.28459e-07	7.62223e-07	8.74053e-07	9.10291e-07	0.226758	0.110425	0.252216	25.9648	441.418	906.455	1008.22	-64.0352	0.0000000E+000	0.0000000E+000	0.0000000E+000	64.0352	0.0000000E+000	0.0000000E+000	0.0000000E+000	-64.0352	0.0000000E+000	0.0000000E+000	0.0000000E+000	-25.9648	0.0000000E+000	0.0000000E+000	0.0000000E+000	25.9648	2.05351	64.0352	3.35777e-06
31621.1	3.61457	2.08056	4.17059	-29.9249	1105.48	0.459661	-0.00285082	2.41915	0.602042	1	38	0.0146495	0.00351256	0	-5.95111e-06	0.413873	0.438365	8.8265	1.35322e-05	3.58267e-05	1.36309e-05	2.00024e-05	2.61212e-05	1.88326e-05	0.0725357	0.0442027	0.803508	7.72414e-07	1.57704e-06	1.07052e-06	6.1749e-07	5.05631e-07	1.03146e-06	0.207807	0.119615	0.239774	29.9249	602.042	1045.93	1206.83	-60.0751	0.0000000E+000	0.0000000E+000	0.0000000E+000	60.0751	0.0000000E+000	0.0000000E+000	0.0000000E+000	-60.0751	0.0000000E+000	0.0000000E+000	0.0000000E+000	-29.9249	0.0000000E+000	0.0000000E+000	0.0000000E+000	29.9249	1.73731	60.0751	-7.50643e-07
25116.9	3.67999	2.50536	4.45187	-34.2473	1106.63	0.459671	-0.00217123	2.5292	0.801013	1	38	0.0146606	0.00329313	0	-1.15802e-05	0.504546	0.216316	8.68954	3.42171e-05	1.84257e-05	3.87082e-05	3.64203e-05	1.35787e-05	2.52804e-05	0.0615448	0.0583273	0.883939	7.14289e-07	9.03305e-07	7.57518e-07	6.72217e-07	9.9113e-07	5.0561e-07	0.185678	0.126411	0.224625	34.2473	801.013	1176.56	1423.35	-55.7527	0.0000000E+000	0.0000000E+000	0.0000000E+000	55.7527	0.0000000E+000	0.0000000E+000	0.0000000E+000	-55.7527	0.0000000E+000	0.0000000E+000	0.0000000E+000	-34.2473	0.0000000E+000	0.0000000E+000	0.0000000E+000	34.2473	1.46884	55.7527	-5.62906e-06
19948.8	3.77929	3.05399	4.859	-38.9412	1107.77	0.459683	-0.00350812	2.61238	1.032	1	38	0.0147481	0.00303522	0	-1.33331e-05	0.505343	0.265092	8.61091	4.00039e-05	2.48011e-05	3.9335e-05	2.93798e-05	1.46654e-05	1.62066e-05	0.0725703	0.046686	0.943649	9.9221e-07	9.68387e-07	9.89661e-07	6.15654e-07	5.02505e-07	9.39353e-07	0.160073	0.129352	0.205804	38.9412	1031.99	1277.09	1641.94	-51.0588	0.0000000E+000	0.0000000E+000	0.0000000E+000	51.0588	0.0000000E+000	0.0000000E+000	0.0000000E+000	-51.0588	0.0000000E+000	0.0000000E+000	0.0000000E+000	-38.9412	0.0000000E+000	0.0000000E+000	0.0000000E+000	38.9412	1.23749	51.0589	-1.75297e-06
15847.7	3.89274	3.73758	5.39657	-43.8351	1108.92	0.459662	-0.00248406	2.68698	1.28887	1	38	0.0147898	0.00274059	0	-1.76261e-05	0.424082	0.174182	8.70226	2.43096e-05	1.65764e-05	3.29461e-05	2.55718e-05	2.14285e-05	1.80331e-05	0.0996116	0.0382752	1.05695	1.87672e-06	1.04901e-06	6.88859e-07	9.01009e-07	6.34075e-07	8.72091e-07	0.133666	0.128338	0.185303	43.8351	1288.87	1342.38	1860.96	-46.1649	0.0000000E+000	0.0000000E+000	0.0000000E+000	46.1649	0.0000000E+000	0.0000000E+000	0.0000000E+000	-46.1649	0.0000000E+000	0.0000000E+000	0.0000000E+000	-43.8351	0.0000000E+000	0.0000000E+000	0.0000000E+000	43.8351	1.04151	46.1649	-4.29291e-06
12590.9	4.03493	4.57515	6.10022	-48.5902	1110.07	0.459696	-0.00317484	2.76285	1.55409	1	38	0.01476	0.00241959	0	-1.43692e-05	0.427676	0.289662	8.79641	2.79409e-05	1.83038e-05	2.14565e-05	2.60648e-05	1.97585e-05	3.07287e-05	0.133879	0.056116	1.21602	2.3951e-06	1.37508e-06	8.43422e-07	6.3896e-07	6.94934e-07	5.22283e-07	0.108429	0.122946	0.163929	48.5902	1554.09	1370.59	2072.13	-41.4098	0.0000000E+000	0.0000000E+000	0.0000000E+000	41.4098	0.0000000E+000	0.0000000E+000	0.0000000E+000	-41.4098	0.0000000E+000	0.0000000E+000	0.0000000E+000	-48.5902	0.0000000E+000	0.0000000E+000	0.0000000E+000	48.5902	0.881922	41.4098	3.25686e-06
10002.2	4.21557	5.62298	7.02773	-53.1409	1111.21	0.459675	-0.00273916	2.82981	1.81159	1	38	0.0146131	0.00207936	0	-1.50349e-05	0.466761	0.312627	8.81059	3.10233e-05	3.70931e-05	3.19926e-05	5.59072e-06	1.17493e-05	2.24814e-05	0.202807	0.0601889	1.42633	3.71113e-06	7.71223e-07	5.92624e-07	1.1609e-06	8.00518e-07	7.10032e-07	0.0853546	0.113851	0.142293	53.1409	1811.59	1358.16	2264.17	-36.8591	0.0000000E+000	0.0000000E+000	0.0000000E+000	36.8591	0.0000000E+000	0.0000000E+000	0.0000000E+000	-36.8591	0.0000000E+000	0.0000000E+000	0.0000000E+000	-53.1409	0.0000000E+000	0.0000000E+000	0.0000000E+000	53.1409	0.749704	36.8591	-6.65711e-07
7944	4.45278	6.89887	8.21107	-57.1603	1112.39	0.459542	-0.00341691	2.90404	2.05003	1	38	0.014549	0.00177188	0	-1.88581e-05	0.48402	0.322324	8.85916	4.04857e-05	1.99112e-05	2.41642e-05	1.89095e-05	2.89421e-05	2.86701e-05	0.290237	0.0620336	1.64323	4.98172e-06	6.57182e-07	6.42385e-07	5.86217e-07	3.01237e-07	2.2635e-07	0.0660438	0.102324	0.121787	57.1603	2050.03	1323.16	2439.95	-32.8397	0.0000000E+000	0.0000000E+000	0.0000000E+000	32.8397	0.0000000E+000	0.0000000E+000	0.0000000E+000	-32.8397	0.0000000E+000	0.0000000E+000	0.0000000E+000	-57.1603	0.0000000E+000	0.0000000E+000	0.0000000E+000	57.1603	0.645436	32.8397	-3.82322e-06
6307.74	4.76365	8.49794	9.74204	-60.7265	1113.44	0.459567	-0.0038582	2.96915	2.25923	1	38	0.0145504	0.00149356	0	-1.9149e-05	0.513514	0.233602	8.88659	4.02235e-05	3.75279e-05	1.56936e-05	1.99774e-05	3.10582e-05	2.33097e-05	0.415949	0.0849102	1.92258	5.70544e-06	1.71582e-06	6.7464e-07	5.43197e-07	8.32437e-07	7.8603e-07	0.0501926	0.0895393	0.102648	60.7265	2259.23	1266.44	2589.98	-29.2735	0.0000000E+000	0.0000000E+000	0.0000000E+000	29.2735	0.0000000E+000	0.0000000E+000	0.0000000E+000	-29.2735	0.0000000E+000	0.0000000E+000	0.0000000E+000	-60.7265	0.0000000E+000	0.0000000E+000	0.0000000E+000	60.7265	0.560565	29.2735	-2.90903e-07
5011.6	5.15581	10.4021	11.6098	-63.6347	1114.56	0.459526	-0.00435534	3.05296	2.45086	1	38	0.013841	0.00119218	0	-1.93476e-05	0.595808	0.343222	9.42089	3.58455e-05	3.28175e-05	1.49212e-05	3.09619e-05	3.04076e-05	3.85843e-05	0.591752	0.0784717	2.39812	6.71481e-06	1.46089e-06	6.73246e-07	1.05544e-06	4.67142e-07	4.40284e-07	0.0382517	0.0771748	0.0861345	63.6347	2450.86	1214.77	2735.4	-26.3653	0.0000000E+000	0.0000000E+000	0.0000000E+000	26.3653	0.0000000E+000	0.0000000E+000	0.0000000E+000	-26.3653	0.0000000E+000	0.0000000E+000	0.0000000E+000	-63.6347	0.0000000E+000	0.0000000E+000	0.0000000E+000	63.6347	0.49565	26.3653	-1.98528e-07
3981.28	5.67427	12.7744	13.9779	-66.0496	1115.67	0.459556	-0.0040742	3.12937	2.61368	1	38	0.0131948	0.000943973	0	-2.12255e-05	0.605405	0.220359	9.66564	4.42541e-05	2.6396e-05	2.41124e-05	2.71718e-05	2.26302e-05	2.76039e-05	0.67059	0.110262	3.07688	5.83438e-06	1.9976e-06	7.30278e-07	6.16214e-07	7.05278e-07	5.97675e-07	0.0290418	0.0653814	0.0715413	66.0496	2613.68	1160.97	2859.92	-23.9504	0.0000000E+000	0.0000000E+000	0.0000000E+000	23.9504	0.0000000E+000	0.0000000E+000	0.0000000E+000	-23.9504	0.0000000E+000	0.0000000E+000	0.0000000E+000	-66.0496	0.0000000E+000	0.0000000E+000	0.0000000E+000	66.0496	0.444191	23.9503	-1.87799e-06
3163.04	6.32973	15.6192	16.8531	-67.9396	1116.77	0.459544	-0.00353238	3.22148	2.76705	1	38	0.0126858	0.000752728	0	-2.19679e-05	0.573925	0.360395	10.2124	3.08043e-05	1.57901e-05	4.26894e-05	2.88877e-05	1.95298e-05	2.19755e-05	0.696717	0.132883	3.85121	4.34884e-06	2.45508e-06	5.03614e-07	1.25217e-06	3.9629e-07	5.66855e-07	0.0222858	0.0549923	0.0593364	67.9396	2767.05	1121.35	2985.63	-22.0604	0.0000000E+000	0.0000000E+000	0.0000000E+000	22.0604	0.0000000E+000	0.0000000E+000	0.0000000E+000	-22.0604	0.0000000E+000	0.0000000E+000	0.0000000E+000	-67.9396	0.0000000E+000	0.0000000E+000	0.0000000E+000	67.9396	0.405252	22.0604	-7.42341e-07
2512.41	7.11955	19.1001	20.3839	-69.5571	1118.1	0.459555	-0.00402579	3.3166	2.912	1	38	0.0139483	0.000684283	0	-2.43163e-05	0.525714	0.34039	9.23343	1.64537e-05	4.1992e-05	2.10356e-05	3.27073e-05	2.43661e-05	2.50636e-05	0.888082	0.132893	4.22622	4.85247e-06	3.19722e-06	4.4353e-07	1.26364e-06	5.07486e-07	6.03083e-07	0.0171348	0.0459687	0.0490584	69.5571	2912	1085.45	3107.73	-20.4429	0.0000000E+000	0.0000000E+000	0.0000000E+000	20.4429	0.0000000E+000	0.0000000E+000	0.0000000E+000	-20.4429	0.0000000E+000	0.0000000E+000	0.0000000E+000	-69.5571	0.0000000E+000	0.0000000E+000	0.0000000E+000	69.5571	0.372749	20.4429	-2.34845e-06
1995.64	8.17371	23.3197	24.7107	-70.6841	1119.2	0.45955	-0.00383774	3.41991	3.04573	1	38	0.0137082	0.000554747	0	-2.55368e-05	0.597919	0.401459	9.36446	3.05209e-05	2.99762e-05	3.8251e-05	2.29272e-05	1.1479e-05	4.14241e-05	0.961932	0.237917	5.19294	3.96268e-06	2.47544e-06	7.05546e-07	2.06811e-06	8.14917e-07	8.15637e-07	0.0133859	0.0381903	0.0404682	70.6841	3045.73	1067.55	3227.4	-19.3159	0.0000000E+000	0.0000000E+000	0.0000000E+000	19.3159	0.0000000E+000	0.0000000E+000	0.0000000E+000	-19.3159	0.0000000E+000	0.0000000E+000	0.0000000E+000	-70.6841	0.0000000E+000	0.0000000E+000	0.0000000E+000	70.6841	0.350506	19.3159	-1.22051e-06
1584.49	9.52421	28.4475	29.9995	-71.4895	1120.31	0.459552	-0.00391222	3.53091	3.17502	1	38	0.0135281	0.000450945	0	-2.70049e-05	0.446708	0.311347	9.5033	3.30134e-05	2.06272e-05	2.54723e-05	1.91955e-05	2.47079e-05	1.67348e-05	0.857836	0.197919	6.32566	2.994e-06	1.673e-06	8.35482e-07	1.32749e-06	2.01471e-07	7.20419e-07	0.0105828	0.0316094	0.0333339	71.4895	3175.02	1063	3348.24	-18.5105	0.0000000E+000	0.0000000E+000	0.0000000E+000	18.5105	0.0000000E+000	0.0000000E+000	0.0000000E+000	-18.5105	0.0000000E+000	0.0000000E+000	0.0000000E+000	-71.4895	0.0000000E+000	0.0000000E+000	0.0000000E+000	71.4895	0.3348	18.5105	-1.46808e-06
1258.79	11.2533	34.6243	36.4071	-71.9953	1121.67	0.459555	-0.000584318	3.65162	3.30275	1	39	0.0152054	0.00041765	0	-2.74163e-05	0.568269	0.210628	8.11585	5.66436e-05	2.78046e-05	2.07285e-05	3.67951e-05	2.86922e-05	1.56975e-05	1.34181	0.0870216	3.13254	5.08489e-06	2.24046e-06	2.72069e-07	5.06367e-07	2.41571e-07	2.01878e-07	0.00848997	0.0261221	0.0274672	71.9953	3302.75	1073.43	3472.81	-18.0047	0.0000000E+000	0.0000000E+000	0.0000000E+000	18.0047	0.0000000E+000	0.0000000E+000	0.0000000E+000	-18.0047	0.0000000E+000	0.0000000E+000	0.0000000E+000	-71.9953	0.0000000E+000	0.0000000E+000	0.0000000E+000	71.9953	0.325011	18.0047	-4.1136e-07
999.682	13.4331	42.1342	44.2238	-72.3168	1122.78	0.45957	-0.000633898	3.77854	3.4299	1	39	0.0144792	0.000327408	0	-2.77091e-05	0.561514	0.262038	8.51861	3.48562e-05	5.08793e-05	2.91039e-05	2.47093e-05	2.16742e-05	1.68739e-05	1.18033	0.105336	3.8362	3.17254e-06	2.03107e-06	1.35594e-07	7.58839e-07	2.56668e-07	2.20594e-07	0.00686856	0.0215439	0.0226123	72.3168	3429.9	1093.51	3600	-17.6832	0.0000000E+000	0.0000000E+000	0.0000000E+000	17.6832	0.0000000E+000	0.0000000E+000	0.0000000E+000	-17.6832	0.0000000E+000	0.0000000E+000	0.0000000E+000	-72.3168	0.0000000E+000	0.0000000E+000	0.0000000E+000	72.3168	0.318818	17.6832	-2.92848e-07
794.239	15.9078	51.0654	53.4858	-72.6973	1123.89	0.459534	-0.000346504	3.92412	3.577	1	39	0.0140153	0.000262038	0	-2.76377e-05	0.501552	0.283699	8.82586	2.01013e-05	2.4996e-05	2.20297e-05	2.36011e-05	2.80968e-05	3.60646e-05	1.0622	0.135916	4.97966	2.24227e-06	1.08258e-06	2.24839e-07	1.0766e-06	2.76037e-07	3.76329e-07	0.00556074	0.0178505	0.0186966	72.6973	3577	1114.3	3746.54	-17.3027	0.0000000E+000	0.0000000E+000	0.0000000E+000	17.3027	0.0000000E+000	0.0000000E+000	0.0000000E+000	-17.3027	0.0000000E+000	0.0000000E+000	0.0000000E+000	-72.6973	0.0000000E+000	0.0000000E+000	0.0000000E+000	72.6973	0.311517	17.3027	7.14444e-08
631.01	19.3505	61.8088	64.767	-72.6162	1124.99	0.459551	-0.000476037	4.08069	3.71643	1	39	0.0137095	0.000211674	0	-2.76493e-05	0.554484	0.280638	9.2185	3.05975e-05	3.25136e-05	8.97037e-06	3.70287e-05	2.09206e-05	3.26657e-05	1.00673	0.205033	6.28597	1.55161e-06	8.15261e-07	1.63762e-07	9.70215e-07	4.19051e-07	2.75357e-07	0.00461302	0.0147347	0.01544	72.6162	3716.43	1163.51	3894.31	-17.3838	0.0000000E+000	0.0000000E+000	0.0000000E+000	17.3838	0.0000000E+000	0.0000000E+000	0.0000000E+000	-17.3838	0.0000000E+000	0.0000000E+000	0.0000000E+000	-72.6162	0.0000000E+000	0.0000000E+000	0.0000000E+000	72.6162	0.313071	17.3838	-1.16011e-08
501.122	23.5664	74.7451	78.3722	-72.5005	1126.09	0.459595	-0.000499336	4.24907	3.86487	1	39	0.0135188	0.000172494	0	-2.78688e-05	0.53667	0.242079	9.24883	2.23723e-05	3.4173e-05	3.54029e-05	2.43774e-05	3.34148e-05	1.56934e-05	1.08844	0.143556	7.59754	1.19137e-06	6.8841e-07	3.86904e-07	1.1143e-06	2.94806e-07	2.49998e-07	0.0038368	0.0121691	0.0127596	72.5005	3864.87	1218.55	4052.42	-17.4995	0.0000000E+000	0.0000000E+000	0.0000000E+000	17.4995	0.0000000E+000	0.0000000E+000	0.0000000E+000	-17.4995	0.0000000E+000	0.0000000E+000	0.0000000E+000	-72.5005	0.0000000E+000	0.0000000E+000	0.0000000E+000	72.5005	0.31529	17.4995	-2.19478e-07
398.089	28.7226	90.3505	94.8061	-72.3645	1127.2	0.459559	-0.000571653	4.42496	4.01881	1	39	0.0134183	0.000141534	0	-2.80172e-05	0.436951	0.46453	9.56814	1.95334e-05	3.47194e-05	1.68563e-05	6.90592e-06	2.32625e-05	2.71975e-05	1.05832	0.492956	9.36562	1.10601e-06	6.6717e-07	1.55424e-07	5.33676e-07	2.90217e-07	3.07415e-07	0.00319559	0.0100521	0.0105478	72.3645	4018.81	1277.59	4217	-17.6355	0.0000000E+000	0.0000000E+000	0.0000000E+000	17.6355	0.0000000E+000	0.0000000E+000	0.0000000E+000	-17.6355	0.0000000E+000	0.0000000E+000	0.0000000E+000	-72.3645	0.0000000E+000	0.0000000E+000	0.0000000E+000	72.3645	0.317902	17.6355	-1.48459e-07
316.316	35.3123	108.854	114.439	-72.0269	1128.31	0.459591	-0.000566993	4.62226	4.18215	1	39	0.0133268	0.000116454	0	-2.80396e-05	0.588825	0.237528	9.29942	2.06776e-05	3.47486e-05	3.03329e-05	2.15086e-05	3.2752e-05	2.47317e-05	1.02213	0.237774	11.1507	8.96208e-07	4.21041e-07	2.47194e-07	3.35293e-07	3.44153e-07	1.98021e-07	0.00269638	0.00831189	0.00873831	72.0269	4182.15	1356.69	4396.7	-17.9731	0.0000000E+000	0.0000000E+000	0.0000000E+000	17.9731	0.0000000E+000	0.0000000E+000	0.0000000E+000	-17.9731	0.0000000E+000	0.0000000E+000	0.0000000E+000	-72.0269	0.0000000E+000	0.0000000E+000	0.0000000E+000	72.0269	0.3244	17.9731	-2.23295e-08
251.206	43.3069	130.736	137.722	-71.6723	1129.41	0.459549	-0.000380801	4.84614	4.36695	1	39	0.0132681	9.63398e-05	0	-2.81004e-05	0.478845	0.413564	9.68099	2.03604e-05	2.11779e-05	2.16462e-05	3.24656e-05	2.17968e-05	2.9994e-05	0.986606	0.49616	13.9826	6.11615e-07	4.31486e-07	2.69235e-07	2.47733e-07	2.21274e-07	2.53671e-07	0.00228324	0.00689268	0.00726101	71.6723	4366.95	1446.57	4600.31	-18.3277	0.0000000E+000	0.0000000E+000	0.0000000E+000	18.3277	0.0000000E+000	0.0000000E+000	0.0000000E+000	-18.3277	0.0000000E+000	0.0000000E+000	0.0000000E+000	-71.6723	0.0000000E+000	0.0000000E+000	0.0000000E+000	71.6723	0.331255	18.3277	-6.08751e-08
199.553	53.5706	157.908	166.748	-71.2604	1130.52	0.459563	-3.7305e-05	5.05076	4.52945	1	39	0.0132571	7.95041e-05	0	-2.82744e-05	0.546838	0.240693	9.15691	2.3011e-05	3.19304e-05	1.81778e-05	2.99882e-05	1.3094e-05	4.10289e-05	1.24644	0.462368	16.2975	5.89804e-07	4.33957e-07	1.98401e-07	3.42994e-07	2.98637e-07	3.49588e-07	0.00192667	0.00567917	0.00599708	71.2604	4529.45	1536.63	4783.01	-18.7396	0.0000000E+000	0.0000000E+000	0.0000000E+000	18.7396	0.0000000E+000	0.0000000E+000	0.0000000E+000	-18.7396	0.0000000E+000	0.0000000E+000	0.0000000E+000	-71.2604	0.0000000E+000	0.0000000E+000	0.0000000E+000	71.2604	0.339252	18.7396	-1.7401e-07
158.529	66.1228	189.714	200.907	-70.7845	1131.63	0.459567	-0.00013329	5.29191	4.71869	1	39	0.0132357	6.58797e-05	0	-2.84338e-05	0.62705	0.310481	9.52733	2.53849e-05	2.47827e-05	2.95975e-05	4.49874e-05	1.88007e-05	3.86307e-05	1.73074	0.492197	20.1395	6.77175e-07	4.87754e-07	2.81779e-07	3.50314e-07	2.63231e-07	3.76848e-07	0.00163818	0.00470013	0.00497743	70.7845	4718.69	1644.65	4997.09	-19.2155	0.0000000E+000	0.0000000E+000	0.0000000E+000	19.2155	0.0000000E+000	0.0000000E+000	0.0000000E+000	-19.2155	0.0000000E+000	0.0000000E+000	0.0000000E+000	-70.7845	0.0000000E+000	0.0000000E+000	0.0000000E+000	70.7845	0.34854	19.2155	-1.59353e-07
125.927	82.0068	226.665	241.044	-70.11	1132.99	0.459602	-0.000127521	5.57593	4.93054	1	40	0.0135366	5.61581e-05	0	-2.84518e-05	0.704107	0.501565	14.7867	2.64455e-05	1.66828e-05	4.90153e-05	5.29663e-05	3.98695e-05	2.68018e-05	1.0512	0.166889	4.70538	4.37208e-07	2.56026e-07	7.11309e-08	2.68609e-07	4.11223e-08	6.62134e-08	0.00141142	0.00390115	0.00414862	70.11	4930.54	1783.85	5243.31	-19.89	0.0000000E+000	0.0000000E+000	0.0000000E+000	19.89	0.0000000E+000	0.0000000E+000	0.0000000E+000	-19.89	0.0000000E+000	0.0000000E+000	0.0000000E+000	-70.11	0.0000000E+000	0.0000000E+000	0.0000000E+000	70.11	0.361797	19.89	-1.7962e-08
99.9682	101.835	271.013	289.514	-69.4059	1134.07	0.459585	-0.000111968	5.87446	5.14764	1	40	0.0134115	4.63241e-05	0	-2.8522e-05	0.632038	0.307635	14.6497	1.64665e-05	3.97771e-05	2.03663e-05	1.7871e-05	4.12976e-05	4.69724e-05	0.910823	0.159754	5.58526	3.32674e-07	1.66907e-07	3.609e-08	1.73801e-07	6.35442e-08	5.15268e-08	0.00121495	0.00323333	0.00345406	69.4059	5147.64	1934.27	5499.06	-20.5941	0.0000000E+000	0.0000000E+000	0.0000000E+000	20.5941	0.0000000E+000	0.0000000E+000	0.0000000E+000	-20.5941	0.0000000E+000	0.0000000E+000	0.0000000E+000	-69.4059	0.0000000E+000	0.0000000E+000	0.0000000E+000	69.4059	0.375758	20.5941	-7.0219e-08
79.4157	126.768	324.313	348.208	-68.6504	1135.14	0.459555	-7.9967e-05	6.17944	5.36043	1	40	0.0133692	3.83942e-05	0	-2.85861e-05	0.741647	0.595957	15.1475	3.09489e-05	3.8043e-05	3.33468e-05	3.50661e-05	4.48611e-05	4.78015e-05	1.00034	0.255969	6.96803	3.06773e-07	1.68534e-07	3.75754e-08	1.12125e-07	6.34499e-08	7.02005e-08	0.00104552	0.00267477	0.00287184	68.6504	5360.43	2095.29	5755.39	-21.3496	0.0000000E+000	0.0000000E+000	0.0000000E+000	21.3496	0.0000000E+000	0.0000000E+000	0.0000000E+000	-21.3496	0.0000000E+000	0.0000000E+000	0.0000000E+000	-68.6504	0.0000000E+000	0.0000000E+000	0.0000000E+000	68.6504	0.390882	21.3496	-6.41668e-08
63.0823	158.916	384.266	415.83	-67.5321	1136.22	0.459548	-7.58508e-05	6.5657	5.60677	1	40	0.013277	3.1929e-05	0	-2.86214e-05	0.756879	0.368407	14.7938	4.96595e-05	2.46023e-05	3.23535e-05	4.9166e-05	3.93092e-05	3.09408e-05	0.904299	0.181267	8.11302	2.09108e-07	1.34138e-07	3.71142e-08	1.04057e-07	6.94037e-08	3.87628e-08	0.000919043	0.00222229	0.00240483	67.5321	5606.77	2318.72	6067.32	-22.4679	0.0000000E+000	0.0000000E+000	0.0000000E+000	22.4679	0.0000000E+000	0.0000000E+000	0.0000000E+000	-22.4679	0.0000000E+000	0.0000000E+000	0.0000000E+000	-67.5321	0.0000000E+000	0.0000000E+000	0.0000000E+000	67.5321	0.413557	22.4679	-3.52963e-08
50.1122	199.229	454.266	496.034	-66.319	1137.29	0.459558	-9.56885e-05	6.99143	5.86358	1	40	0.0132284	2.66684e-05	0	-2.8638e-05	0.800432	0.440578	14.848	3.07524e-05	4.01308e-05	6.23166e-05	4.33104e-05	3.25274e-05	2.73361e-05	1.02677	0.295576	9.63323	2.03766e-07	1.161e-07	7.2961e-08	1.02791e-07	1.77974e-08	4.19495e-08	0.000809711	0.00184623	0.00201599	66.319	5863.59	2571.62	6402.72	-23.681	0.0000000E+000	0.0000000E+000	0.0000000E+000	23.681	0.0000000E+000	0.0000000E+000	0.0000000E+000	-23.681	0.0000000E+000	0.0000000E+000	0.0000000E+000	-66.319	0.0000000E+000	0.0000000E+000	0.0000000E+000	66.319	0.438574	23.681	-1.65813e-08
39.8089	247.929	536.774	591.266	-65.2084	1138.35	0.459602	-0.000140598	7.44815	6.13855	1	40	0.0132164	2.23527e-05	0	-2.87114e-05	0.689206	0.422983	14.6366	4.07234e-05	3.09561e-05	3.00814e-05	4.36154e-05	3.69266e-05	2.38854e-05	0.988859	0.339244	11.4383	1.61868e-07	9.33628e-08	2.63426e-08	8.00691e-08	4.61737e-08	4.83266e-08	0.000709188	0.00153542	0.00169129	65.2084	6138.55	2835.31	6761.72	-24.7916	0.0000000E+000	0.0000000E+000	0.0000000E+000	24.7916	0.0000000E+000	0.0000000E+000	0.0000000E+000	-24.7916	0.0000000E+000	0.0000000E+000	0.0000000E+000	-65.2084	0.0000000E+000	0.0000000E+000	0.0000000E+000	65.2084	0.461886	24.7916	-7.33645e-08
31.6296	315.53	627.155	702.056	-63.2924	1139.4	0.459604	-0.000147061	8.02328	6.40263	1	40	0.0131651	1.87522e-05	0	-2.87732e-05	0.913453	0.44333	15.4132	5.48993e-05	4.50506e-05	4.43469e-05	4.46817e-05	3.35813e-05	5.36951e-05	0.988031	0.399021	14.4106	1.13342e-07	6.3685e-08	6.725e-08	7.40688e-08	2.52922e-08	6.21996e-08	0.000640173	0.00127242	0.00142439	63.2924	6402.63	3221.25	7167.29	-26.7076	0.0000000E+000	0.0000000E+000	0.0000000E+000	26.7076	0.0000000E+000	0.0000000E+000	0.0000000E+000	-26.7076	0.0000000E+000	0.0000000E+000	0.0000000E+000	-63.2924	0.0000000E+000	0.0000000E+000	0.0000000E+000	63.2924	0.503113	26.7076	-6.18446e-08
25.1206	394.097	735.226	834.188	-61.8077	1140.46	0.459555	-7.66521e-05	8.61726	6.69395	1	40	0.0131951	1.58179e-05	0	-2.88315e-05	0.696457	0.448877	15.203	4.03472e-05	2.16801e-05	2.81103e-05	4.58271e-05	4.59469e-05	2.05582e-05	1.05888	0.424949	16.5992	1.06544e-07	6.49718e-08	2.6704e-08	5.43131e-08	6.31633e-08	4.40141e-08	0.000566337	0.00105656	0.00119877	61.8077	6693.95	3588.11	7594.97	-28.1923	0.0000000E+000	0.0000000E+000	0.0000000E+000	28.1923	0.0000000E+000	0.0000000E+000	0.0000000E+000	-28.1923	0.0000000E+000	0.0000000E+000	0.0000000E+000	-61.8077	0.0000000E+000	0.0000000E+000	0.0000000E+000	61.8077	0.536022	28.1923	-5.83094e-08
19.9553	500.163	850.443	986.619	-59.5393	1141.53	0.459575	-9.18145e-05	9.37812	6.96799	1	40	0.013187	1.33659e-05	0	-2.88433e-05	0.862953	0.504709	15.258	6.42043e-05	2.74065e-05	4.59382e-05	4.38027e-05	2.95259e-05	3.51083e-05	1.53072	0.565308	19.6976	1.63617e-07	4.3194e-08	6.5905e-08	5.91442e-08	2.81896e-08	4.32603e-08	0.000513822	0.000873668	0.00101356	59.5393	6967.99	4098.02	8083.73	-30.4607	0.0000000E+000	0.0000000E+000	0.0000000E+000	30.4607	0.0000000E+000	0.0000000E+000	0.0000000E+000	-30.4607	0.0000000E+000	0.0000000E+000	0.0000000E+000	-59.5393	0.0000000E+000	0.0000000E+000	0.0000000E+000	59.5393	0.588121	30.4607	-1.17402e-08
15.8469	625.358	970.326	1154.39	-57.1989	1142.57	0.459556	-7.72669e-05	10.3504	7.31295	1	40	0.013145	1.1387e-05	0	-2.89243e-05	0.870611	0.618676	15.3936	5.39482e-05	4.17193e-05	4.70227e-05	2.92908e-05	3.51722e-05	4.94658e-05	1.32181	0.841912	22.9952	7.22186e-08	6.99925e-08	5.04548e-08	4.30713e-08	5.168e-08	4.12441e-08	0.000469275	0.000728142	0.000866262	57.1989	7312.95	4713.07	8700.13	-32.8011	0.0000000E+000	0.0000000E+000	0.0000000E+000	32.8011	0.0000000E+000	0.0000000E+000	0.0000000E+000	-32.8011	0.0000000E+000	0.0000000E+000	0.0000000E+000	-57.1989	0.0000000E+000	0.0000000E+000	0.0000000E+000	57.1989	0.644482	32.8011	-8.09922e-08
12.5873	779.908	1101.43	1349.59	-54.6981	1144.04	0.459566	-6.81076e-05	11.4797	7.64607	1	41	0.0131821	9.76748e-06	0	-2.88999e-05	0.728986	0.397351	13.3797	4.03975e-05	3.81444e-05	2.73777e-05	3.08415e-05	3.45796e-05	5.38717e-05	0.90885	0.100546	3.71206	7.55129e-08	3.25345e-08	1.66067e-08	2.47149e-08	5.74866e-09	1.16127e-08	0.000428192	0.000604715	0.000740965	54.6981	7646.07	5414.09	9368.82	-35.3019	0.0000000E+000	0.0000000E+000	0.0000000E+000	35.3019	0.0000000E+000	0.0000000E+000	0.0000000E+000	-35.3019	0.0000000E+000	0.0000000E+000	0.0000000E+000	-54.6981	0.0000000E+000	0.0000000E+000	0.0000000E+000	54.6981	0.708089	35.3019	2.43523e-08
9.99682	970.936	1232.13	1568.71	-51.7613	1145.1	0.459556	-8.18316e-05	12.9212	7.97128	1	41	0.0132079	8.41961e-06	0	-2.89613e-05	1.06974	0.56604	19.2147	2.25422e-05	5.82809e-05	0.000100204	3.88246e-05	3.68994e-05	4.28105e-05	0.896043	0.15943	5.90289	5.80288e-08	3.4238e-08	1.56662e-08	2.55429e-08	1.059e-08	6.63635e-09	0.000394552	0.000500691	0.000637466	51.7613	7971.28	6281.5	10148.8	-38.2387	0.0000000E+000	0.0000000E+000	0.0000000E+000	38.2387	0.0000000E+000	0.0000000E+000	0.0000000E+000	-38.2387	0.0000000E+000	0.0000000E+000	0.0000000E+000	-51.7613	0.0000000E+000	0.0000000E+000	0.0000000E+000	51.7613	0.788016	38.2387	-6.14281e-08
7.93956	1198.67	1342.43	1799.71	-48.2379	1146.31	0.459579	-8.29694e-05	14.9324	8.3083	1	41	0.0131786	7.32265e-06	0	-2.89157e-05	0.746134	0.295883	13.6556	4.97011e-05	1.45857e-05	3.28495e-05	4.50567e-05	2.3459e-05	4.10352e-05	0.867234	0.12121	4.97374	5.0441e-08	2.78709e-08	5.71439e-09	2.09919e-08	8.81013e-09	9.83415e-09	0.000370082	0.000414466	0.000555646	48.2379	8308.3	7418.58	11138.4	-41.7621	0.0000000E+000	0.0000000E+000	0.0000000E+000	41.7621	0.0000000E+000	0.0000000E+000	0.0000000E+000	-41.7621	0.0000000E+000	0.0000000E+000	0.0000000E+000	-48.2379	0.0000000E+000	0.0000000E+000	0.0000000E+000	48.2379	0.892912	41.7621	4.56952e-08
6.31058	1450.53	1441.82	2045.21	-44.8275	1147.69	0.459543	-7.124e-05	17.492	8.69334	1	41	0.0131911	6.44978e-06	0	-2.90188e-05	0.689556	0.519044	13.341	3.42269e-05	1.95033e-05	4.66809e-05	2.91061e-05	4.04884e-05	2.2265e-05	0.823121	0.234237	5.49588	4.13383e-08	2.62209e-08	1.12006e-08	1.16335e-08	9.70742e-09	4.06652e-09	0.000346778	0.000344696	0.000488948	44.8275	8693.34	8745.85	12331.4	-45.1725	0.0000000E+000	0.0000000E+000	0.0000000E+000	45.1725	0.0000000E+000	0.0000000E+000	0.0000000E+000	-45.1725	0.0000000E+000	0.0000000E+000	0.0000000E+000	-44.8275	0.0000000E+000	0.0000000E+000	0.0000000E+000	44.8275	1.00604	45.1725	-1.03158e-07
5.01283	1732.16	1499.69	2291.17	-40.8857	1149.31	0.459613	-8.55647e-05	21.1707	9.07036	1	41	0.0131725	5.74927e-06	0	-2.90343e-05	0.615195	0.154199	10.6781	1.83365e-05	3.69068e-05	2.58758e-05	4.17531e-05	1.44427e-05	3.99177e-05	0.841813	0.0825744	5.10292	4.09368e-08	2.00006e-08	6.54886e-09	9.24746e-09	1.92653e-09	1.02055e-08	0.00032997	0.000285685	0.000436459	40.8857	9070.36	10476.4	13857.3	-49.1143	0.0000000E+000	0.0000000E+000	0.0000000E+000	49.1143	0.0000000E+000	0.0000000E+000	0.0000000E+000	-49.1143	0.0000000E+000	0.0000000E+000	0.0000000E+000	-40.8857	0.0000000E+000	0.0000000E+000	0.0000000E+000	40.8857	1.15501	49.1143	-1.55123e-08
3.9819	2027.33	1530.58	2540.23	-37.0518	1151.23	0.459567	-7.80136e-05	26.114	9.4807	1	41	0.0131886	5.19191e-06	0	-2.91319e-05	0.511739	0.282519	9.13571	3.02718e-05	1.33893e-05	2.11985e-05	2.35143e-05	2.37934e-05	2.68732e-05	0.865178	0.181666	4.93461	3.86914e-08	1.70976e-08	3.91594e-09	1.20645e-08	3.46878e-09	6.43872e-09	0.000314181	0.000237198	0.000393666	37.0518	9480.7	12557.7	15734.6	-52.9482	0.0000000E+000	0.0000000E+000	0.0000000E+000	52.9482	0.0000000E+000	0.0000000E+000	0.0000000E+000	-52.9482	0.0000000E+000	0.0000000E+000	0.0000000E+000	-37.0518	0.0000000E+000	0.0000000E+000	0.0000000E+000	37.0518	1.32455	52.9482	-9.7555e-08
3.16296	2322.88	1516.32	2773.98	-33.1355	1153.54	0.459562	-7.8786e-05	33.1846	9.91538	1	41	0.0131861	4.75349e-06	0	-2.91484e-05	0.41856	0.276196	8.49004	2.26735e-05	1.95887e-05	1.48999e-05	2.62473e-05	2.43887e-05	1.81683e-05	0.842803	0.164099	4.91928	3.456e-08	1.62271e-08	2.06168e-09	1.01717e-08	3.16975e-09	3.58662e-09	0.000301869	0.000197053	0.000360492	33.1355	9915.38	15189.6	18139.4	-56.8645	0.0000000E+000	0.0000000E+000	0.0000000E+000	56.8645	0.0000000E+000	0.0000000E+000	0.0000000E+000	-56.8645	0.0000000E+000	0.0000000E+000	0.0000000E+000	-33.1355	0.0000000E+000	0.0000000E+000	0.0000000E+000	33.1355	1.53192	56.8645	-1.64812e-08
2.51085	2613.84	1452.87	2990.48	-29.067	1156.34	0.459551	-7.81477e-05	43.6287	10.2978	1	41	0.0131814	4.40777e-06	0	-2.9197e-05	0.3906	0.19181	7.17487	1.98798e-05	2.4141e-05	2.21975e-05	2.12329e-05	1.39238e-05	1.75392e-05	0.798737	0.108675	4.62558	3.09019e-08	1.40649e-08	4.49245e-09	6.34781e-09	2.05915e-09	3.86204e-09	0.000292278	0.00016246	0.000334394	29.067	10297.8	18526.6	21196.2	-60.933	0.0000000E+000	0.0000000E+000	0.0000000E+000	60.933	0.0000000E+000	0.0000000E+000	0.0000000E+000	-60.933	0.0000000E+000	0.0000000E+000	0.0000000E+000	-29.067	0.0000000E+000	0.0000000E+000	0.0000000E+000	29.067	1.79908	60.933	-4.8659e-08
1.99553	2870.79	1370.1	3180.98	-25.5131	1159.77	0.45957	-8.04113e-05	58.2115	10.7992	1	41	0.0131767	4.14235e-06	0	-2.93489e-05	0.424908	0.186001	6.31914	2.34885e-05	1.81255e-05	1.64281e-05	3.50502e-05	1.78756e-05	1.55068e-05	0.75773	0.114039	4.48169	2.6519e-08	1.44954e-08	3.42747e-09	4.54702e-09	3.43184e-09	2.67623e-09	0.000283714	0.000135404	0.000314369	25.5131	10799.2	22627.8	25072.7	-64.4869	0.0000000E+000	0.0000000E+000	0.0000000E+000	64.4869	0.0000000E+000	0.0000000E+000	0.0000000E+000	-64.4869	0.0000000E+000	0.0000000E+000	0.0000000E+000	-25.5131	0.0000000E+000	0.0000000E+000	0.0000000E+000	25.5131	2.09531	64.4869	-1.51865e-07
1.58533	3101.43	1263.47	3348.92	-22.1652	1163.98	0.459565	-7.66885e-05	79.4575	11.3099	1	41	0.0131768	3.93466e-06	0	-2.93345e-05	0.361592	0.167417	5.63772	1.86372e-05	1.38817e-05	1.76368e-05	2.75056e-05	7.71413e-06	1.7602e-05	0.837957	0.0982422	4.40595	2.83909e-08	1.31198e-08	3.20295e-09	8.75274e-09	1.7259e-09	3.3332e-09	0.000276537	0.000112657	0.000298604	22.1652	11309.9	27762.3	29977.6	-67.8348	0.0000000E+000	0.0000000E+000	0.0000000E+000	67.8348	0.0000000E+000	0.0000000E+000	0.0000000E+000	-67.8348	0.0000000E+000	0.0000000E+000	0.0000000E+000	-22.1652	0.0000000E+000	0.0000000E+000	0.0000000E+000	22.1652	2.45469	67.8348	1.43361e-08
1.25825	3297.45	1149.32	3492.01	-19.2159	1170.83	0.459581	-7.73687e-05	110.055	11.9218	1	42	0.0131775	3.7736e-06	0	-2.93886e-05	0.324977	0.151669	5.3367	1.51415e-05	1.3356e-05	1.92833e-05	1.98772e-05	1.47069e-05	1.45518e-05	0.744307	0.0359514	1.36802	2.46942e-08	1.25024e-08	9.33247e-10	4.58088e-09	5.85651e-10	3.24751e-10	0.000270413	9.42519e-05	0.000286368	19.2159	11921.8	34204.2	36222.3	-70.7841	0.0000000E+000	0.0000000E+000	0.0000000E+000	70.7841	0.0000000E+000	0.0000000E+000	0.0000000E+000	-70.7841	0.0000000E+000	0.0000000E+000	0.0000000E+000	-19.2159	0.0000000E+000	0.0000000E+000	0.0000000E+000	19.2159	2.86905	70.7841	-5.40718e-08
1.00006	3462.5	1026.37	3611.42	-16.5112	1177.29	0.459588	-7.66057e-05	155.056	12.524	1	42	0.0131691	3.64651e-06	0	-2.96801e-05	0.193046	0.121385	4.59384	1.0848e-05	9.50296e-06	8.8196e-06	1.35683e-05	6.99289e-06	8.0723e-06	0.735116	0.0608162	1.37576	2.38928e-08	1.13844e-08	7.44808e-10	4.08475e-09	4.40169e-10	5.4234e-10	0.000265481	7.86953e-05	0.000276899	16.5112	12524	42250	44067.1	-73.4888	0.0000000E+000	0.0000000E+000	0.0000000E+000	73.4888	0.0000000E+000	0.0000000E+000	0.0000000E+000	-73.4888	0.0000000E+000	0.0000000E+000	0.0000000E+000	-16.5112	0.0000000E+000	0.0000000E+000	0.0000000E+000	16.5112	3.37353	73.4888	-2.91499e-07
0.79456	3602.04	904.742	3713.92	-14.0996	1185.31	0.459577	-7.73173e-05	221.396	13.1387	1	42	0.0131704	3.54621e-06	0	-2.98756e-05	0.210326	0.130764	3.99824	1.12811e-05	9.65528e-06	1.13064e-05	1.14825e-05	8.43494e-06	1.10559e-05	0.723142	0.0460427	1.36519	2.31132e-08	1.06743e-08	2.61474e-10	2.93796e-09	4.83601e-10	6.00292e-10	0.000261145	6.55932e-05	0.000269257	14.0996	13138.7	52308.9	53933.7	-75.9004	0.0000000E+000	0.0000000E+000	0.0000000E+000	75.9004	0.0000000E+000	0.0000000E+000	0.0000000E+000	-75.9004	0.0000000E+000	0.0000000E+000	0.0000000E+000	-14.0996	0.0000000E+000	0.0000000E+000	0.0000000E+000	14.0996	3.98129	75.9004	-1.95531e-07
0.630906	3718.83	791.712	3802.18	-12.0184	1195.3	0.459574	-7.87544e-05	318.631	13.8152	1	42	0.0131776	3.46581e-06	0	-2.97455e-05	0.191144	0.113052	3.55384	5.01204e-06	1.09808e-05	1.06147e-05	1.03806e-05	1.04918e-05	7.22272e-06	0.727965	0.0353151	1.49506	2.24028e-08	1.10319e-08	5.4026e-10	3.4278e-09	3.8745e-10	4.97238e-10	0.000257242	5.4765e-05	0.000263007	12.0184	13815.2	64893.1	66347.4	-77.9816	0.0000000E+000	0.0000000E+000	0.0000000E+000	77.9816	0.0000000E+000	0.0000000E+000	0.0000000E+000	-77.9816	0.0000000E+000	0.0000000E+000	0.0000000E+000	-12.0184	0.0000000E+000	0.0000000E+000	0.0000000E+000	12.0184	4.69721	77.9816	1.30191e-07
0.500946	3815.27	691.291	3877.39	-10.27	1207.81	0.459566	-8.06736e-05	459.588	14.6087	1	42	0.0131855	3.40061e-06	0	-3.03061e-05	0.182432	0.130727	3.21496	7.05086e-06	1.18519e-05	6.09497e-06	1.32367e-05	8.36256e-06	6.46497e-06	0.734053	0.0346809	1.47796	2.23116e-08	1.06463e-08	5.2374e-10	3.27192e-09	7.80835e-10	3.65621e-10	0.000253773	4.59814e-05	0.000257906	10.27	14608.7	80626.1	81938.9	-79.73	0.0000000E+000	0.0000000E+000	0.0000000E+000	79.73	0.0000000E+000	0.0000000E+000	0.0000000E+000	-79.73	0.0000000E+000	0.0000000E+000	0.0000000E+000	-10.27	0.0000000E+000	0.0000000E+000	0.0000000E+000	10.27	5.51905	79.73	-5.60616e-07
0.398211	3889.4	599.574	3935.34	-8.7635	1223.46	0.459574	-7.93025e-05	666.598	15.4734	1	42	0.0131731	3.3474e-06	0	-3.10048e-05	0.197428	0.0715254	2.78281	8.65661e-06	1.14212e-05	9.07151e-06	1.22614e-05	9.76786e-06	7.39053e-06	0.732091	0.0259544	1.46871	2.22162e-08	9.76617e-09	6.09095e-10	3.2477e-09	4.84289e-10	4.35939e-10	0.000251141	3.87149e-05	0.000254108	8.7635	15473.4	100375	101560	-81.2365	0.0000000E+000	0.0000000E+000	0.0000000E+000	81.2365	0.0000000E+000	0.0000000E+000	0.0000000E+000	-81.2365	0.0000000E+000	0.0000000E+000	0.0000000E+000	-8.7635	0.0000000E+000	0.0000000E+000	0.0000000E+000	8.7635	6.48694	81.2365	-6.98734e-07
0.316193	3954.68	515.925	3988.19	-7.43279	1243.09	0.459574	-8.01018e-05	975.621	16.3268	1	42	0.0131682	3.30181e-06	0	-3.11427e-05	0.177212	0.0636037	2.5402	8.54162e-06	1.37582e-05	5.62542e-06	9.12747e-06	8.73176e-06	8.16041e-06	0.748141	0.0350573	1.48694	2.23396e-08	1.01218e-08	2.76411e-10	2.90779e-09	2.308e-10	2.27986e-10	0.000248633	3.24365e-05	0.00025074	7.43279	16326.8	125149	126209	-82.5672	0.0000000E+000	0.0000000E+000	0.0000000E+000	82.5672	0.0000000E+000	0.0000000E+000	0.0000000E+000	-82.5672	0.0000000E+000	0.0000000E+000	0.0000000E+000	-7.43279	0.0000000E+000	0.0000000E+000	0.0000000E+000	7.43279	7.66522	82.5672	-1.37907e-07
0.251222	4010.43	442.033	4034.72	-6.2898	1267.71	0.459579	-8.25363e-05	1433.21	17.2025	1	42	0.0131702	3.26423e-06	0	-3.11023e-05	0.14318	0.0720232	2.22627	4.84581e-06	1.2822e-05	6.3872e-06	7.59413e-06	4.8927e-06	4.22041e-06	0.764098	0.0553637	1.48009	2.26937e-08	9.9293e-09	3.24626e-10	2.84165e-09	2.31858e-10	2.78719e-10	0.000246357	2.71537e-05	0.000247849	6.2898	17202.5	156073	157018	-83.7102	0.0000000E+000	0.0000000E+000	0.0000000E+000	83.7102	0.0000000E+000	0.0000000E+000	0.0000000E+000	-83.7102	0.0000000E+000	0.0000000E+000	0.0000000E+000	-6.2898	0.0000000E+000	0.0000000E+000	0.0000000E+000	6.2898	9.0727	83.7102	4.03813e-08
0.199573	4058.76	377.97	4076.32	-5.32029	1298.61	0.459574	-8.25027e-05	2109.89	18.14	1	42	0.0131718	3.23129e-06	0	-3.16663e-05	0.132109	0.0435787	1.96616	3.08918e-06	7.94718e-06	8.46881e-06	9.74098e-06	4.63518e-06	3.93104e-06	0.771635	0.0484881	1.49306	2.27565e-08	9.8159e-09	2.03251e-10	2.69184e-09	2.95742e-10	2.67935e-10	0.000244262	2.27468e-05	0.000245319	5.32029	18140	194793	195636	-84.6797	0.0000000E+000	0.0000000E+000	0.0000000E+000	84.6797	0.0000000E+000	0.0000000E+000	0.0000000E+000	-84.6797	0.0000000E+000	0.0000000E+000	0.0000000E+000	-5.32029	0.0000000E+000	0.0000000E+000	0.0000000E+000	5.32029	10.7383	84.6797	-5.63923e-07
0.158419	4097.95	321.504	4110.54	-4.48594	1337.47	0.459577	-8.48309e-05	3124.83	19.1162	1	42	0.0131717	3.20436e-06	0	-3.31792e-05	0.129366	0.0609001	1.79441	3.1804e-06	9.72431e-06	5.03866e-06	1.04455e-05	4.16872e-06	4.20615e-06	0.782311	0.0162164	1.46063	2.28579e-08	9.93524e-09	2.14333e-10	2.64955e-09	3.17072e-10	1.27555e-10	0.000242532	1.90278e-05	0.000243277	4.48594	19116.2	243659	244407	-85.5141	0.0000000E+000	0.0000000E+000	0.0000000E+000	85.5141	0.0000000E+000	0.0000000E+000	0.0000000E+000	-85.5141	0.0000000E+000	0.0000000E+000	0.0000000E+000	-4.48594	0.0000000E+000	0.0000000E+000	0.0000000E+000	4.48594	12.7462	85.5141	-1.51296e-06
0.125939	4133.58	270.578	4142.43	-3.74515	1386.27	0.45957	-8.30904e-05	4670.56	19.9271	1	42	0.0131728	3.17997e-06	0	-3.52628e-05	0.144016	0.0696422	1.56063	3.02272e-06	8.4743e-06	3.71068e-06	1.46959e-05	3.10293e-06	3.59074e-06	0.773609	0.0353883	1.49193	2.26484e-08	9.28193e-09	1.78061e-10	2.40515e-09	3.35345e-10	2.46909e-10	0.000240889	1.57682e-05	0.000241404	3.74515	19927.1	304423	305075	-86.2549	0.0000000E+000	0.0000000E+000	0.0000000E+000	86.2549	0.0000000E+000	0.0000000E+000	0.0000000E+000	-86.2549	0.0000000E+000	0.0000000E+000	0.0000000E+000	-3.74515	0.0000000E+000	0.0000000E+000	0.0000000E+000	3.74515	15.2769	86.2549	-2.08361e-06
0.0999518	4164.12	229.031	4170.42	-3.14816	1447.67	0.459578	-8.39613e-05	6952.4	20.9684	1	42	0.0131673	3.15731e-06	0	-3.7187e-05	0.118992	0.0632156	1.46641	3.03337e-06	7.31657e-06	3.30144e-06	1.18411e-05	2.59708e-06	3.73447e-06	0.78883	0.038168	1.41986	2.28482e-08	9.59909e-09	1.42704e-10	2.43391e-09	3.43338e-10	1.34572e-10	0.000239422	1.31685e-05	0.000239784	3.14816	20968.4	381236	381812	-86.8518	0.0000000E+000	0.0000000E+000	0.0000000E+000	86.8518	0.0000000E+000	0.0000000E+000	0.0000000E+000	-86.8518	0.0000000E+000	0.0000000E+000	0.0000000E+000	-3.14816	0.0000000E+000	0.0000000E+000	0.0000000E+000	3.14816	18.1815	86.8518	-1.9242e-06