File: Python/Data/RDE/240219-CV-EIS-Fe2Fe3_5mM-HCl1M-0RPM-Ag_AgCl_BLF8-GC-RDE_01_CV_C15.mpt
EC-Lab ASCII FILE
Nb header lines : 60

Cyclic Voltammetry

Run on channel : 15 (SN 19485)
User :
Electrode connection : standard
Potential control : Ewe
Ewe ctrl range : min = -1.00 V, max = 1.00 V
Ewe,I filtering : <None>
Safety Limits :
	Do not start on E overload
Channel : Floating
Acquisition started on : 02/19/2024 14:54:22.739
Loaded Setting File :  NONE
Saved on :
	File : 240219-CV-EIS-Fe2Fe3_5mM-HCl1M-0RPM-Ag_AgCl_BLF8-GC-RDE_01_CV_C15.mpr
	Directory : C:\Data\mathias\RDE-RPM-variation\
	Host : 192.168.0.1
Device : VMP-300 (SN 0826)
Address : USB
EC-Lab for windows v11.52 (software)
Internet server v11.52 (firmware)
Command interpretor v11.52 (firmware)
Electrode material :
Initial state :
Electrolyte :
Comments :
Cable : special
Electrode surface area : 0.001 cm²
Characteristic mass : 0.001 g
Equivalent Weight : 0.000 g/eq.
Density : 0.000 g/cm3
Volume (V) : 0.001 cm³
Record EIS quality indicators
Cycle Definition : Charge/Discharge alternance
Ei (V)              0.000
vs.                 Eoc
dE/dt               20.000
dE/dt unit          mV/s
E1 (V)              1.000
vs.                 Ref
Step percent        50
N                   10
E range min (V)     -1.000
E range max (V)     1.000
I Range             Auto
I Range min         Unset
I Range max         Unset
I Range init        Unset
Bandwidth           8
E2 (V)              0.000
vs.                 Ref
nc cycles           2
Reverse Scan        1
Ef (V)              0.000
vs.                 Eoc

mode	ox/red	error	control changes	counter inc.	time/s	control/V	Ewe/V	<I>/mA	cycle number	(Q-Qo)/C	I Range	step time/s	P/W
2	1	0	0	0	0.000000000000000E+000	0.469087	0.468954	0.000544034	1	0.0000000E+000	43	0.000000000000000E+000	2.55127e-07
2	1	0	1	0	0.5186	0.479457	0.479713	0.00293948	1	9.15006e-07	42	0.5048	1.41011e-06
2	1	0	1	0	1.0183	0.489452	0.489667	0.00516142	1	2.94086e-06	42	1.0045	2.52737e-06
2	1	0	1	0	1.5181	0.499447	0.499633	0.00741717	1	6.08236e-06	42	1.5043	3.70586e-06
2	1	0	1	0	2.0179	0.509442	0.509251	0.00976498	1	1.03728e-05	42	2.0041	4.97282e-06
2	1	0	1	0	2.5476	0.520037	0.520228	0.0123053	1	1.62396e-05	41	2.5338	6.40155e-06
2	1	0	1	0	3.0474	0.530033	0.530425	0.0149795	1	2.31062e-05	41	3.0336	7.9455e-06
2	1	0	1	0	3.5471	0.540028	0.540294	0.0178619	1	3.13585e-05	41	3.5333	9.6507e-06
2	1	0	1	0	4.0469	0.550023	0.550165	0.0209658	1	4.11086e-05	41	4.0331	1.15346e-05
2	1	0	1	0	4.5467	0.560018	0.560165	0.0242888	1	5.24683e-05	41	4.5329	1.36057e-05
2	1	0	1	0	5.0464	0.570014	0.569963	0.0278514	1	6.55479e-05	41	5.0326	1.58743e-05
2	1	0	1	0	5.5462	0.580009	0.580243	0.0315947	1	8.04577e-05	41	5.5324	1.83326e-05
2	1	0	1	0	6.0459	0.590004	0.590232	0.035488	1	9.72779e-05	41	6.0321	2.09461e-05
2	1	0	1	0	6.5457	0.599999	0.600278	0.0394397	1	0.000116071	41	6.5319	2.36748e-05
2	1	0	1	0	7.0455	0.609995	0.610115	0.0434042	1	0.000136847	41	7.0317	2.64815e-05
2	1	0	1	0	7.5452	0.61999	0.620115	0.0472104	1	0.000159556	41	7.5314	2.92759e-05
2	1	0	1	0	8.045	0.629985	0.630211	0.0507173	1	0.000184097	41	8.0312	3.19626e-05
2	1	0	1	0	8.5448	0.63998	0.640027	0.0537895	1	0.000210291	41	8.531	3.44267e-05
2	1	0	1	0	9.0445	0.649976	0.649947	0.0563612	1	0.000237896	41	9.0307	3.66318e-05
2	1	0	1	0	9.5443	0.659971	0.659988	0.0583366	1	0.000266648	41	9.5305	3.85015e-05
2	1	0	1	0	10.044	0.669966	0.670079	0.059734	1	0.000296238	41	10.0302	4.00265e-05
2	1	0	1	0	10.5438	0.679961	0.680056	0.0605528	1	0.000326381	41	10.53	4.11793e-05
2	1	0	1	0	11.0436	0.689957	0.690074	0.0608389	1	0.000356801	41	11.0298	4.19833e-05
2	1	0	1	0	11.5433	0.699952	0.700155	0.0607126	1	0.000387255	41	11.5295	4.25082e-05
2	1	0	1	0	12.0431	0.709947	0.710087	0.0601901	1	0.000417554	41	12.0293	4.27402e-05
2	1	0	1	0	12.5428	0.71994	0.720036	0.0594351	1	0.000447528	41	12.529	4.27954e-05
2	1	0	1	0	13.0426	0.729937	0.730112	0.0584766	1	0.000477072	41	13.0288	4.26945e-05
2	1	0	1	0	13.5424	0.739933	0.739868	0.0573483	1	0.000506088	41	13.5286	4.24302e-05
2	1	0	1	0	14.0421	0.749928	0.750146	0.0561294	1	0.000534511	41	14.0283	4.21053e-05
2	1	0	1	0	14.5419	0.759923	0.760055	0.0548786	1	0.000562316	41	14.5281	4.17108e-05
2	1	0	1	0	15.0417	0.769919	0.769791	0.0535358	1	0.000589475	41	15.0279	4.12114e-05
2	1	0	1	0	15.5414	0.779914	0.779952	0.0522419	1	0.000615977	41	15.5276	4.07462e-05
2	1	0	1	0	16.0412	0.789909	0.78998	0.0509792	1	0.000641838	41	16.0274	4.02725e-05
2	1	0	1	0	16.541	0.799904	0.800026	0.0497	1	0.000667066	41	16.5272	3.97613e-05
2	1	0	1	0	17.0407	0.8099	0.810128	0.0485074	1	0.000691679	41	17.0269	3.92972e-05
2	1	0	1	0	17.5405	0.819895	0.819727	0.0474	1	0.000715714	41	17.5267	3.8855e-05
2	1	0	1	0	18.0402	0.82989	0.829975	0.0463247	1	0.000739193	41	18.0264	3.84483e-05
2	1	0	1	0	18.54	0.839885	0.840002	0.0453284	1	0.000762162	41	18.5262	3.80759e-05
2	1	0	1	0	19.0398	0.84988	0.849849	0.0444036	1	0.000784647	41	19.026	3.77363e-05
2	1	0	1	0	19.5395	0.859876	0.859985	0.0435253	1	0.000806678	41	19.5257	3.74311e-05
2	1	0	1	0	20.0393	0.869871	0.869905	0.0427116	1	0.000828293	41	20.0255	3.7155e-05
2	1	0	1	0	20.539	0.879864	0.879893	0.0419704	1	0.000849515	41	20.5252	3.69294e-05
2	1	0	1	0	21.0388	0.889861	0.889731	0.041239	1	0.000870381	41	21.025	3.66916e-05
2	1	0	1	0	21.5386	0.899857	0.900074	0.0406074	1	0.000890908	41	21.5248	3.65496e-05
2	1	0	1	0	22.0383	0.909852	0.909958	0.0400288	1	0.000911122	41	22.0245	3.64245e-05
2	1	0	1	0	22.5381	0.919847	0.919747	0.0394956	1	0.000931056	41	22.5243	3.6326e-05
2	1	0	1	0	23.0379	0.929842	0.929928	0.0389847	1	0.000950726	41	23.0241	3.6253e-05
2	1	0	1	0	23.5376	0.939838	0.939939	0.0385171	1	0.000970152	41	23.5238	3.62037e-05
2	1	0	1	0	24.0374	0.949833	0.950061	0.0381091	1	0.000989361	41	24.0236	3.6206e-05
2	1	0	1	0	24.5372	0.959829	0.959929	0.0377139	1	0.00100837	41	24.5234	3.62027e-05
2	1	0	1	0	25.0369	0.969823	0.970294	0.0373543	1	0.00102718	41	25.0231	3.62446e-05
2	1	0	1	0	25.5367	0.979819	0.979731	0.0370813	1	0.00104584	41	25.5229	3.63297e-05
2	1	0	1	0	26.0364	0.989814	0.989853	0.0368082	1	0.00106435	41	26.0226	3.64347e-05
2	1	0	1	0	26.5337	0.999759	0.999848	0.0365517	1	0.00108264	41	26.5199	3.65462e-05
2	1	0	1	0	27.0089	0.990713	0.990772	0.0352276	1	0.00109958	41	26.9951	3.49025e-05
2	1	0	1	0	27.5086	0.980718	0.980692	0.0344842	1	0.00111692	41	27.4948	3.38183e-05
2	1	0	1	0	28.0084	0.970723	0.970574	0.0339151	1	0.00113394	41	27.9946	3.29172e-05
2	1	0	1	0	28.5082	0.960728	0.960749	0.0334136	1	0.00115068	41	28.4944	3.21021e-05
2	1	0	1	0	29.0079	0.950732	0.950721	0.0329662	1	0.00116719	41	28.9941	3.13417e-05
2	1	0	1	0	29.5077	0.940737	0.940733	0.0325647	1	0.00118349	41	29.4939	3.06347e-05
2	1	0	1	0	30.0074	0.930744	0.930705	0.0321724	1	0.00119958	41	29.9936	2.99431e-05
2	1	0	1	0	30.5072	0.920747	0.920817	0.0318173	1	0.00121549	41	30.4934	2.92979e-05
2	1	0	1	0	31.007	0.910752	0.910693	0.0314507	1	0.00123122	41	30.9932	2.8642e-05
2	1	0	1	0	31.5067	0.900756	0.900952	0.0311435	1	0.00124677	41	31.4929	2.80588e-05
2	1	0	1	0	32.0065	0.890761	0.890644	0.030809	1	0.00126215	41	31.9927	2.74398e-05
2	1	0	1	0	32.5063	0.880766	0.880882	0.030463	1	0.00127737	41	32.4925	2.68343e-05
2	1	0	1	0	33.006	0.870771	0.870766	0.0301269	1	0.00129241	41	32.9922	2.62335e-05
2	1	0	1	0	33.5058	0.860775	0.86087	0.0297603	1	0.00130728	41	33.492	2.56198e-05
2	1	0	1	0	34.0056	0.85078	0.850978	0.0293995	1	0.00132198	41	33.9918	2.50184e-05
2	1	0	1	0	34.5053	0.840785	0.84091	0.029054	1	0.0013365	41	34.4915	2.44318e-05
2	1	0	1	0	35.0051	0.83079	0.830568	0.0287054	1	0.00135084	41	34.9913	2.38418e-05
2	1	0	1	0	35.5048	0.820794	0.820991	0.0282892	1	0.00136498	41	35.491	2.32252e-05
2	1	0	1	0	36.0046	0.810799	0.810706	0.0278837	1	0.00137893	41	35.9908	2.26055e-05
2	1	0	1	0	36.5044	0.800804	0.800731	0.0274556	1	0.00139266	41	36.4906	2.19846e-05
2	1	0	1	0	37.0041	0.790809	0.791101	0.0269674	1	0.00140616	41	36.9903	2.1334e-05
2	1	0	1	0	37.5039	0.780813	0.780671	0.026505	1	0.00141943	41	37.4901	2.06917e-05
2	1	0	1	0	38.0036	0.770819	0.771167	0.0259597	1	0.00143243	41	37.9898	2.00193e-05
2	1	0	1	0	38.5034	0.760823	0.760706	0.0253838	1	0.00144517	41	38.4896	1.93096e-05
2	1	0	1	0	39.0032	0.750828	0.750823	0.0248046	1	0.00145762	41	38.9894	1.86239e-05
2	1	0	1	0	39.5029	0.740832	0.740699	0.0241632	1	0.00146976	41	39.4891	1.78976e-05
2	1	0	1	0	40.0027	0.730837	0.730862	0.0234837	1	0.00148158	41	39.9889	1.71634e-05
2	1	0	1	0	40.5025	0.720842	0.720812	0.0228149	1	0.00149306	41	40.4887	1.64452e-05
2	1	0	1	0	41.0022	0.710847	0.71102	0.0220691	1	0.00150418	41	40.9884	1.56915e-05
2	1	0	1	0	41.502	0.700851	0.701273	0.0212805	1	0.00151492	41	41.4882	1.49234e-05
2	1	0	1	0	42.0018	0.690855	0.690987	0.0204291	1	0.00152526	41	41.988	1.41163e-05
2	1	0	1	0	42.5015	0.680861	0.680975	0.0195419	1	0.00153515	41	42.4877	1.33075e-05
2	1	0	1	0	43.0013	0.670866	0.670881	0.0185998	1	0.0015446	41	42.9875	1.24782e-05
2	1	0	1	0	43.501	0.66087	0.661026	0.0175927	1	0.00155355	41	43.4872	1.16293e-05
2	1	0	1	0	44.0008	0.650875	0.650941	0.0165232	1	0.00156199	41	43.987	1.07557e-05
2	1	0	1	0	44.5006	0.64088	0.64067	0.0154339	1	0.00156989	41	44.4868	9.88803e-06
2	1	0	1	0	45.0003	0.630885	0.63087	0.0142819	1	0.00157723	41	44.9865	9.01004e-06
2	1	0	1	0	45.5001	0.620889	0.621034	0.0131115	1	0.001584	41	45.4863	8.14267e-06
2	1	0	1	0	45.9998	0.610895	0.611007	0.011973	1	0.00159018	41	45.986	7.31559e-06
2	1	0	1	0	46.4996	0.600899	0.601039	0.0107747	1	0.00159578	41	46.4858	6.47604e-06
2	1	0	1	0	46.9994	0.590904	0.591182	0.00963281	1	0.0016008	41	46.9856	5.69474e-06
2	1	0	1	0	47.4991	0.580908	0.580994	0.00848733	1	0.00160524	41	47.4853	4.93109e-06
2	1	0	1	0	47.9989	0.570913	0.570986	0.00735424	1	0.00160912	41	47.9851	4.19917e-06
2	1	0	1	0	48.4987	0.560918	0.561125	0.00620506	1	0.00161243	41	48.4849	3.48182e-06
2	1	0	1	0	48.9984	0.550923	0.551004	0.00509533	1	0.00161519	41	48.9846	2.80755e-06
2	1	0	1	0	49.5282	0.540328	0.540218	0.00374599	1	0.00161749	42	49.5144	2.02365e-06
2	1	0	1	0	50.0279	0.530332	0.530425	0.00258253	1	0.00161908	42	50.0141	1.36984e-06
2	1	0	1	0	50.5277	0.520337	0.520463	0.00138391	1	0.00162007	42	50.5139	7.20276e-07
2	1	0	1	0	51.0574	0.509743	0.509646	3.44491e-05	1	0.00162045	43	51.0436	1.75568e-08
2	0	0	1	0	51.5872	0.499147	0.499271	-0.00140012	1	0.00162009	42	0.4798	-6.99038e-07
2	0	0	1	0	52.087	0.489152	0.48907	-0.00286831	1	0.00161903	42	0.9796	-1.4028e-06
2	0	0	1	0	52.5867	0.479157	0.479337	-0.00447307	1	0.0016172	42	1.4793	-2.1441e-06
2	0	0	1	0	53.0865	0.469161	0.469384	-0.00623485	1	0.00161453	42	1.9791	-2.92654e-06
2	0	0	1	0	53.5862	0.459166	0.459226	-0.00819286	1	0.00161093	42	2.4788	-3.76237e-06
2	0	0	1	0	54.086	0.449171	0.449346	-0.0103781	1	0.00160629	42	2.9786	-4.66334e-06
2	0	0	1	0	54.6158	0.438576	0.438794	-0.0129098	1	0.00160012	41	3.5084	-5.66475e-06
2	0	0	1	0	55.1155	0.428581	0.428719	-0.0156899	1	0.00159296	41	4.0081	-6.72656e-06
2	0	0	1	0	55.6153	0.418586	0.418793	-0.018749	1	0.00158433	41	4.5079	-7.85193e-06
2	0	0	1	0	56.115	0.40859	0.40847	-0.0222447	1	0.00157406	41	5.0076	-9.0863e-06
2	0	0	1	0	56.6148	0.398595	0.398806	-0.0261199	1	0.00156196	41	5.5074	-1.04168e-05
2	0	0	1	0	57.1146	0.3886	0.388869	-0.0303745	1	0.00154782	41	6.0072	-1.18117e-05
2	0	0	1	0	57.6143	0.378605	0.378728	-0.035079	1	0.00153144	41	6.5069	-1.32854e-05
2	0	0	1	0	58.1141	0.368609	0.368947	-0.0401663	1	0.00151261	41	7.0067	-1.48192e-05
2	0	0	1	0	58.6138	0.358616	0.358944	-0.0456027	1	0.00149116	41	7.5064	-1.63688e-05
2	0	0	1	0	59.1136	0.348619	0.348489	-0.0512925	1	0.00146692	41	8.0062	-1.78748e-05
2	0	0	1	0	59.6134	0.338624	0.338905	-0.0571669	1	0.00143978	41	8.506	-1.93741e-05
2	0	0	1	0	60.1131	0.328628	0.328645	-0.0630256	1	0.00140971	41	9.0057	-2.0713e-05
2	0	0	1	0	60.6129	0.318633	0.318607	-0.0687819	1	0.00137673	41	9.5055	-2.19144e-05
2	0	0	1	0	61.1127	0.308638	0.308807	-0.0741426	1	0.00134096	41	10.0053	-2.28958e-05
2	0	0	1	0	61.6124	0.298643	0.298782	-0.0790199	1	0.00130263	41	10.505	-2.36097e-05
2	0	0	1	0	62.1122	0.288647	0.288772	-0.0831111	1	0.00126205	41	11.0048	-2.40001e-05
2	0	0	1	0	62.612	0.278652	0.27899	-0.0863628	1	0.00121963	41	11.5046	-2.40943e-05
2	0	0	1	0	63.1117	0.268657	0.268736	-0.088657	1	0.00117583	41	12.0043	-2.38254e-05
2	0	0	1	0	63.6115	0.258662	0.2587	-0.0899183	1	0.00113113	41	12.5041	-2.32618e-05
2	0	0	1	0	64.1112	0.248666	0.248653	-0.0902458	1	0.00108605	41	13.0038	-2.24399e-05
2	0	0	1	0	64.611	0.238671	0.238767	-0.0896825	1	0.00104102	41	13.5036	-2.14133e-05
2	0	0	1	0	65.1108	0.228676	0.228667	-0.0883514	1	0.000996473	41	14.0034	-2.0203e-05
2	0	0	1	0	65.6105	0.218681	0.218798	-0.0864464	1	0.000952748	41	14.5031	-1.89143e-05
2	0	0	1	0	66.1103	0.208685	0.208763	-0.084118	1	0.000910079	41	15.0029	-1.75607e-05
2	0	0	1	0	66.61	0.198691	0.198788	-0.0814867	1	0.000868659	41	15.5026	-1.61986e-05
2	0	0	1	0	67.1098	0.188695	0.189077	-0.0787606	1	0.000828577	41	16.0024	-1.48918e-05
2	0	0	1	0	67.6096	0.1787	0.178983	-0.075947	1	0.000789886	41	16.5022	-1.35932e-05
2	0	0	1	0	68.1093	0.168704	0.168911	-0.0731841	1	0.000752594	41	17.0019	-1.23616e-05
2	0	0	1	0	68.6091	0.158709	0.159009	-0.0705179	1	0.000716653	41	17.5017	-1.1213e-05
2	0	0	1	0	69.1089	0.148714	0.148829	-0.0679493	1	0.000682022	41	18.0015	-1.01128e-05
2	0	0	1	0	69.6086	0.138719	0.138784	-0.0655249	1	0.000648638	41	18.5012	-9.0938e-06
2	0	0	1	0	70.1084	0.128723	0.129013	-0.0632684	1	0.000616423	41	19.001	-8.16244e-06
2	0	0	1	0	70.6082	0.118727	0.118872	-0.0611255	1	0.0005853	41	19.5008	-7.26613e-06
2	0	0	1	0	71.1079	0.108733	0.108687	-0.0591657	1	0.000555208	41	20.0005	-6.43056e-06
2	0	0	1	0	71.6077	0.0987377	0.0989145	-0.0573365	1	0.000526064	41	20.5003	-5.67141e-06
2	0	0	1	0	72.1074	0.0887425	0.0889141	-0.0556334	1	0.000497811	41	21	-4.9466e-06
2	0	0	1	0	72.6072	0.0787472	0.079069	-0.0540402	1	0.000470375	41	21.4998	-4.27291e-06
2	0	0	1	0	73.107	0.068752	0.0691285	-0.0525739	1	0.000443706	41	21.9996	-3.63435e-06
2	0	0	1	0	73.6067	0.0587567	0.0589673	-0.0511875	1	0.000417753	41	22.4993	-3.01839e-06
2	0	0	1	0	74.1065	0.0487615	0.0488992	-0.0498907	1	0.000392461	41	22.9991	-2.43961e-06
2	0	0	1	0	74.6062	0.0387671	0.0389942	-0.0487293	1	0.000367789	41	23.4988	-1.90016e-06
2	0	0	1	0	75.106	0.028771	0.0290809	-0.0476057	1	0.000343689	41	23.9986	-1.38442e-06
2	0	0	1	0	75.6058	0.0187757	0.018901	-0.0465324	1	0.000320128	41	24.4984	-8.79507e-07
2	0	0	1	0	76.1055	0.00878049	0.00907894	-0.0455685	1	0.000297075	41	24.9981	-4.13714e-07
2	0	0	1	1	76.5834	0.000785189	0.00111702	-0.0441891	1	0.000275486	41	25.476	-4.93602e-08
2	0	0	1	1	77.0831	0.0107795	0.0110515	-0.0423543	1	0.00025395	41	25.9757	-4.68077e-07
2	0	0	1	1	77.5829	0.0207748	0.0210829	-0.0411008	1	0.000233144	41	26.4755	-8.66524e-07
2	0	0	1	1	78.0826	0.03077	0.0310026	-0.0399927	1	0.000212924	41	26.9752	-1.23988e-06
2	0	0	1	1	78.5824	0.0407653	0.0408972	-0.0390242	1	0.000193214	41	27.475	-1.59598e-06
2	0	0	1	1	79.0822	0.0507605	0.05083	-0.0381181	1	0.00017397	41	27.9748	-1.93754e-06
2	0	0	1	1	79.5819	0.0607558	0.0611334	-0.0372746	1	0.000155173	41	28.4745	-2.27873e-06
2	0	0	1	1	80.0817	0.070751	0.0709012	-0.0364731	1	0.00013679	41	28.9743	-2.58599e-06
2	0	0	1	1	80.5814	0.0807454	0.0811542	-0.0356718	1	0.000118809	41	29.474	-2.89492e-06
2	0	0	1	1	81.0812	0.0907415	0.0910499	-0.0348975	1	0.000101213	41	29.9738	-3.17742e-06
2	0	0	1	1	81.581	0.100737	0.100927	-0.0341355	1	8.39957e-05	41	30.4736	-3.4452e-06
2	0	0	1	1	82.0807	0.110732	0.110848	-0.0334197	1	6.71548e-05	41	30.9733	-3.70451e-06
2	0	0	1	1	82.5805	0.120727	0.1208	-0.0326828	1	5.06822e-05	41	31.4731	-3.94809e-06
2	0	0	1	1	83.0803	0.130722	0.130873	-0.0319516	1	3.45748e-05	41	31.9729	-4.1816e-06
2	0	0	1	1	83.58	0.140718	0.140928	-0.0311967	1	1.88406e-05	41	32.4726	-4.39648e-06
2	0	0	1	1	84.0798	0.150713	0.15097	-0.0304274	1	3.4794e-06	41	32.9724	-4.59363e-06
2	0	0	1	1	84.5796	0.160709	0.160896	-0.0296333	1	-1.14976e-05	41	33.4722	-4.76788e-06
2	0	0	1	1	85.0793	0.170703	0.171036	-0.0288667	1	-2.60823e-05	41	33.9719	-4.93723e-06
2	0	0	1	1	85.5791	0.180699	0.181192	-0.0280276	1	-4.02644e-05	41	34.4717	-5.07838e-06
2	0	0	1	1	86.0788	0.190694	0.190859	-0.0271807	1	-5.40242e-05	41	34.9714	-5.1877e-06
2	0	0	1	1	86.5786	0.200689	0.201111	-0.0262983	1	-6.73495e-05	41	35.4712	-5.28888e-06
2	0	0	1	1	87.0784	0.210684	0.21101	-0.0253139	1	-8.02178e-05	41	35.971	-5.34149e-06
2	0	0	1	1	87.5781	0.22068	0.221	-0.0243602	1	-9.26037e-05	41	36.4707	-5.38361e-06
2	0	0	1	1	88.0779	0.230675	0.231116	-0.0233389	1	-0.000104489	41	36.9705	-5.39398e-06
2	0	0	1	1	88.5776	0.240669	0.240608	-0.0222467	1	-0.000115845	41	37.4702	-5.35274e-06
2	0	0	1	1	89.0774	0.250665	0.250846	-0.0211222	1	-0.000126653	41	37.97	-5.29843e-06
2	0	0	1	1	89.5772	0.260661	0.260893	-0.0199403	1	-0.000136889	41	38.4698	-5.20228e-06
2	0	0	1	1	90.0769	0.270656	0.271092	-0.0187578	1	-0.000146534	41	38.9695	-5.08509e-06
2	0	0	1	1	90.5767	0.280651	0.281105	-0.017537	1	-0.000155572	41	39.4693	-4.92975e-06
2	0	0	1	1	91.0765	0.290646	0.290895	-0.016264	1	-0.000163988	41	39.9691	-4.73112e-06
2	0	0	1	1	91.5762	0.300642	0.301029	-0.0149872	1	-0.00017177	41	40.4688	-4.51158e-06
2	0	0	1	1	92.076	0.310637	0.310778	-0.0137053	1	-0.000178914	41	40.9686	-4.25931e-06
2	0	0	1	1	92.5758	0.320634	0.32095	-0.0124168	1	-0.000185414	41	41.4684	-3.98518e-06
2	0	0	1	1	93.0755	0.330627	0.330859	-0.0111002	1	-0.000191268	41	41.9681	-3.67259e-06
2	0	0	1	1	93.5753	0.340623	0.340952	-0.00986179	1	-0.000196482	41	42.4679	-3.3624e-06
2	0	0	1	1	94.075	0.350618	0.350956	-0.00856473	1	-0.000201056	41	42.9676	-3.00585e-06
2	0	0	1	1	94.5748	0.360613	0.360754	-0.00729185	1	-0.000204996	41	43.4674	-2.63056e-06
2	0	0	1	1	95.0746	0.370608	0.370873	-0.00604405	1	-0.000208301	41	43.9672	-2.24157e-06
2	0	0	1	1	95.5743	0.380604	0.380611	-0.00477458	1	-0.000210976	41	44.4669	-1.81725e-06
2	0	0	1	1	96.1041	0.391199	0.391236	-0.00336641	1	-0.000213121	42	44.9967	-1.31706e-06
2	0	0	1	1	96.6038	0.401194	0.40141	-0.00206112	1	-0.00021448	42	45.4964	-8.27353e-07
2	0	0	1	1	97.1036	0.411189	0.411319	-0.000714565	1	-0.000215177	42	45.9962	-2.93914e-07
2	1	0	1	1	97.6333	0.421784	0.421991	0.000770155	1	-0.00021517	43	0.2498	3.24999e-07
2	1	0	1	1	98.1631	0.432379	0.432413	0.00236611	1	-0.000214346	42	0.7796	1.02314e-06
2	1	0	1	1	98.6628	0.442373	0.442637	0.00398977	1	-0.000212763	42	1.2793	1.76602e-06
2	1	0	1	1	99.1626	0.45237	0.45243	0.00576817	1	-0.000210331	42	1.7791	2.6097e-06
2	1	0	1	1	99.6624	0.462365	0.462549	0.00771979	1	-0.000206969	42	2.2789	3.57078e-06
2	1	0	1	1	100.13	0.47171	0.471919	0.00973395	2	-0.000202897	42	2.7462	4.59363e-06
2	1	0	1	1	100.659	0.482305	0.482323	0.0122141	2	-0.000197077	41	3.2759	5.89114e-06
2	1	0	1	1	101.159	0.492301	0.492561	0.0149013	2	-0.000190277	41	3.7757	7.3398e-06
2	1	0	1	1	101.659	0.502296	0.50243	0.0178611	2	-0.000182064	41	4.2754	8.97397e-06
2	1	0	1	1	102.159	0.512291	0.512537	0.021164	2	-0.00017228	41	4.7752	1.08474e-05
2	1	0	1	1	102.658	0.522284	0.522739	0.0247959	2	-0.000160761	41	5.2749	1.29618e-05
2	1	0	1	1	103.158	0.532281	0.532372	0.0288343	2	-0.000147331	41	5.7747	1.53506e-05
2	1	0	1	1	103.658	0.542277	0.542419	0.0331749	2	-0.000131813	41	6.2745	1.79947e-05
2	1	0	1	1	104.158	0.552272	0.552284	0.0378711	2	-0.000114027	41	6.7742	2.09156e-05
2	1	0	1	1	104.657	0.562267	0.562416	0.042913	2	-9.38002e-05	41	7.274	2.4135e-05
2	1	0	1	1	105.157	0.572262	0.572488	0.0482319	2	-7.0983e-05	41	7.7738	2.76122e-05
2	1	0	1	1	105.657	0.582258	0.582471	0.0537314	2	-4.54678e-05	41	8.2735	3.1297e-05
2	1	0	1	1	106.157	0.592253	0.592272	0.0592841	2	-1.71749e-05	41	8.7733	3.51123e-05
2	1	0	1	1	106.657	0.602249	0.602391	0.0647909	2	1.38908e-05	41	9.2731	3.90295e-05
2	1	0	1	1	107.156	0.612244	0.612389	0.0700567	2	4.76442e-05	41	9.7728	4.2902e-05
2	1	0	1	1	107.656	0.622239	0.622209	0.0748257	2	8.39274e-05	41	10.2726	4.65572e-05
2	1	0	1	1	108.156	0.632234	0.632234	0.0790122	2	0.000122449	41	10.7723	4.99543e-05
2	1	0	1	1	108.656	0.642229	0.64247	0.0823749	2	0.000162869	41	11.2721	5.29234e-05
2	1	0	1	1	109.155	0.652224	0.652414	0.0848362	2	0.000204754	41	11.7719	5.53483e-05
2	1	0	1	1	109.655	0.66222	0.662321	0.0863971	2	0.000247629	41	12.2716	5.72226e-05
2	1	0	1	1	110.155	0.672215	0.672436	0.0870253	2	0.000291058	41	12.7714	5.85189e-05
2	1	0	1	1	110.655	0.682209	0.682333	0.0868711	2	0.000334595	41	13.2711	5.9275e-05
2	1	0	1	1	111.154	0.692205	0.692238	0.0860501	2	0.000377886	41	13.7709	5.95672e-05
2	1	0	1	1	111.654	0.702201	0.70228	0.0846724	2	0.000420622	41	14.2707	5.94638e-05
2	1	0	1	1	112.154	0.712196	0.712221	0.0829063	2	0.000462563	41	14.7704	5.90477e-05
2	1	0	1	1	112.654	0.722191	0.722221	0.080861	2	0.000503556	41	15.2702	5.83995e-05
2	1	0	1	1	113.153	0.732186	0.731982	0.0786402	2	0.000543474	41	15.77	5.75632e-05
2	1	0	1	1	113.653	0.742182	0.742574	0.0763069	2	0.00058224	41	16.2697	5.66635e-05
2	1	0	1	1	114.153	0.752177	0.752217	0.0739108	2	0.000619834	41	16.7695	5.5597e-05
2	1	0	1	1	114.653	0.762173	0.761992	0.0715452	2	0.000656241	41	17.2693	5.45169e-05
2	1	0	1	1	115.152	0.772168	0.772197	0.0692452	2	0.000691471	41	17.769	5.3471e-05
2	1	0	1	1	115.652	0.782163	0.78238	0.0669786	2	0.000725565	41	18.2688	5.24028e-05
2	1	0	1	1	116.152	0.792158	0.79237	0.0648082	2	0.000758552	41	18.7685	5.13521e-05
2	1	0	1	1	116.652	0.802153	0.802026	0.0627884	2	0.000790491	41	19.2683	5.0358e-05
2	1	0	1	1	117.152	0.812148	0.812426	0.060833	2	0.000821433	41	19.7681	4.94223e-05
2	1	0	1	1	117.651	0.822144	0.822258	0.0590201	2	0.000851428	41	20.2678	4.85297e-05
2	1	0	1	1	118.151	0.832139	0.832387	0.0572896	2	0.000880549	41	20.7676	4.76872e-05
2	1	0	1	1	118.651	0.842133	0.842412	0.0556922	2	0.00090884	41	21.2673	4.69158e-05
2	1	0	1	1	119.151	0.852129	0.852353	0.0542336	2	0.00093637	41	21.7671	4.62262e-05
2	1	0	1	1	119.65	0.862125	0.861996	0.0528494	2	0.000963185	41	22.2669	4.5556e-05
2	1	0	1	1	120.15	0.87212	0.872173	0.0515663	2	0.000989333	41	22.7666	4.49747e-05
2	1	0	1	1	120.65	0.882115	0.882241	0.0503717	2	0.00101486	41	23.2664	4.444e-05
2	1	0	1	1	121.15	0.89211	0.891978	0.0492509	2	0.00103982	41	23.7662	4.39308e-05
2	1	0	1	1	121.649	0.902106	0.902164	0.0482001	2	0.00106423	41	24.2659	4.34844e-05
2	1	0	1	1	122.149	0.912101	0.912092	0.0472524	2	0.00108814	41	24.7657	4.30985e-05
2	1	0	1	1	122.649	0.922097	0.922169	0.0463719	2	0.0011116	41	25.2655	4.27627e-05
2	1	0	1	1	123.149	0.932091	0.932021	0.0455465	2	0.00113461	41	25.7652	4.24503e-05
2	1	0	1	1	123.648	0.942087	0.942187	0.044763	2	0.00115723	41	26.265	4.21751e-05
2	1	0	1	1	124.148	0.952082	0.952061	0.044046	2	0.00117947	41	26.7647	4.19344e-05
2	1	0	1	1	124.648	0.962077	0.962217	0.0433834	2	0.00120137	41	27.2645	4.17443e-05
2	1	0	1	1	125.148	0.972072	0.972167	0.042756	2	0.00122295	41	27.7643	4.1566e-05
2	1	0	1	1	125.647	0.982068	0.982132	0.0422039	2	0.00124423	41	28.264	4.14498e-05
2	1	0	1	1	126.147	0.992063	0.992087	0.0417067	2	0.00126525	41	28.7638	4.13767e-05
2	1	0	1	1	126.607	0.99871	0.998654	0.0408995	2	0.00128437	41	29.224	4.08445e-05
2	1	0	1	1	127.107	0.988714	0.988623	0.0395168	2	0.00130436	41	29.7237	3.90672e-05
2	1	0	1	1	127.607	0.978719	0.978778	0.0386248	2	0.00132382	41	30.2235	3.78051e-05
2	1	0	1	1	128.107	0.968724	0.968831	0.0377959	2	0.00134285	41	30.7233	3.66179e-05
2	1	0	1	1	128.606	0.958729	0.958966	0.0371786	2	0.00136152	41	31.223	3.5653e-05
2	1	0	1	1	129.106	0.948733	0.948998	0.0365285	2	0.00137987	41	31.7228	3.46655e-05
2	1	0	1	1	129.606	0.938738	0.938856	0.0359739	2	0.00139791	41	32.2225	3.37743e-05
2	1	0	1	1	130.106	0.928743	0.928662	0.0354603	2	0.00141569	41	32.7223	3.29306e-05
2	1	0	1	1	130.606	0.918748	0.918755	0.0349661	2	0.0014332	41	33.2221	3.21252e-05
2	1	0	1	1	131.105	0.908752	0.908834	0.0344586	2	0.00145046	41	33.7218	3.13172e-05
2	1	0	1	1	131.605	0.898757	0.899012	0.0339626	2	0.00146748	41	34.2216	3.05328e-05
2	1	0	1	1	132.105	0.888762	0.888919	0.0335219	2	0.00148427	41	34.7214	2.97982e-05
2	1	0	1	1	132.605	0.878767	0.878898	0.0330859	2	0.00150082	41	35.2211	2.90791e-05
2	1	0	1	1	133.104	0.868771	0.868926	0.0326023	2	0.00151714	41	35.7209	2.83289e-05
2	1	0	1	1	133.604	0.858776	0.858995	0.0321493	2	0.00153323	41	36.2206	2.76161e-05
2	1	0	1	1	134.104	0.848781	0.848978	0.0316773	2	0.00154909	41	36.7204	2.68933e-05
2	1	0	1	1	134.604	0.838786	0.838943	0.0312325	2	0.00156472	41	37.2202	2.62023e-05
2	1	0	1	1	135.103	0.828791	0.828816	0.0307605	2	0.00158011	41	37.7199	2.54948e-05
2	1	0	1	1	135.603	0.818795	0.818698	0.0302545	2	0.00159525	41	38.2197	2.47693e-05
2	1	0	1	1	136.103	0.8088	0.808736	0.0297433	2	0.00161015	41	38.7195	2.40545e-05
2	1	0	1	1	136.603	0.798805	0.798698	0.0291918	2	0.00162478	41	39.2192	2.33154e-05
2	1	0	1	1	137.102	0.788809	0.788833	0.0286297	2	0.00163914	41	39.719	2.2584e-05
2	1	0	1	1	137.602	0.778814	0.778904	0.0280338	2	0.0016532	41	40.2187	2.18356e-05
2	1	0	1	1	138.102	0.768819	0.768494	0.0274159	2	0.00166697	41	40.7185	2.1069e-05
2	1	0	1	1	138.602	0.758824	0.758894	0.0267758	2	0.00168042	41	41.2183	2.032e-05
2	1	0	1	1	139.101	0.748829	0.748965	0.0260725	2	0.00169354	41	41.718	1.95274e-05
2	1	0	1	1	139.601	0.738833	0.739044	0.025409	2	0.00170632	41	42.2178	1.87783e-05
2	1	0	1	1	140.101	0.72884	0.728898	0.0246481	2	0.00171874	41	42.7175	1.79659e-05
2	1	0	1	1	140.601	0.718843	0.718793	0.0239083	2	0.00173078	41	43.2173	1.71851e-05
2	1	0	1	1	141.101	0.708848	0.709	0.0230598	2	0.00174242	41	43.7171	1.63494e-05
2	1	0	1	1	141.6	0.698852	0.699002	0.0221964	2	0.00175364	41	44.2168	1.55153e-05
2	1	0	1	1	142.1	0.688857	0.688872	0.0212943	2	0.00176442	41	44.7166	1.46691e-05
2	1	0	1	1	142.6	0.678862	0.679017	0.0202893	2	0.00177474	41	45.2164	1.37768e-05
2	1	0	1	1	143.1	0.668867	0.668891	0.019303	2	0.00178456	41	45.7161	1.29116e-05
2	1	0	1	1	143.599	0.658871	0.659064	0.0182123	2	0.00179386	41	46.2159	1.20031e-05
2	1	0	1	1	144.099	0.648876	0.649178	0.0171054	2	0.0018026	41	46.7157	1.11044e-05
2	1	0	1	1	144.599	0.638881	0.639128	0.0159257	2	0.00181078	41	47.2154	1.01786e-05
2	1	0	1	1	145.099	0.628886	0.629074	0.0147266	2	0.00181836	41	47.7152	9.26413e-06
2	1	0	1	1	145.598	0.61889	0.618954	0.0135063	2	0.00182534	41	48.2149	8.35979e-06
2	1	0	1	1	146.098	0.608895	0.609401	0.0122798	2	0.00183171	41	48.7147	7.48331e-06
2	1	0	1	1	146.598	0.5989	0.598878	0.0110759	2	0.00183747	41	49.2145	6.63313e-06
2	1	0	1	1	147.098	0.588905	0.588969	0.00986706	2	0.00184263	41	49.7142	5.8114e-06
2	1	0	1	1	147.597	0.578909	0.578791	0.00866601	2	0.00184718	41	50.214	5.01581e-06
2	1	0	1	1	148.097	0.568915	0.569046	0.00749158	2	0.00185115	41	50.7137	4.26305e-06
2	1	0	1	1	148.597	0.558919	0.55901	0.00630024	2	0.00185453	41	51.2135	3.5219e-06
2	1	0	1	1	149.097	0.548924	0.549108	0.00515863	2	0.00185732	41	51.7133	2.83265e-06
2	1	0	1	1	149.626	0.538329	0.538531	0.00375627	2	0.00185965	42	52.243	2.02287e-06
2	1	0	1	1	150.126	0.528333	0.528469	0.00255121	2	0.00186123	42	52.7428	1.34823e-06
2	1	0	1	1	150.626	0.518339	0.518542	0.00129666	2	0.00186219	42	53.2425	6.72374e-07
2	0	0	1	1	151.156	0.507743	0.507823	-0.00010038	2	0.00186251	43	0.000000000000000E+000	-5.09753e-08
2	0	0	1	1	151.686	0.497146	0.49727	-0.00160058	2	0.00186207	42	0.5298	-7.95922e-07
2	0	0	1	1	152.185	0.487153	0.487285	-0.00312826	2	0.00186089	42	1.0295	-1.52435e-06
2	0	0	1	1	152.685	0.477158	0.477238	-0.00479305	2	0.00185892	42	1.5293	-2.28742e-06
2	0	0	1	1	153.185	0.467162	0.46719	-0.00662448	2	0.00185607	42	2.029	-3.09489e-06
2	0	0	1	1	153.685	0.457167	0.457382	-0.00865264	2	0.00185226	42	2.5288	-3.95756e-06
2	0	0	1	1	154.199	0.446872	0.446879	-0.0109736	2	0.00184722	42	3.0436	-4.90386e-06
2	0	0	1	1	154.714	0.436577	0.436761	-0.0135232	2	0.0018409	41	3.5583	-5.90643e-06
2	0	0	1	1	155.214	0.426582	0.426843	-0.0163967	2	0.0018334	41	4.0581	-6.99883e-06
2	0	0	1	1	155.714	0.416587	0.416831	-0.0195867	2	0.00182439	41	4.5578	-8.16435e-06
2	0	0	1	1	156.213	0.406591	0.406624	-0.0231377	2	0.0018137	41	5.0576	-9.40835e-06
2	0	0	1	1	156.713	0.396596	0.396927	-0.0271006	2	0.00180112	41	5.5574	-1.0757e-05
2	0	0	1	1	157.213	0.386601	0.386774	-0.0314575	2	0.00178647	41	6.0571	-1.21669e-05
2	0	0	1	1	157.713	0.376606	0.376658	-0.0362055	2	0.00176954	41	6.5569	-1.36371e-05
2	0	0	1	1	158.212	0.36661	0.366784	-0.041365	2	0.00175014	41	7.0566	-1.5172e-05
2	0	0	1	1	158.712	0.356615	0.356756	-0.046825	2	0.00172807	41	7.5564	-1.67051e-05
2	0	0	1	1	159.212	0.34662	0.346514	-0.0525129	2	0.00170321	41	8.0562	-1.81964e-05
2	0	0	1	1	159.712	0.336625	0.336662	-0.0583636	2	0.00167548	41	8.5559	-1.96488e-05
2	0	0	1	1	160.211	0.326629	0.326851	-0.0641253	2	0.00164484	41	9.0557	-2.09594e-05
2	0	0	1	1	160.711	0.316634	0.316976	-0.069717	2	0.00161134	41	9.5555	-2.20986e-05
2	0	0	1	1	161.211	0.306639	0.306862	-0.0748938	2	0.00157516	41	10.0552	-2.2982e-05
2	0	0	1	1	161.711	0.296644	0.296929	-0.0795141	2	0.00153652	41	10.555	-2.361e-05
2	0	0	1	1	162.21	0.286648	0.286936	-0.0833439	2	0.00149577	41	11.0547	-2.39143e-05
2	0	0	1	1	162.71	0.276653	0.276836	-0.0862967	2	0.00145331	41	11.5545	-2.38901e-05
2	0	0	1	1	163.21	0.266658	0.266777	-0.0882445	2	0.00140962	41	12.0543	-2.35416e-05
2	0	0	1	1	163.71	0.256663	0.256713	-0.0891983	2	0.00136521	41	12.554	-2.28983e-05
2	0	0	1	1	164.21	0.246667	0.246631	-0.0892941	2	0.00132053	41	13.0538	-2.20227e-05
2	0	0	1	1	164.709	0.236672	0.236836	-0.0884978	2	0.00127604	41	13.5536	-2.09594e-05
2	0	0	1	1	165.209	0.226677	0.226851	-0.0869879	2	0.00123214	41	14.0533	-1.97333e-05
2	0	0	1	1	165.709	0.216682	0.216779	-0.0849766	2	0.00118911	41	14.5531	-1.84211e-05
2	0	0	1	1	166.209	0.206686	0.206971	-0.0826006	2	0.0011472	41	15.0528	-1.7096e-05
2	0	0	1	1	166.708	0.196691	0.196873	-0.0799522	2	0.00110654	41	15.5526	-1.57404e-05
2	0	0	1	1	167.208	0.186696	0.18689	-0.077183	2	0.00106723	41	16.0524	-1.44247e-05
2	0	0	1	1	167.708	0.176701	0.177038	-0.0744396	2	0.00102931	41	16.5521	-1.31786e-05
2	0	0	1	1	168.208	0.166705	0.166835	-0.0717225	2	0.000992754	41	17.0519	-1.19658e-05
2	0	0	1	1	168.707	0.156712	0.157032	-0.0691273	2	0.00095753	41	17.5516	-1.08552e-05
2	0	0	1	1	169.207	0.146715	0.146721	-0.0666573	2	0.000923571	41	18.0514	-9.78001e-06
2	0	0	1	1	169.707	0.13672	0.13675	-0.0643065	2	0.000890816	41	18.5512	-8.79388e-06
2	0	0	1	1	170.207	0.126724	0.126941	-0.0620965	2	0.000859201	41	19.0509	-7.88259e-06
2	0	0	1	1	170.706	0.116729	0.11698	-0.060081	2	0.000828639	41	19.5507	-7.02829e-06
2	0	0	1	1	171.206	0.106734	0.106667	-0.0581755	2	0.000799066	41	20.0505	-6.20543e-06
2	0	0	1	1	171.706	0.0967387	0.0967096	-0.0563631	2	0.000770419	41	20.5502	-5.45086e-06
2	0	0	1	1	172.206	0.0867434	0.0868613	-0.05471	2	0.000742621	41	21.05	-4.75218e-06
2	0	0	1	1	172.706	0.0767477	0.0768017	-0.0531846	2	0.000715626	41	21.5498	-4.08467e-06
2	0	0	1	1	173.205	0.0667529	0.066926	-0.0517837	2	0.000689373	41	22.0495	-3.46568e-06
2	0	0	1	1	173.705	0.0567577	0.0568463	-0.0504203	2	0.000663803	41	22.5493	-2.8662e-06
2	0	0	1	1	174.205	0.0467624	0.046951	-0.0491941	2	0.000638882	41	23.049	-2.30971e-06
2	0	0	1	1	174.705	0.0367672	0.0369602	-0.0480292	2	0.000614553	41	23.5488	-1.77517e-06
2	0	0	1	1	175.204	0.0267719	0.0268183	-0.0469486	2	0.000590781	41	24.0486	-1.25908e-06
2	0	0	1	1	175.704	0.0167767	0.0170931	-0.045965	2	0.000567536	41	24.5483	-7.85685e-07
2	0	0	1	1	176.204	0.00678144	0.0070037	-0.0450107	2	0.000544772	41	25.0481	-3.15241e-07
2	0	0	1	0	176.682	0.00278335	0.00278522	-0.0433022	2	0.000523542	41	25.5259	-1.20606e-07
2	0	0	1	0	177.181	0.0127786	0.0128988	-0.041749	2	0.000502351	41	26.0257	-5.38513e-07
2	0	0	1	0	177.681	0.0227738	0.0231692	-0.04057	2	0.000481838	41	26.5254	-9.39974e-07
2	0	0	1	0	178.181	0.0327691	0.0330049	-0.0395175	2	0.000461873	41	27.0252	-1.30427e-06
2	0	0	1	0	178.681	0.0427648	0.0430654	-0.0385809	2	0.0004424	41	27.525	-1.6615e-06
2	0	0	1	0	179.18	0.0527596	0.0531123	-0.0377144	2	0.000423384	41	28.0247	-2.0031e-06
2	0	0	1	0	179.68	0.0627548	0.0630762	-0.0368727	2	0.00040479	41	28.5245	-2.32579e-06
2	0	0	1	0	180.18	0.0727501	0.0731628	-0.0360598	2	0.000386606	41	29.0242	-2.63823e-06
2	0	0	1	0	180.68	0.0827453	0.0828988	-0.0352915	2	0.000368808	41	29.524	-2.92562e-06
2	0	0	1	0	181.18	0.0927406	0.0930293	-0.0345613	2	0.000351387	41	30.0238	-3.21521e-06
2	0	0	1	0	181.679	0.102736	0.103013	-0.0338275	2	0.000334339	41	30.5235	-3.48468e-06
2	0	0	1	0	182.179	0.112731	0.11299	-0.0331231	2	0.000317648	41	31.0233	-3.74258e-06
2	0	0	1	0	182.679	0.122725	0.123008	-0.032384	2	0.000301322	41	31.523	-3.98349e-06
2	0	0	1	0	183.179	0.132722	0.133037	-0.0316814	2	0.000285353	41	32.0228	-4.21482e-06
2	0	0	1	0	183.678	0.142717	0.142931	-0.0309187	2	0.000269749	41	32.5226	-4.41924e-06
2	0	0	1	0	184.178	0.152712	0.153039	-0.0301867	2	0.000254519	41	33.0223	-4.61976e-06
2	0	0	1	0	184.678	0.162707	0.163025	-0.0294013	2	0.000239664	41	33.5221	-4.79314e-06
2	0	0	1	0	185.178	0.172703	0.172827	-0.028608	2	0.0002252	41	34.0219	-4.94424e-06
2	0	0	1	0	185.677	0.182698	0.182766	-0.0277599	2	0.000211143	41	34.5216	-5.07357e-06
2	0	0	1	0	186.177	0.192693	0.192758	-0.0269118	2	0.000197503	41	35.0214	-5.18747e-06
2	0	0	1	0	186.677	0.202689	0.202935	-0.0260223	2	0.000184302	41	35.5212	-5.28084e-06
2	0	0	1	0	187.177	0.212684	0.212643	-0.0250761	2	0.000171566	41	36.0209	-5.33227e-06
2	0	0	1	0	187.676	0.222679	0.222885	-0.0240937	2	0.000159308	41	36.5207	-5.37013e-06
2	0	0	1	0	188.176	0.232674	0.232631	-0.0230693	2	0.000147558	41	37.0204	-5.36664e-06
2	0	0	1	0	188.676	0.242669	0.24278	-0.0219716	2	0.000136335	41	37.5202	-5.33425e-06
2	0	0	1	0	189.176	0.252665	0.252864	-0.0208514	2	0.000125664	41	38.02	-5.27258e-06
2	0	0	1	0	189.675	0.26266	0.262874	-0.0196836	2	0.000115568	41	38.5197	-5.17433e-06
2	0	0	1	0	190.175	0.272655	0.27263	-0.0184645	2	0.00010606	41	39.0195	-5.03399e-06
2	0	0	1	0	190.675	0.282649	0.282896	-0.0172429	2	9.71604e-05	41	39.5192	-4.87796e-06
2	0	0	1	0	191.175	0.292645	0.293071	-0.0160079	2	8.88809e-05	41	40.019	-4.69144e-06
2	0	0	1	0	191.675	0.302641	0.302645	-0.0147094	2	8.1231e-05	41	40.5188	-4.45173e-06
2	0	0	1	0	192.174	0.312636	0.312746	-0.0134492	2	7.42207e-05	41	41.0185	-4.20616e-06
2	0	0	1	0	192.674	0.322631	0.322866	-0.0121774	2	6.78506e-05	41	41.5183	-3.93166e-06
2	0	0	1	0	193.174	0.332626	0.332727	-0.0108538	2	6.21224e-05	41	42.0181	-3.61135e-06
2	0	0	1	0	193.674	0.342622	0.342716	-0.00959295	2	5.70357e-05	41	42.5178	-3.28766e-06
2	0	0	1	0	194.173	0.352617	0.352729	-0.00831976	2	5.25849e-05	41	43.0176	-2.93462e-06
2	0	0	1	0	194.673	0.362613	0.363021	-0.00710702	2	4.87687e-05	41	43.5174	-2.58e-06
2	0	0	1	0	195.173	0.372607	0.372617	-0.00578714	2	4.55861e-05	41	44.0171	-2.15639e-06
2	0	0	1	0	195.673	0.382603	0.382994	-0.00454375	2	4.30339e-05	41	44.5169	-1.74023e-06
2	0	0	1	0	196.202	0.393198	0.393385	-0.00311345	2	4.10243e-05	42	45.0466	-1.22478e-06
2	0	0	1	0	196.702	0.403193	0.403383	-0.00179818	2	3.97987e-05	42	45.5464	-7.25355e-07
2	0	0	1	0	197.202	0.413189	0.413474	-0.000429345	2	3.92421e-05	42	46.0462	-1.77523e-07
2	1	0	1	0	197.747	0.424083	0.424277	0.00106367	2	3.94256e-05	43	0.3648	4.51293e-07
2	1	0	1	0	198.261	0.434378	0.434393	0.00271795	2	4.04124e-05	42	0.8795	1.18066e-06
2	1	0	1	0	198.761	0.444373	0.444579	0.00438424	2	4.21844e-05	42	1.3793	1.94914e-06
2	1	0	1	0	199.261	0.454369	0.454648	0.00621137	2	4.48278e-05	42	1.8791	2.82399e-06
2	1	0	1	0	199.761	0.464364	0.464327	0.00822558	2	4.84286e-05	42	2.3788	3.81936e-06
2	1	0	1	0	200.228	0.473709	0.473747	0.0103103	3	5.27532e-05	42	2.8461	4.88446e-06
2	1	0	1	0	200.758	0.484304	0.484609	0.0128631	3	5.88996e-05	41	3.3759	6.23358e-06
2	1	0	1	0	201.257	0.4943	0.49436	0.0156495	3	6.60467e-05	41	3.8756	7.73649e-06
2	1	0	1	0	201.757	0.504295	0.50446	0.0186891	3	7.46545e-05	41	4.3754	9.42791e-06
2	1	0	1	0	202.257	0.51429	0.514596	0.0220791	3	8.48766e-05	41	4.8751	1.13618e-05
2	1	0	1	0	202.757	0.524285	0.524586	0.0258374	3	9.68877e-05	41	5.3749	1.35539e-05
2	1	0	1	0	203.257	0.534281	0.534448	0.0299325	3	0.000110861	41	5.8747	1.59974e-05
2	1	0	1	0	203.756	0.544276	0.544401	0.0343996	3	0.000126975	41	6.3744	1.87272e-05
2	1	0	1	0	204.256	0.554271	0.554573	0.0392105	3	0.000145411	41	6.8742	2.17451e-05
2	1	0	1	0	204.756	0.564264	0.564259	0.044331	3	0.000166327	41	7.3739	2.50141e-05
2	1	0	1	0	205.256	0.574262	0.574307	0.0497228	3	0.000189877	41	7.8737	2.85562e-05
2	1	0	1	0	205.755	0.584257	0.584431	0.0552583	3	0.000216156	41	8.3735	3.22947e-05
2	1	0	1	0	206.255	0.594252	0.594246	0.0608237	3	0.00024521	41	8.8732	3.61442e-05
2	1	0	1	0	206.755	0.604247	0.604465	0.0662671	3	0.000277034	41	9.373	4.00561e-05
2	1	0	1	0	207.255	0.614243	0.614221	0.0714441	3	0.000311515	41	9.8728	4.38825e-05
2	1	0	1	0	207.754	0.624238	0.624317	0.0760697	3	0.000348449	41	10.3725	4.74916e-05
2	1	0	1	0	208.254	0.634233	0.634376	0.0800701	3	0.000387557	41	10.8723	5.07945e-05
2	1	0	1	0	208.754	0.644228	0.644212	0.0831977	3	0.00042845	41	11.3721	5.35969e-05
2	1	0	1	0	209.254	0.654223	0.654682	0.0853968	3	0.000470681	41	11.8718	5.59078e-05
2	1	0	1	0	209.753	0.664219	0.664501	0.086718	3	0.000513797	41	12.3716	5.76242e-05
2	1	0	1	0	210.253	0.674214	0.674392	0.0871615	3	0.000557329	41	12.8713	5.87811e-05
2	1	0	1	0	210.753	0.684209	0.684164	0.0867926	3	0.000600879	41	13.3711	5.93804e-05
2	1	0	1	0	211.253	0.694205	0.69417	0.0857882	3	0.00064408	41	13.8709	5.95516e-05
2	1	0	1	0	211.752	0.7042	0.704289	0.0842727	3	0.000686642	41	14.3706	5.93524e-05
2	1	0	1	0	212.252	0.714195	0.714253	0.0824104	3	0.000728371	41	14.8704	5.88619e-05
2	1	0	1	0	212.752	0.72419	0.724363	0.0802851	3	0.000769099	41	15.3702	5.81555e-05
2	1	0	1	0	213.252	0.734185	0.734315	0.0780125	3	0.000808718	41	15.8699	5.72858e-05
2	1	0	1	0	213.752	0.744181	0.744272	0.0756603	3	0.00084718	41	16.3697	5.63118e-05
2	1	0	1	0	214.251	0.754176	0.754507	0.0732629	3	0.000884446	41	16.8694	5.52774e-05
2	1	0	1	0	214.751	0.764171	0.764327	0.0709258	3	0.000920534	41	17.3692	5.42106e-05
2	1	0	1	0	215.251	0.774167	0.774623	0.0686006	3	0.000955453	41	17.869	5.31396e-05
2	1	0	1	0	215.751	0.784162	0.784698	0.0663325	3	0.000989229	41	18.3687	5.2051e-05
2	1	0	1	0	216.25	0.794157	0.794278	0.0642243	3	0.00102192	41	18.8685	5.1012e-05
2	1	0	1	0	216.75	0.804152	0.80417	0.062199	3	0.00105358	41	19.3683	5.00186e-05
2	1	0	1	0	217.25	0.814147	0.814254	0.0602862	3	0.00108424	41	19.868	4.90883e-05
2	1	0	1	0	217.75	0.824143	0.82424	0.058487	3	0.00111399	41	20.3678	4.82073e-05
2	1	0	1	0	218.249	0.834138	0.834316	0.0568355	3	0.00114286	41	20.8675	4.74188e-05
2	1	0	1	0	218.749	0.844133	0.844519	0.0552754	3	0.00117093	41	21.3673	4.66811e-05
2	1	0	1	0	219.249	0.854128	0.85425	0.0538257	3	0.00119825	41	21.8671	4.59807e-05
2	1	0	1	0	219.749	0.864124	0.864241	0.052456	3	0.00122486	41	22.3668	4.53347e-05
2	1	0	1	0	220.248	0.874119	0.874004	0.0512027	3	0.00125083	41	22.8666	4.47513e-05
2	1	0	1	0	220.748	0.884112	0.884162	0.0500324	3	0.00127619	41	23.3663	4.42367e-05
2	1	0	1	0	221.248	0.894109	0.894034	0.0489436	3	0.001301	41	23.8661	4.37572e-05
2	1	0	1	0	221.748	0.904105	0.904313	0.0479374	3	0.00132527	41	24.3659	4.33505e-05
2	1	0	1	0	222.247	0.9141	0.914262	0.0470062	3	0.00134905	41	24.8656	4.2976e-05
2	1	0	1	0	222.747	0.924095	0.924048	0.046137	3	0.00137238	41	25.3654	4.26328e-05
2	1	0	1	0	223.247	0.93409	0.934166	0.0453166	3	0.00139529	41	25.8652	4.23332e-05
2	1	0	1	0	223.747	0.944086	0.944058	0.0445246	3	0.00141779	41	26.3649	4.20338e-05
2	1	0	1	0	224.247	0.954081	0.954046	0.0438259	3	0.00143994	41	26.8647	4.18119e-05
2	1	0	1	0	224.746	0.964077	0.964049	0.0431854	3	0.00146174	41	27.3645	4.16329e-05
2	1	0	1	0	225.246	0.974071	0.974326	0.0425512	3	0.00148322	41	27.8642	4.14588e-05
2	1	0	1	0	225.746	0.984067	0.984141	0.0420254	3	0.00150442	41	28.364	4.13589e-05
2	1	0	1	0	226.246	0.994062	0.994108	0.0415384	3	0.00152535	41	28.8637	4.12936e-05
2	1	0	1	0	226.706	0.996711	0.996718	0.0404537	3	0.00154431	41	29.3239	4.03209e-05
2	1	0	1	0	227.206	0.986715	0.98682	0.0392811	3	0.00156415	41	29.8237	3.87634e-05
2	1	0	1	0	227.705	0.976718	0.976721	0.0383894	3	0.00158347	41	30.3235	3.74957e-05
2	1	0	1	0	228.205	0.966725	0.966777	0.0376611	3	0.0016024	41	30.8232	3.64099e-05
2	1	0	1	0	228.705	0.95673	0.956811	0.0369724	3	0.00162097	41	31.323	3.53756e-05
2	1	0	1	0	229.205	0.946734	0.946817	0.03637	3	0.00163923	41	31.8227	3.44358e-05
2	1	0	1	0	229.704	0.936739	0.93701	0.035831	3	0.0016572	41	32.3225	3.3574e-05
2	1	0	1	0	230.204	0.926744	0.926721	0.0353304	3	0.0016749	41	32.8223	3.27414e-05
2	1	0	1	0	230.704	0.916749	0.917051	0.0348117	3	0.00169234	41	33.322	3.19241e-05
2	1	0	1	0	231.204	0.906753	0.906934	0.0343668	3	0.00170954	41	33.8218	3.11684e-05
2	1	0	1	0	231.703	0.896758	0.896962	0.0338663	3	0.0017265	41	34.3215	3.03767e-05
2	1	0	1	0	232.203	0.886763	0.886882	0.0334154	3	0.00174324	41	34.8213	2.96355e-05
2	1	0	1	0	232.703	0.876768	0.877105	0.0329657	3	0.00175974	41	35.3211	2.89144e-05
2	1	0	1	0	233.203	0.866772	0.866848	0.0325186	3	0.00177601	41	35.8208	2.81887e-05
2	1	0	1	0	233.702	0.856777	0.85674	0.0320754	3	0.00179207	41	36.3206	2.74803e-05
2	1	0	1	0	234.202	0.846782	0.847129	0.031609	3	0.0018079	41	36.8204	2.67768e-05
2	1	0	1	0	234.702	0.836787	0.836903	0.0311736	3	0.00182349	41	37.3201	2.60893e-05
2	1	0	1	0	235.202	0.826791	0.827039	0.0306661	3	0.00183885	41	37.8199	2.53621e-05
2	1	0	1	0	235.701	0.816796	0.816658	0.0301688	3	0.00185397	41	38.3196	2.46376e-05
2	1	0	1	0	236.201	0.806801	0.806966	0.0296543	3	0.00186884	41	38.8194	2.393e-05
2	1	0	1	0	236.701	0.796806	0.796863	0.0291418	3	0.00188345	41	39.3192	2.3222e-05
2	1	0	1	0	237.201	0.78681	0.786942	0.0285594	3	0.00189778	41	39.8189	2.24746e-05
2	1	0	1	0	237.701	0.776815	0.776723	0.0280048	3	0.00191183	41	40.3187	2.1752e-05
2	1	0	1	0	238.2	0.76682	0.767007	0.0273599	3	0.00192557	41	40.8185	2.09852e-05
2	1	0	1	0	238.7	0.756825	0.756946	0.0267335	3	0.001939	41	41.3182	2.02358e-05
2	1	0	1	0	239.2	0.74683	0.746835	0.0260404	3	0.00195209	41	41.818	1.94479e-05
2	1	0	1	0	239.7	0.736834	0.737052	0.0253451	3	0.00196484	41	42.3177	1.86807e-05
2	1	0	1	0	240.199	0.726839	0.726998	0.0245943	3	0.00197722	41	42.8175	1.788e-05
2	1	0	1	0	240.699	0.716844	0.717033	0.0237993	3	0.00198922	41	43.3173	1.70649e-05
2	1	0	1	0	241.199	0.706848	0.706986	0.0229888	3	0.00200082	41	43.817	1.62527e-05
2	1	0	1	0	241.699	0.696853	0.697155	0.0220988	3	0.002012	41	44.3168	1.54063e-05
2	1	0	1	0	242.198	0.686858	0.687008	0.0211963	3	0.00202274	41	44.8166	1.4562e-05
2	1	0	1	0	242.698	0.676863	0.67708	0.0201981	3	0.00203301	41	45.3163	1.36757e-05
2	1	0	1	0	243.198	0.666867	0.667136	0.0192073	3	0.00204277	41	45.8161	1.28139e-05
2	1	0	1	0	243.698	0.65687	0.657137	0.0180995	3	0.00205201	41	46.3159	1.18939e-05
2	1	0	1	0	244.197	0.646877	0.646939	0.0169881	3	0.0020607	41	46.8156	1.09903e-05
2	1	0	1	0	244.697	0.636882	0.636963	0.0157966	3	0.00206881	41	47.3154	1.00619e-05
2	1	0	1	0	245.197	0.626886	0.626997	0.0145784	3	0.00207633	41	47.8151	9.14063e-06
2	1	0	1	0	245.697	0.616891	0.617048	0.0133649	3	0.00208324	41	48.3149	8.24677e-06
2	1	0	1	0	246.197	0.606896	0.607036	0.0121505	3	0.00208953	41	48.8147	7.37576e-06
2	1	0	1	0	246.696	0.596901	0.596944	0.0109219	3	0.00209522	41	49.3144	6.51979e-06
2	1	0	1	0	247.196	0.586906	0.586991	0.00972208	3	0.0021003	41	49.8142	5.70678e-06
2	1	0	1	0	247.696	0.57691	0.577085	0.00850727	3	0.00210478	41	50.3139	4.90942e-06
2	1	0	1	0	248.196	0.566915	0.566968	0.00732491	3	0.00210867	41	50.8137	4.15299e-06
2	1	0	1	0	248.695	0.55692	0.557096	0.0061569	3	0.00211197	41	51.3135	3.42999e-06
2	1	0	1	0	249.195	0.546925	0.54723	0.00496539	3	0.00211468	41	51.8132	2.71721e-06
2	1	0	1	0	249.725	0.53633	0.536479	0.00356572	3	0.00211691	42	52.343	1.91293e-06
2	1	0	1	0	250.225	0.526334	0.526581	0.00233602	3	0.00211838	42	52.8427	1.2301e-06
2	1	0	1	0	250.724	0.516339	0.516548	0.00105464	3	0.00211923	42	53.3425	5.44775e-07
2	0	0	1	0	251.254	0.505743	0.505782	-0.000365322	3	0.00211942	43	0.1	-1.84773e-07
2	0	0	1	0	251.784	0.495149	0.495696	-0.00190315	3	0.00211883	42	0.6297	-9.43385e-07
2	0	0	1	0	252.284	0.485154	0.48551	-0.00347199	3	0.00211749	42	1.1295	-1.68568e-06
2	0	0	1	0	252.783	0.475159	0.475393	-0.00519111	3	0.00211533	42	1.6292	-2.46782e-06
2	0	0	1	0	253.283	0.465163	0.464995	-0.00708472	3	0.00211226	42	2.129	-3.29436e-06
2	0	0	1	0	253.783	0.455167	0.455163	-0.00918157	3	0.00210821	42	2.6288	-4.17912e-06
2	0	0	1	0	254.313	0.444573	0.44481	-0.0116034	3	0.0021027	41	3.1585	-5.16131e-06
2	0	0	1	0	254.812	0.434578	0.434579	-0.0142455	3	0.00209622	41	3.6583	-6.19081e-06
2	0	0	1	0	255.312	0.424583	0.424761	-0.0171608	3	0.00208834	41	4.158	-7.28922e-06
2	0	0	1	0	255.812	0.414587	0.414722	-0.0204841	3	0.00207891	41	4.6578	-8.49521e-06
2	0	0	1	0	256.312	0.40459	0.404761	-0.0241581	3	0.00206774	41	5.1576	-9.77825e-06
2	0	0	1	0	256.811	0.394597	0.394703	-0.0282294	3	0.00205463	41	5.6573	-1.11422e-05
2	0	0	1	0	257.311	0.384602	0.384551	-0.0326767	3	0.00203939	41	6.1571	-1.25659e-05
2	0	0	1	0	257.811	0.374607	0.374776	-0.0375786	3	0.00202182	41	6.6568	-1.40836e-05
2	0	0	1	0	258.311	0.364611	0.365089	-0.0428292	3	0.00200171	41	7.1566	-1.56365e-05
2	0	0	1	0	258.811	0.354616	0.354814	-0.0483744	3	0.0019789	41	7.6564	-1.71639e-05
2	0	0	1	0	259.31	0.344621	0.344531	-0.0540998	3	0.00195327	41	8.1561	-1.8639e-05
2	0	0	1	0	259.81	0.334626	0.335075	-0.0599379	3	0.00192474	41	8.6559	-2.00837e-05
2	0	0	1	0	260.31	0.324631	0.324671	-0.0656656	3	0.00189332	41	9.1556	-2.13198e-05
2	0	0	1	0	260.81	0.314635	0.314853	-0.0711906	3	0.00185907	41	9.6554	-2.24146e-05
2	0	0	1	0	261.309	0.30464	0.304744	-0.0762257	3	0.00182219	41	10.1552	-2.32293e-05
2	0	0	1	0	261.809	0.294645	0.294711	-0.0806325	3	0.00178294	41	10.6549	-2.37633e-05
2	0	0	1	0	262.309	0.284649	0.284678	-0.0842218	3	0.00174167	41	11.1547	-2.39761e-05
2	0	0	1	0	262.809	0.274654	0.274704	-0.0868813	3	0.00169884	41	11.6545	-2.38667e-05
2	0	0	1	0	263.308	0.264659	0.265064	-0.0885988	3	0.00165492	41	12.1542	-2.34843e-05
2	0	0	1	0	263.808	0.254664	0.254844	-0.0893416	3	0.00161039	41	12.654	-2.27681e-05
2	0	0	1	0	264.308	0.244667	0.244915	-0.0891316	3	0.00156573	41	13.1538	-2.18296e-05
2	0	0	1	0	264.808	0.234673	0.234769	-0.0881397	3	0.00152138	41	13.6535	-2.06925e-05
2	0	0	1	0	265.307	0.224678	0.2249	-0.0864648	3	0.00147769	41	14.1533	-1.94459e-05
2	0	0	1	0	265.807	0.214683	0.214785	-0.0843259	3	0.00143497	41	14.653	-1.81119e-05
2	0	0	1	0	266.307	0.204687	0.204837	-0.081839	3	0.0013934	41	15.1528	-1.67637e-05
2	0	0	1	0	266.807	0.194692	0.194902	-0.0791715	3	0.00135312	41	15.6526	-1.54306e-05
2	0	0	1	0	267.306	0.184697	0.184929	-0.0764032	3	0.00131422	41	16.1523	-1.41292e-05
2	0	0	1	0	267.806	0.174702	0.174739	-0.0736723	3	0.00127669	41	16.6521	-1.28734e-05
2	0	0	1	0	268.306	0.164706	0.164957	-0.070966	3	0.00124053	41	17.1518	-1.17064e-05
2	0	0	1	0	268.806	0.154711	0.154891	-0.068394	3	0.00120567	41	17.6516	-1.05936e-05
2	0	0	1	0	269.306	0.144716	0.144878	-0.0659477	3	0.00117207	41	18.1514	-9.55438e-06
2	0	0	1	0	269.805	0.134721	0.134929	-0.0636513	3	0.00113967	41	18.6511	-8.5884e-06
2	0	0	1	0	270.305	0.124725	0.125215	-0.0615233	3	0.00110837	41	19.1509	-7.70366e-06
2	0	0	1	0	270.805	0.11473	0.115	-0.0594584	3	0.00107811	41	19.6507	-6.8377e-06
2	0	0	1	0	271.305	0.104735	0.104715	-0.057602	3	0.00104882	41	20.1504	-6.03183e-06
2	0	0	1	0	271.804	0.0947396	0.0949823	-0.055862	3	0.00102043	41	20.6502	-5.3059e-06
2	0	0	1	0	272.304	0.0847444	0.0848238	-0.0542707	3	0.00099288	41	21.1499	-4.60344e-06
2	0	0	1	0	272.804	0.0747491	0.0747826	-0.0527476	3	0.000966102	41	21.6497	-3.9446e-06
2	0	0	1	0	273.304	0.0647539	0.0649804	-0.0513511	3	0.000940049	41	22.1495	-3.33682e-06
2	0	0	1	0	273.803	0.0547586	0.0548756	-0.0500499	3	0.000914675	41	22.6492	-2.74652e-06
2	0	0	1	0	274.303	0.0447634	0.0450179	-0.0488546	3	0.000889925	41	23.149	-2.19933e-06
2	0	0	1	0	274.803	0.0347681	0.0349856	-0.0477236	3	0.000865761	41	23.6488	-1.66964e-06
2	0	0	1	0	275.303	0.0247729	0.0250075	-0.0466812	3	0.000842148	41	24.1485	-1.16738e-06
2	0	0	1	0	275.802	0.0147776	0.0151101	-0.0456515	3	0.000819046	41	24.6483	-6.89797e-07
2	0	0	1	0	276.302	0.0047824	0.00497382	-0.044763	3	0.000796424	41	25.148	-2.22643e-07
2	0	0	1	1	276.78	0.0047824	0.00519238	-0.0428667	3	0.000775421	41	25.6259	-2.22581e-07
2	0	0	1	1	277.28	0.0147776	0.0151306	-0.0413871	3	0.000754421	41	26.1256	-6.2621e-07
2	0	0	1	1	277.78	0.0247729	0.025017	-0.0402616	3	0.000734056	41	26.6254	-1.00723e-06
2	0	0	1	1	278.279	0.0347681	0.0350295	-0.0392594	3	0.000714231	41	27.1251	-1.37524e-06
2	0	0	1	1	278.779	0.0447634	0.0449785	-0.0383062	3	0.000694884	41	27.6249	-1.72295e-06
2	0	0	1	1	279.279	0.0547586	0.0550714	-0.037456	3	0.000675983	41	28.1247	-2.06276e-06
2	0	0	1	1	279.779	0.0647539	0.0650145	-0.0366406	3	0.000657507	41	28.6244	-2.38217e-06
2	0	0	1	1	280.278	0.0747491	0.0749418	-0.0358683	3	0.000639427	41	29.1242	-2.68803e-06
2	0	0	1	1	280.778	0.0847444	0.0848845	-0.0351135	3	0.000621727	41	29.624	-2.98059e-06
2	0	0	1	1	281.278	0.0947396	0.094932	-0.0343686	3	0.000604403	41	30.1237	-3.26268e-06
2	0	0	1	1	281.778	0.104735	0.10501	-0.0336545	3	0.000587439	41	30.6235	-3.53405e-06
2	0	0	1	1	282.277	0.11473	0.114711	-0.0329312	3	0.000570838	41	31.1232	-3.77758e-06
2	0	0	1	1	282.777	0.124725	0.124931	-0.0322287	3	0.000554588	41	31.623	-4.02638e-06
2	0	0	1	1	283.277	0.134721	0.134795	-0.0314908	3	0.000538697	41	32.1228	-4.2448e-06
2	0	0	1	1	283.777	0.144716	0.145149	-0.0307729	3	0.000523171	41	32.6225	-4.46666e-06
2	0	0	1	1	284.276	0.154711	0.154764	-0.0300112	3	0.000508012	41	33.1223	-4.64465e-06
2	0	0	1	1	284.776	0.164705	0.164764	-0.0292965	3	0.000493231	41	33.622	-4.82701e-06
2	0	0	1	1	285.276	0.174702	0.175221	-0.0284917	3	0.000478834	41	34.1218	-4.99233e-06
2	0	0	1	1	285.776	0.184697	0.184693	-0.02765	3	0.000464841	41	34.6216	-5.10675e-06
2	0	0	1	1	286.275	0.194692	0.194867	-0.0267882	3	0.00045127	41	35.1213	-5.22014e-06
2	0	0	1	1	286.775	0.204687	0.20501	-0.0259032	3	0.000438135	41	35.6211	-5.31042e-06
2	0	0	1	1	287.275	0.214683	0.214961	-0.024945	3	0.000425462	41	36.1209	-5.36219e-06
2	0	0	1	1	287.775	0.224678	0.224775	-0.0239482	3	0.000413275	41	36.6206	-5.38296e-06
2	0	0	1	1	288.275	0.234673	0.234925	-0.0229168	3	0.000401594	41	37.1204	-5.38374e-06
2	0	0	1	1	288.774	0.244669	0.244794	-0.0218177	3	0.000390445	41	37.6202	-5.34084e-06
2	0	0	1	1	289.274	0.254664	0.254847	-0.0206944	3	0.000379853	41	38.1199	-5.2739e-06
2	0	0	1	1	289.774	0.264659	0.264776	-0.0195129	3	0.000369835	41	38.6197	-5.16653e-06
2	0	0	1	1	290.274	0.274654	0.275063	-0.0183208	3	0.000360411	41	39.1194	-5.03938e-06
2	0	0	1	1	290.773	0.284649	0.2848	-0.0170652	3	0.000351597	41	39.6192	-4.86018e-06
2	0	0	1	1	291.273	0.294644	0.294567	-0.0157932	3	0.000343404	41	40.119	-4.65214e-06
2	0	0	1	1	291.773	0.30464	0.304958	-0.0145552	3	0.000335846	41	40.6187	-4.43872e-06
2	0	0	1	1	292.273	0.314635	0.3148	-0.0132413	3	0.000328929	41	41.1185	-4.16837e-06
2	0	0	1	1	292.772	0.324629	0.324897	-0.0119617	3	0.000322655	41	41.6182	-3.88633e-06
2	0	0	1	1	293.272	0.334626	0.334952	-0.0106914	3	0.000317023	41	42.118	-3.5811e-06
2	0	0	1	1	293.772	0.344621	0.344947	-0.00940978	3	0.000312032	41	42.6178	-3.24588e-06
2	0	0	1	1	294.272	0.354616	0.354783	-0.00812651	3	0.000307683	41	43.1175	-2.88315e-06
2	0	0	1	1	294.771	0.364611	0.364751	-0.0068725	3	0.000303969	41	43.6173	-2.50675e-06
2	0	0	1	1	295.271	0.374607	0.374904	-0.00558768	3	0.00030089	41	44.1171	-2.09484e-06
2	0	0	1	1	295.801	0.385201	0.385329	-0.00417205	3	0.000298323	42	44.6468	-1.60762e-06
2	0	0	1	1	296.301	0.395197	0.395405	-0.00287064	3	0.000296564	42	45.1466	-1.13507e-06
2	0	0	1	1	296.8	0.405192	0.405368	-0.00154353	3	0.000295462	42	45.6463	-6.25698e-07
2	0	0	1	1	297.33	0.415787	0.416041	-5.49588e-05	3	0.000295033	43	46.1761	-2.28651e-08
2	1	0	1	1	297.86	0.426382	0.426682	0.00149504	3	0.000295406	42	0.4797	6.37908e-07
2	1	0	1	1	298.36	0.436377	0.436486	0.00307661	3	0.000296546	42	0.9795	1.3429e-06
2	1	0	1	1	298.86	0.446372	0.446479	0.00479461	3	0.000298508	42	1.4793	2.14069e-06
2	1	0	1	1	299.359	0.456368	0.456439	0.00666739	3	0.000301365	42	1.979	3.04326e-06
2	1	0	1	1	299.859	0.466363	0.466443	0.0087421	3	0.00030521	42	2.4788	4.07769e-06
2	1	0	0	1	299.936	0.467937	0.46798	0.00910503	3	0.000305892	42	2.5553	4.26097e-06