File: Python/Data/RDE/240222-EIS-Fe2Fe3_5mM-HCl1M-0RPM-Ag_AgCl_BLF8-GC-RDE-5mVAmplitude_C15.mpt
EC-Lab ASCII FILE
Nb header lines : 66

Potentio Electrochemical Impedance Spectroscopy

Run on channel : 15 (SN 19485)
User :
Electrode connection : standard
Potential control : Ewe
Ewe ctrl range : min = -1.00 V, max = 1.00 V
Ewe,I filtering : <None>
Safety Limits :
	Do not start on E overload
Channel : Floating
Acquisition started on : 02/22/2024 15:05:17.607
Loaded Setting File :  NONE
Saved on :
	File : 240222-EIS-Fe2Fe3_5mM-HCl1M-0RPM-Ag_AgCl_BLF8-GC-RDE-5mVAmplitude_C15.mpr
	Directory : C:\Data\mathias\RDE-RPM-variation\
	Host : 192.168.0.1
Device : VMP-300 (SN 0826)
Address : USB
EC-Lab for windows v11.52 (software)
Internet server v11.52 (firmware)
Command interpretor v11.52 (firmware)
Electrode material :
Initial state :
Electrolyte :
Comments :
Cable : special
Electrode surface area : 0.001 cm²
Characteristic mass : 0.001 g
Equivalent Weight : 0.000 g/eq.
Density : 0.000 g/cm3
Volume (V) : 0.001 cm³
Record EIS quality indicators
Cycle Definition : Charge/Discharge alternance
Mode                Single sine
E (V)               0.0000
vs.                 Ref
tE (h:m:s)          0:01:0.0000
record              0
dI                  0.000
unit dI             mA
dt (s)              0.000
fi                  400.000
unit fi             kHz
ff                  100.000
unit ff             mHz
Nd                  10
Points              per decade
spacing             Logarithmic
Va (mV)             5.0
pw                  0.10
Na                  3
corr                0
E range min (V)     -1.000
E range max (V)     1.000
I Range             Auto
Bandwidth           8
nc cycles           2
goto Ns'            0
nr cycles           0
inc. cycle          1

freq/Hz	Re(Z)/Ohm	-Im(Z)/Ohm	|Z|/Ohm	Phase(Z)/deg	time/s	<Ewe>/V	<I>/mA	Cs/µF	Cp/µF	cycle number	I Range	|Ewe|/V	|I|/A	Ns	(Q-Qo)/mA.h	THD Ewe/%	NSD Ewe/%	NSR Ewe/%	|Ewe h2|/V	|Ewe h3|/V	|Ewe h4|/V	|Ewe h5|/V	|Ewe h6|/V	|Ewe h7|/V	THD I/%	NSD I/%	NSR I/%	|I h2|/A	|I h3|/A	|I h4|/A	|I h5|/A	|I h6|/A	|I h7|/A	Re(Y)/Ohm-1	Im(Y)/Ohm-1	|Y|/Ohm-1	Phase(Y)/deg	Re(C)/nF	Im(C)/nF	|C|/nF	Phase(C)/deg	Re(M)	Im(M)	|M|	Phase(M)/deg	Re(Permittivity)	Im(Permittivity)	|Permittivity|	Phase(Permittivity)/deg	Re(Resistivity)/Ohm.cm	Im(Resistivity)/Ohm.cm	|Resistivity|/Ohm.cm	Phase(Resistivity)/deg	Re(Conductivity)/mS/cm	Im(Conductivity)/mS/cm	|Conductivity|/mS/cm	Phase(Conductivity)/deg	Tan(Delta)	Loss Angle(Delta)/deg	dq/mA.h
399996	3.66247	1.5685	3.98421	-23.1836	62.9965	-0.000148684	-0.0301748	0.253677	0.0393155	1	38	0.00467674	0.00117382	0	-0.000608384	-1	-1	-1	0	0	0	0	0	0	-1	-1	-1	0	0	0	0	0	0	0.230723	0.0988098	0.250991	23.1836	39.3155	91.8026	99.8671	-66.8164	0.0000000E+000	0.0000000E+000	0.0000000E+000	66.8164	0.0000000E+000	0.0000000E+000	0.0000000E+000	-66.8164	0.0000000E+000	0.0000000E+000	0.0000000E+000	-23.1836	0.0000000E+000	0.0000000E+000	0.0000000E+000	23.1836	2.33502	66.8164	-0.000608384
200434	3.54723	0.921649	3.665	-14.5647	66.4375	-0.00017014	-0.0302884	0.861554	0.0544836	1	38	0.00513238	0.00140038	0	-0.000637114	-1	-1	-1	0	0	0	0	0	0	-1	-1	-1	0	0	0	0	0	0	0.264083	0.0686147	0.272851	14.5647	54.4836	209.695	216.658	-75.4353	0.0000000E+000	0.0000000E+000	0.0000000E+000	75.4353	0.0000000E+000	0.0000000E+000	0.0000000E+000	-75.4353	0.0000000E+000	0.0000000E+000	0.0000000E+000	-14.5647	0.0000000E+000	0.0000000E+000	0.0000000E+000	14.5647	3.84878	75.4353	-1.07451e-05
100431	3.54259	0.829934	3.6385	-13.1851	69.8795	-0.000163187	-0.0306068	1.90946	0.0993465	1	38	0.00512539	0.00140865	0	-0.000668368	1.03506	0.834496	26.1823	2.49447e-05	1.60192e-05	1.88278e-05	2.55378e-05	1.38509e-05	1.81429e-05	0.0964492	0.0717538	2.01046	5.49853e-07	6.81797e-07	4.05357e-07	3.10041e-07	5.21054e-07	4.69223e-07	0.267593	0.06269	0.274838	13.1851	99.3465	424.062	435.544	-76.8149	0.0000000E+000	0.0000000E+000	0.0000000E+000	76.8149	0.0000000E+000	0.0000000E+000	0.0000000E+000	-76.8149	0.0000000E+000	0.0000000E+000	0.0000000E+000	-13.1851	0.0000000E+000	0.0000000E+000	0.0000000E+000	13.1851	4.26852	76.8149	-8.75318e-06
50326.6	3.63226	1.10025	3.79524	-16.8521	73.3195	-0.000152524	-0.0306924	2.8743	0.241565	1	38	0.00518749	0.00136684	0	-0.000695787	1.20486	1.11165	25.8178	1.42336e-05	1.8455e-05	1.69994e-05	2.91492e-05	2.9237e-05	2.15927e-05	0.119546	0.103934	2.08402	9.6327e-07	6.76185e-07	4.69877e-07	5.55065e-07	5.85527e-07	3.53297e-07	0.252173	0.0763856	0.263488	16.8521	241.565	797.481	833.265	-73.1479	0.0000000E+000	0.0000000E+000	0.0000000E+000	73.1479	0.0000000E+000	0.0000000E+000	0.0000000E+000	-73.1479	0.0000000E+000	0.0000000E+000	0.0000000E+000	-16.8521	0.0000000E+000	0.0000000E+000	0.0000000E+000	16.8521	3.30131	73.1479	-1.03594e-05
25219	3.73885	1.83701	4.16577	-26.1663	76.7605	-0.000165927	-0.0301934	3.43542	0.668059	1	38	0.00520077	0.00124845	0	-0.000726386	1.24698	0.856277	25.4739	2.87701e-05	1.86604e-05	2.78763e-05	2.2634e-05	2.69161e-05	2.81451e-05	0.127294	0.0787604	2.26929	7.98151e-07	7.08039e-07	5.53126e-07	6.33974e-07	4.80228e-07	5.32528e-07	0.215451	0.105858	0.240052	26.1663	668.059	1359.69	1514.95	-63.8337	0.0000000E+000	0.0000000E+000	0.0000000E+000	63.8337	0.0000000E+000	0.0000000E+000	0.0000000E+000	-63.8337	0.0000000E+000	0.0000000E+000	0.0000000E+000	-26.1663	0.0000000E+000	0.0000000E+000	0.0000000E+000	26.1663	2.03529	63.8337	-8.76541e-06
12637.3	3.92819	3.32018	5.14337	-40.2051	80.2005	-0.000142831	-0.0298043	3.79318	1.58063	1	38	0.00526808	0.00102425	0	-0.000759127	1.11205	1.00623	25.2585	2.53262e-05	2.11867e-05	2.90096e-05	1.70802e-05	1.34073e-05	2.27685e-05	0.168484	0.121406	2.78683	7.40538e-07	4.08401e-07	7.48534e-07	3.07464e-07	5.51476e-07	8.90593e-07	0.14849	0.125506	0.194425	40.2051	1580.63	1870.09	2448.6	-49.7949	0.0000000E+000	0.0000000E+000	0.0000000E+000	49.7949	0.0000000E+000	0.0000000E+000	0.0000000E+000	-49.7949	0.0000000E+000	0.0000000E+000	0.0000000E+000	-40.2051	0.0000000E+000	0.0000000E+000	0.0000000E+000	40.2051	1.18313	49.7949	-9.77594e-06
6332.63	4.32251	6.24718	7.5968	-55.3201	83.7599	-0.000261517	-0.0303703	4.02302	2.72056	1	38	0.00502434	0.000661376	0	-0.000787089	1.86891	0.867695	26.4079	3.27209e-05	3.5229e-05	3.68318e-05	3.5927e-05	4.38781e-05	2.38373e-05	0.252334	0.12585	4.37709	6.50405e-07	7.00226e-07	6.89666e-07	7.28684e-07	5.77019e-07	4.96185e-07	0.0748988	0.108249	0.131634	55.3201	2720.56	1882.4	3308.3	-34.6799	0.0000000E+000	0.0000000E+000	0.0000000E+000	34.6799	0.0000000E+000	0.0000000E+000	0.0000000E+000	-34.6799	0.0000000E+000	0.0000000E+000	0.0000000E+000	-55.3201	0.0000000E+000	0.0000000E+000	0.0000000E+000	55.3201	0.691914	34.6799	-1.03855e-05
3171.96	5.13947	11.7176	12.7951	-66.3171	87.314	-0.000255309	-0.0297373	4.28209	3.59121	1	38	0.00497872	0.000389111	0	-0.000816266	1.57608	0.853475	26.8824	2.67136e-05	2.10639e-05	3.76029e-05	3.98279e-05	2.51797e-05	2.31792e-05	0.41303	0.206899	7.44963	5.14397e-07	7.93583e-07	4.53219e-07	6.5804e-07	4.02128e-07	7.11412e-07	0.0313927	0.0715728	0.0781547	66.3171	3591.21	1575.15	3921.46	-23.6829	0.0000000E+000	0.0000000E+000	0.0000000E+000	23.6829	0.0000000E+000	0.0000000E+000	0.0000000E+000	-23.6829	0.0000000E+000	0.0000000E+000	0.0000000E+000	-66.3171	0.0000000E+000	0.0000000E+000	0.0000000E+000	66.3171	0.438613	23.6829	-1.08171e-05
1589.49	7.21284	21.7917	22.9544	-71.6859	90.6328	-0.000253352	-0.0300072	4.59485	4.14116	1	38	0.00459967	0.000200383	0	-0.000843284	1.53369	0.768192	30.1356	2.45739e-05	3.51406e-05	2.71075e-05	2.33871e-05	1.27352e-05	3.05072e-05	0.884471	0.42412	14.517	8.13474e-07	7.06342e-07	6.45524e-07	8.54106e-07	5.82197e-07	4.42482e-07	0.0136891	0.0413581	0.0435647	71.6859	4141.16	1370.69	4362.11	-18.3141	0.0000000E+000	0.0000000E+000	0.0000000E+000	18.3141	0.0000000E+000	0.0000000E+000	0.0000000E+000	-18.3141	0.0000000E+000	0.0000000E+000	0.0000000E+000	-71.6859	0.0000000E+000	0.0000000E+000	0.0000000E+000	71.6859	0.330991	18.3141	-8.75382e-06
796.787	11.5509	40.3801	41.9997	-74.0366	94.2053	-0.000301128	-0.0243154	4.94664	4.57249	1	39	0.00480291	0.000114356	0	-0.000868853	1.58772	0.663945	26.3742	2.44723e-05	3.71647e-05	2.97986e-05	2.22079e-05	3.08905e-05	2.42841e-05	0.776955	0.275726	11.2944	2.16746e-07	6.39593e-07	2.25418e-07	2.94212e-07	1.89042e-07	2.97175e-07	0.00654823	0.0228915	0.0238097	74.0366	4572.49	1307.98	4755.89	-15.9634	0.0000000E+000	0.0000000E+000	0.0000000E+000	15.9634	0.0000000E+000	0.0000000E+000	0.0000000E+000	-15.9634	0.0000000E+000	0.0000000E+000	0.0000000E+000	-74.0366	0.0000000E+000	0.0000000E+000	0.0000000E+000	74.0366	0.286055	15.9634	-7.46154e-06
399.106	20.9096	73.523	76.4385	-74.1245	97.5292	-0.000232419	-0.024092	5.42386	5.018	1	39	0.00456133	5.96732e-05	0	-0.000891031	1.03141	1.12338	27.8737	2.1355e-05	1.65996e-05	1.96359e-05	1.9218e-05	1.43795e-05	1.34991e-05	0.94538	0.691152	21.4606	1.61471e-07	2.01264e-07	1.6916e-07	3.40316e-07	2.06586e-07	1.0348e-07	0.00357866	0.0125834	0.0130824	74.1245	5018	1427.09	5216.99	-15.8755	0.0000000E+000	0.0000000E+000	0.0000000E+000	15.8755	0.0000000E+000	0.0000000E+000	0.0000000E+000	-15.8755	0.0000000E+000	0.0000000E+000	0.0000000E+000	-74.1245	0.0000000E+000	0.0000000E+000	0.0000000E+000	74.1245	0.284395	15.8755	-7.33272e-06
199.936	38.106	128.977	134.489	-73.5404	101.063	-0.000258105	-0.0237563	6.17185	5.67636	1	39	0.00493389	3.66863e-05	0	-0.000914576	1.18468	1.04244	26.0349	1.36265e-05	2.36032e-05	2.26508e-05	2.19551e-05	1.77182e-05	3.45965e-05	1.89762	1.20099	35.328	1.41317e-07	2.66747e-07	2.63953e-07	2.90075e-07	2.7755e-07	3.34913e-07	0.00210679	0.00713086	0.00743557	73.5404	5676.36	1677.07	5918.92	-16.4596	0.0000000E+000	0.0000000E+000	0.0000000E+000	16.4596	0.0000000E+000	0.0000000E+000	0.0000000E+000	-16.4596	0.0000000E+000	0.0000000E+000	0.0000000E+000	-73.5404	0.0000000E+000	0.0000000E+000	0.0000000E+000	73.5404	0.295447	16.4596	-7.27735e-06
100.224	65.4039	226.041	235.313	-73.8625	104.629	-0.000214095	-0.023614	7.02519	6.48248	1	40	0.0050004	2.125e-05	0	-0.000937824	2.71415	1.69916	40.0441	4.83591e-05	3.47724e-05	4.16587e-05	5.73188e-05	8.53672e-05	3.61547e-05	0.814349	0.475985	12.1845	4.71402e-08	8.51219e-08	5.33223e-08	8.36534e-08	8.87319e-08	3.89572e-08	0.00118116	0.0040822	0.00424965	73.8625	6482.48	1875.67	6748.38	-16.1375	0.0000000E+000	0.0000000E+000	0.0000000E+000	16.1375	0.0000000E+000	0.0000000E+000	0.0000000E+000	-16.1375	0.0000000E+000	0.0000000E+000	0.0000000E+000	-73.8625	0.0000000E+000	0.0000000E+000	0.0000000E+000	73.8625	0.289345	16.1375	-8.63354e-06
50.2089	112.105	399.838	415.256	-74.3378	107.858	-0.000250407	-0.0236754	7.92785	7.35006	1	40	0.00494562	1.19098e-05	0	-0.000958734	1.94246	0.964351	39.5526	3.84691e-05	3.90612e-05	4.94283e-05	4.05627e-05	1.68786e-05	2.75368e-05	1.23411	0.619296	21.394	7.0455e-08	5.06515e-08	8.40367e-08	6.07254e-08	1.05044e-08	3.61001e-08	0.000650117	0.00231874	0.00240815	74.3378	7350.06	2060.78	7633.49	-15.6622	0.0000000E+000	0.0000000E+000	0.0000000E+000	15.6622	0.0000000E+000	0.0000000E+000	0.0000000E+000	-15.6622	0.0000000E+000	0.0000000E+000	0.0000000E+000	-74.3378	0.0000000E+000	0.0000000E+000	0.0000000E+000	74.3378	0.280376	15.6622	-6.94667e-06
25.1691	202.22	711.037	739.234	-74.1242	111.035	-0.000256931	-0.0236749	8.89324	8.22774	1	40	0.00493402	6.67451e-06	0	-0.000979468	2.34959	1.40307	40.0976	5.88769e-05	2.2937e-05	4.72877e-05	4.11275e-05	3.73808e-05	5.34992e-05	2.33754	1.48344	38.1083	6.79777e-08	5.02559e-08	5.53465e-08	8.33846e-08	4.22551e-08	5.23255e-08	0.00037005	0.00130115	0.00135275	74.1242	8227.74	2339.98	8554.02	-15.8758	0.0000000E+000	0.0000000E+000	0.0000000E+000	15.8758	0.0000000E+000	0.0000000E+000	0.0000000E+000	-15.8758	0.0000000E+000	0.0000000E+000	0.0000000E+000	-74.1242	0.0000000E+000	0.0000000E+000	0.0000000E+000	74.1242	0.284401	15.8758	-6.94479e-06
12.6144	370.101	1254.69	1308.14	-73.5653	114.603	-0.000251553	-0.0237763	10.0558	9.2509	1	41	0.00493201	3.77025e-06	0	-0.00100255	2.1849	1.19421	35.5425	5.9808e-05	3.84892e-05	3.15338e-05	2.57007e-05	4.23546e-05	4.27236e-05	0.884968	0.275321	8.99627	1.33803e-08	1.29726e-08	1.8945e-08	1.14414e-08	9.5443e-09	7.94918e-09	0.000216278	0.000733211	0.000764444	73.5653	9250.9	2728.77	9644.96	-16.4347	0.0000000E+000	0.0000000E+000	0.0000000E+000	16.4347	0.0000000E+000	0.0000000E+000	0.0000000E+000	-16.4347	0.0000000E+000	0.0000000E+000	0.0000000E+000	-73.5653	0.0000000E+000	0.0000000E+000	0.0000000E+000	73.5653	0.294973	16.4347	-9.28623e-06
6.31569	715.822	2199.05	2312.62	-71.9692	118.251	-0.000254731	-0.0239331	11.4595	10.3616	1	41	0.00491937	2.12718e-06	0	-0.00102651	1.53106	0.820541	36.091	2.82681e-05	3.84529e-05	2.62869e-05	1.62651e-05	2.31168e-05	2.79718e-05	0.783676	0.30767	16.082	5.75885e-09	8.42958e-09	5.44908e-09	9.00017e-09	4.92185e-09	4.32638e-09	0.000133843	0.000411174	0.00043241	71.9692	10361.6	3372.84	10896.7	-18.0308	0.0000000E+000	0.0000000E+000	0.0000000E+000	18.0308	0.0000000E+000	0.0000000E+000	0.0000000E+000	-18.0308	0.0000000E+000	0.0000000E+000	0.0000000E+000	-71.9692	0.0000000E+000	0.0000000E+000	0.0000000E+000	71.9692	0.325514	18.0308	-9.10866e-06
3.16616	1362.81	3762.86	4002.05	-70.091	124.095	-0.000279143	-0.0239747	13.3588	11.8098	1	41	0.00490789	1.22634e-06	0	-0.00106515	1.17132	0.550809	22.5914	1.73219e-05	2.29495e-05	1.81675e-05	2.56551e-05	1.42095e-05	2.39554e-05	1.05788	0.44919	17.7771	3.92437e-09	3.51213e-09	4.16156e-09	8.34151e-09	2.73807e-09	5.12375e-09	8.50882e-05	0.000234938	0.000249872	70.091	11809.8	4277.17	12560.4	-19.909	0.0000000E+000	0.0000000E+000	0.0000000E+000	19.909	0.0000000E+000	0.0000000E+000	0.0000000E+000	-19.909	0.0000000E+000	0.0000000E+000	0.0000000E+000	-70.091	0.0000000E+000	0.0000000E+000	0.0000000E+000	70.091	0.362172	19.909	-1.52711e-05
1.5871	2633.35	6308.43	6835.99	-67.3427	134.527	-0.000228724	-0.0241875	15.8962	13.5374	1	41	0.00490762	7.17908e-07	0	-0.00113463	0.948238	0.584727	15.4607	1.18146e-05	2.38511e-05	1.11912e-05	2.17215e-05	1.95256e-05	1.58006e-05	1.22497	2.93685	21.9783	3.44053e-09	4.20812e-09	1.81227e-09	3.89328e-09	2.95231e-09	3.89565e-09	5.63514e-05	0.000134995	0.000146285	67.3427	13537.4	5650.94	14669.5	-22.6573	0.0000000E+000	0.0000000E+000	0.0000000E+000	22.6573	0.0000000E+000	0.0000000E+000	0.0000000E+000	-22.6573	0.0000000E+000	0.0000000E+000	0.0000000E+000	-67.3427	0.0000000E+000	0.0000000E+000	0.0000000E+000	67.3427	0.417433	22.6573	-2.8123e-05
0.79456	4665.3	10518.2	11506.4	-66.0805	154.202	-0.000234172	-0.0239072	19.0438	15.9131	1	41	0.00490857	4.26595e-07	0	-0.00126585	0.678642	0.237139	10.4508	9.94284e-06	1.41922e-05	1.27059e-05	9.76268e-06	1.38328e-05	1.28215e-05	2.39746	4.65058	27.6123	6.32755e-09	2.99849e-09	3.77457e-09	2.9439e-09	3.18271e-09	2.13958e-09	3.52372e-05	7.94441e-05	8.69082e-05	66.0805	15913.1	7058.21	17408.2	-23.9195	0.0000000E+000	0.0000000E+000	0.0000000E+000	23.9195	0.0000000E+000	0.0000000E+000	0.0000000E+000	-23.9195	0.0000000E+000	0.0000000E+000	0.0000000E+000	-66.0805	0.0000000E+000	0.0000000E+000	0.0000000E+000	66.0805	0.443546	23.9195	-5.3215e-05
0.398211	7317.35	16370.4	17931.3	-65.9159	192.33	-0.000224482	-0.0238218	24.4145	20.3489	1	41	0.00490115	2.73329e-07	0	-0.00151589	0.368334	0.071449	7.29102	4.99429e-06	1.09153e-05	7.30209e-06	5.16636e-06	5.447e-06	5.50548e-06	5.92821	18.4296	33.9444	1.16709e-08	7.45516e-09	6.22012e-09	4.01433e-09	3.11799e-09	2.40376e-09	2.27578e-05	5.09136e-05	5.57683e-05	65.9159	20348.9	9095.7	22289.2	-24.0841	0.0000000E+000	0.0000000E+000	0.0000000E+000	24.0841	0.0000000E+000	0.0000000E+000	0.0000000E+000	-24.0841	0.0000000E+000	0.0000000E+000	0.0000000E+000	-65.9159	0.0000000E+000	0.0000000E+000	0.0000000E+000	65.9159	0.446988	24.0841	-0.000103129
0.199573	13118.5	28252.9	31150	-65.0934	267.482	-0.000248125	-0.0234097	28.2263	23.2201	1	41	0.00490366	1.57421e-07	0	-0.00200599	0.303963	0.181205	5.24085	2.91977e-06	8.54702e-06	2.99179e-06	8.13109e-06	1.0819e-06	7.0813e-06	4.35346	22.1382	40.7748	4.92238e-09	2.50082e-09	1.63087e-09	2.40766e-09	1.28013e-09	1.53348e-09	1.35197e-05	2.9117e-05	3.21027e-05	65.0934	23220.1	10781.6	25601.1	-24.9066	0.0000000E+000	0.0000000E+000	0.0000000E+000	24.9066	0.0000000E+000	0.0000000E+000	0.0000000E+000	-24.9066	0.0000000E+000	0.0000000E+000	0.0000000E+000	-65.0934	0.0000000E+000	0.0000000E+000	0.0000000E+000	65.0934	0.464324	24.9066	-0.000200931
0.0999518	15553.5	46144.2	48695	-71.373	416.536	-0.000240737	-0.0234116	34.5074	30.9869	1	41	0.004904	1.00708e-07	0	-0.00296362	0.268439	0.114311	4.09058	1.94904e-06	7.05704e-06	5.85865e-06	5.7743e-06	3.65758e-06	4.48822e-06	110.937	321.467	159.318	3.13798e-08	2.19376e-08	1.52894e-08	1.10321e-08	9.77364e-09	8.9049e-09	6.55933e-06	1.94603e-05	2.0536e-05	71.373	30986.9	10444.5	32699.8	-18.627	0.0000000E+000	0.0000000E+000	0.0000000E+000	18.627	0.0000000E+000	0.0000000E+000	0.0000000E+000	-18.627	0.0000000E+000	0.0000000E+000	0.0000000E+000	-71.373	0.0000000E+000	0.0000000E+000	0.0000000E+000	71.373	0.337063	18.627	-0.000397451
252347	3.568	1.08323	3.72881	-16.888	421.566	-0.000144024	-0.0263429	0.582238	0.0491361	2	38	0.00513773	0.00137785	0	-0.00300181	-1	-1	-1	0	0	0	0	0	0	-1	-1	-1	0	0	0	0	0	0	0.256617	0.0779076	0.268182	16.888	49.1361	161.847	169.142	-73.112	0.0000000E+000	0.0000000E+000	0.0000000E+000	73.112	0.0000000E+000	0.0000000E+000	0.0000000E+000	-73.112	0.0000000E+000	0.0000000E+000	0.0000000E+000	-16.888	0.0000000E+000	0.0000000E+000	0.0000000E+000	16.888	3.29386	73.112	-8.0446e-06
126447	3.54836	0.830083	3.64416	-13.1667	425.007	-0.000170662	-0.0261344	1.51631	0.0786751	2	38	0.00517256	0.00141941	0	-0.00302602	-1	-1	-1	0	0	0	0	0	0	-1	-1	-1	0	0	0	0	0	0	0.267198	0.0625068	0.274412	13.1667	78.6751	336.313	345.393	-76.8333	0.0000000E+000	0.0000000E+000	0.0000000E+000	76.8333	0.0000000E+000	0.0000000E+000	0.0000000E+000	-76.8333	0.0000000E+000	0.0000000E+000	0.0000000E+000	-13.1667	0.0000000E+000	0.0000000E+000	0.0000000E+000	13.1667	4.2747	76.8333	-1.10273e-05
63362.9	3.57862	0.999883	3.71568	-15.6106	428.448	-0.000153456	-0.0261437	2.51209	0.18191	2	38	0.00513673	0.00138245	0	-0.00304699	1.26641	0.791225	25.9282	2.53613e-05	3.01778e-05	2.51368e-05	2.2642e-05	1.75977e-05	2.38864e-05	0.123102	0.0694521	2.0802	1.10422e-06	8.3748e-07	6.01089e-07	3.93126e-07	2.62649e-07	3.3549e-07	0.259202	0.0724222	0.269129	15.6106	181.91	651.064	675.999	-74.3894	0.0000000E+000	0.0000000E+000	0.0000000E+000	74.3894	0.0000000E+000	0.0000000E+000	0.0000000E+000	-74.3894	0.0000000E+000	0.0000000E+000	0.0000000E+000	-15.6106	0.0000000E+000	0.0000000E+000	0.0000000E+000	15.6106	3.57904	74.3894	-6.77891e-06
31751	3.67595	1.55615	3.99177	-22.9445	431.889	-0.00017247	-0.0255013	3.22115	0.489534	2	38	0.00518361	0.00129858	0	-0.00307465	1.10337	1.03873	25.4688	2.58784e-05	2.32221e-05	1.71835e-05	2.27776e-05	1.66153e-05	2.08764e-05	0.129427	0.0542593	2.24836	9.47134e-07	4.50028e-07	9.73343e-07	5.16921e-07	3.65463e-07	4.47323e-07	0.230696	0.0976609	0.250516	22.9445	489.534	1156.38	1255.73	-67.0555	0.0000000E+000	0.0000000E+000	0.0000000E+000	67.0555	0.0000000E+000	0.0000000E+000	0.0000000E+000	-67.0555	0.0000000E+000	0.0000000E+000	0.0000000E+000	-22.9445	0.0000000E+000	0.0000000E+000	0.0000000E+000	22.9445	2.36221	67.0555	-7.17437e-06
15912.6	3.84612	2.79947	4.75707	-36.0497	435.331	-0.000154687	-0.0260562	3.57275	1.2373	2	38	0.00523534	0.00110054	0	-0.00309436	1.3781	0.692248	25.9245	3.34684e-05	1.70432e-05	1.68973e-05	3.32468e-05	3.51391e-05	1.5839e-05	0.167933	0.104969	2.65185	9.96171e-07	6.22868e-07	7.71339e-07	6.59913e-07	4.23654e-07	5.84199e-07	0.169959	0.123708	0.210214	36.0497	1237.3	1699.9	2102.51	-53.9503	0.0000000E+000	0.0000000E+000	0.0000000E+000	53.9503	0.0000000E+000	0.0000000E+000	0.0000000E+000	-53.9503	0.0000000E+000	0.0000000E+000	0.0000000E+000	-36.0497	0.0000000E+000	0.0000000E+000	0.0000000E+000	36.0497	1.37388	53.9503	-7.61915e-06
7967.67	4.1509	5.17915	6.63729	-51.2891	438.799	-0.000266755	-0.0268233	3.85683	2.34837	2	38	0.00519292	0.000782386	0	-0.00311784	1.70341	1.36981	26.2079	2.16621e-05	4.55639e-05	3.1606e-05	3.48784e-05	3.024e-05	2.84891e-05	0.197547	0.22268	3.6788	3.80276e-07	7.72693e-07	5.05558e-07	4.13791e-07	8.3735e-07	3.48776e-07	0.094224	0.117565	0.150664	51.2891	2348.37	1882.13	3009.53	-38.7109	0.0000000E+000	0.0000000E+000	0.0000000E+000	38.7109	0.0000000E+000	0.0000000E+000	0.0000000E+000	-38.7109	0.0000000E+000	0.0000000E+000	0.0000000E+000	-51.2891	0.0000000E+000	0.0000000E+000	0.0000000E+000	51.2891	0.801464	38.7109	-9.31773e-06
3993.72	4.87598	9.83246	10.9751	-63.6229	442.265	-0.000266046	-0.0275644	4.05303	3.25304	2	38	0.00489472	0.000445985	0	-0.00314333	1.00835	1.04569	28.1994	1.55621e-05	1.0089e-05	1.21078e-05	2.0346e-05	2.07914e-05	2.74531e-05	0.384906	0.216022	6.48037	5.89778e-07	9.55873e-07	4.04375e-07	4.84512e-07	7.5689e-07	6.46291e-07	0.0404805	0.0816294	0.0911155	63.6229	3253.04	1613.2	3631.07	-26.3771	0.0000000E+000	0.0000000E+000	0.0000000E+000	26.3771	0.0000000E+000	0.0000000E+000	0.0000000E+000	-26.3771	0.0000000E+000	0.0000000E+000	0.0000000E+000	-63.6229	0.0000000E+000	0.0000000E+000	0.0000000E+000	63.6229	0.495907	26.3771	-7.73794e-06
2001.92	6.36285	18.3511	19.4229	-70.8771	445.804	-0.000272328	-0.0269593	4.33223	3.8673	2	38	0.00485243	0.00024983	0	-0.00316939	1.66639	0.899188	27.6189	2.83721e-05	3.86379e-05	4.48585e-05	2.80494e-05	1.75727e-05	2.35335e-05	0.656953	0.372982	11.4336	7.08117e-07	5.85534e-07	5.84215e-07	5.14146e-07	4.96795e-07	8.02394e-07	0.0168664	0.0486445	0.0514856	70.8771	3867.3	1340.9	4093.17	-19.1229	0.0000000E+000	0.0000000E+000	0.0000000E+000	19.1229	0.0000000E+000	0.0000000E+000	0.0000000E+000	-19.1229	0.0000000E+000	0.0000000E+000	0.0000000E+000	-70.8771	0.0000000E+000	0.0000000E+000	0.0000000E+000	70.8771	0.346728	19.1229	-8.01527e-06
1002.75	9.86581	33.9421	35.3468	-73.7926	449.378	-0.000288061	-0.0233293	4.67615	4.31186	2	39	0.00517074	0.000146286	0	-0.00319466	1.42629	0.755583	25.0198	2.9095e-05	2.58228e-05	2.0018e-05	3.55379e-05	3.04604e-05	2.54347e-05	0.698779	0.169512	8.91055	3.14902e-07	6.90592e-07	1.99773e-07	5.02336e-07	1.81396e-07	3.24401e-07	0.00789645	0.0271667	0.0282911	73.7926	4311.86	1253.31	4490.31	-16.2074	0.0000000E+000	0.0000000E+000	0.0000000E+000	16.2074	0.0000000E+000	0.0000000E+000	0.0000000E+000	-16.2074	0.0000000E+000	0.0000000E+000	0.0000000E+000	-73.7926	0.0000000E+000	0.0000000E+000	0.0000000E+000	73.7926	0.290666	16.2074	-8.78942e-06
502.588	17.392	61.5428	63.9531	-74.2197	452.7	-0.000264201	-0.0234838	5.14554	4.76499	2	39	0.0047384	7.40918e-05	0	-0.00321591	1.2708	0.589403	27.097	2.56902e-05	1.9711e-05	2.46787e-05	2.09303e-05	2.50137e-05	2.11665e-05	1.10276	0.691041	17.9498	2.13859e-07	4.13497e-07	2.90567e-07	4.4683e-07	2.89706e-07	2.36523e-07	0.00425233	0.0150471	0.0156365	74.2197	4764.99	1346.59	4951.61	-15.7803	0.0000000E+000	0.0000000E+000	0.0000000E+000	15.7803	0.0000000E+000	0.0000000E+000	0.0000000E+000	-15.7803	0.0000000E+000	0.0000000E+000	0.0000000E+000	-74.2197	0.0000000E+000	0.0000000E+000	0.0000000E+000	74.2197	0.2826	15.7803	-7.09908e-06
251.853	31.6326	109.143	113.635	-73.837	456.013	-0.000250947	-0.0229784	5.78996	5.34129	2	39	0.00462645	4.07133e-05	0	-0.00323705	1.28349	0.779599	27.7995	1.68719e-05	2.32634e-05	1.2768e-05	2.12576e-05	3.74021e-05	1.84906e-05	1.70341	0.987575	32.3139	1.93925e-07	2.65727e-07	1.87017e-07	2.96138e-07	3.95816e-07	2.28551e-07	0.00244969	0.00845229	0.00880012	73.837	5341.29	1548.05	5561.1	-16.163	0.0000000E+000	0.0000000E+000	0.0000000E+000	16.163	0.0000000E+000	0.0000000E+000	0.0000000E+000	-16.163	0.0000000E+000	0.0000000E+000	0.0000000E+000	-73.837	0.0000000E+000	0.0000000E+000	0.0000000E+000	73.837	0.289826	16.163	-6.98616e-06
126.171	56.733	192.396	200.586	-73.5704	459.33	-0.000219277	-0.0232874	6.55639	6.0319	2	39	0.00460224	2.2944e-05	0	-0.0032581	1.21062	1.11661	27.2481	2.62576e-05	1.40582e-05	2.51336e-05	1.47173e-05	2.24693e-05	1.98855e-05	2.71525	2.08826	55.7112	2.24829e-07	2.22985e-07	1.4455e-07	3.26961e-07	1.81282e-07	3.12233e-07	0.00141005	0.00478183	0.00498539	73.5704	6031.9	1778.67	6288.68	-16.4296	0.0000000E+000	0.0000000E+000	0.0000000E+000	16.4296	0.0000000E+000	0.0000000E+000	0.0000000E+000	-16.4296	0.0000000E+000	0.0000000E+000	0.0000000E+000	-73.5704	0.0000000E+000	0.0000000E+000	0.0000000E+000	73.5704	0.294877	16.4296	-6.98156e-06
63.2394	98.828	337.867	352.025	-73.6955	462.851	-0.000238756	-0.0227641	7.4488	6.86171	2	40	0.00461714	1.3116e-05	0	-0.0032799	2.38646	0.898785	43.0972	3.62532e-05	6.41008e-05	3.3498e-05	3.93537e-05	3.95164e-05	2.58869e-05	1.31875	0.466956	19.8308	3.42769e-08	1.04179e-07	5.60069e-08	8.48196e-08	5.8051e-08	3.55303e-08	0.000797506	0.00272647	0.00284071	73.6955	6861.71	2007.09	7149.23	-16.3045	0.0000000E+000	0.0000000E+000	0.0000000E+000	16.3045	0.0000000E+000	0.0000000E+000	0.0000000E+000	-16.3045	0.0000000E+000	0.0000000E+000	0.0000000E+000	-73.6955	0.0000000E+000	0.0000000E+000	0.0000000E+000	73.6955	0.292505	16.3045	-6.76341e-06
31.6723	169.483	603.46	626.808	-74.3125	466.026	-0.000235886	-0.02285	8.32708	7.71827	2	40	0.00460704	7.35e-06	0	-0.00329987	2.53313	1.25284	42.9588	3.7898e-05	2.40648e-05	4.75945e-05	5.73218e-05	4.36779e-05	5.00552e-05	2.09581	1.00407	34.432	6.62656e-08	2.99518e-08	5.39483e-08	8.56769e-08	5.28728e-08	5.63341e-08	0.000431377	0.00153596	0.00159538	74.3125	7718.27	2167.7	8016.9	-15.6875	0.0000000E+000	0.0000000E+000	0.0000000E+000	15.6875	0.0000000E+000	0.0000000E+000	0.0000000E+000	-15.6875	0.0000000E+000	0.0000000E+000	0.0000000E+000	-74.3125	0.0000000E+000	0.0000000E+000	0.0000000E+000	74.3125	0.280852	15.6875	-6.56638e-06
15.879	306.475	1077.53	1120.27	-74.123	469.2	-0.000274416	-0.0229065	9.30178	8.60561	2	40	0.0046238	4.12741e-06	0	-0.0033199	2.28022	0.930894	42.9404	2.43242e-05	3.90153e-05	3.09891e-05	4.30508e-05	3.4437e-05	5.89934e-05	3.74441	1.50408	61.6312	2.19294e-08	6.89444e-08	6.07613e-08	6.52452e-08	5.41579e-08	7.1084e-08	0.000244203	0.000858591	0.000892644	74.123	8605.61	2447.64	8946.93	-15.877	0.0000000E+000	0.0000000E+000	0.0000000E+000	15.877	0.0000000E+000	0.0000000E+000	0.0000000E+000	-15.877	0.0000000E+000	0.0000000E+000	0.0000000E+000	-74.123	0.0000000E+000	0.0000000E+000	0.0000000E+000	74.123	0.284423	15.877	-6.59277e-06
7.95573	604.938	1876.09	1971.21	-72.1283	472.926	-0.000247648	-0.0229963	10.6632	9.65891	2	41	0.0045884	2.32771e-06	0	-0.00334316	2.06907	1.35712	37.7611	3.35626e-05	4.45255e-05	2.74978e-05	3.81273e-05	3.71217e-05	2.6968e-05	0.955253	0.521987	14.2726	3.88423e-09	1.13939e-08	5.89837e-09	7.20963e-09	1.22894e-08	6.93691e-09	0.000155684	0.000482823	0.000507302	72.1283	9658.91	3114.47	10148.6	-17.8717	0.0000000E+000	0.0000000E+000	0.0000000E+000	17.8717	0.0000000E+000	0.0000000E+000	0.0000000E+000	-17.8717	0.0000000E+000	0.0000000E+000	0.0000000E+000	-72.1283	0.0000000E+000	0.0000000E+000	0.0000000E+000	72.1283	0.322445	17.8717	-7.56359e-06
3.98597	1117.05	3241.58	3428.65	-70.986	477.845	-0.000244824	-0.0230294	12.3177	11.0102	2	41	0.0045893	1.33851e-06	0	-0.00337437	1.82713	0.774421	27.0486	3.26343e-05	2.78265e-05	4.20937e-05	3.39884e-05	3.64294e-05	1.50245e-05	1.30343	0.517204	18.2115	6.46242e-09	5.82569e-09	8.77485e-09	8.31401e-09	6.58521e-09	3.41783e-09	9.50223e-05	0.000275747	0.00029166	70.986	11010.2	3794.13	11645.6	-19.014	0.0000000E+000	0.0000000E+000	0.0000000E+000	19.014	0.0000000E+000	0.0000000E+000	0.0000000E+000	-19.014	0.0000000E+000	0.0000000E+000	0.0000000E+000	-70.986	0.0000000E+000	0.0000000E+000	0.0000000E+000	70.986	0.3446	19.0139	-1.22153e-05
1.99783	2160.58	5464.11	5875.77	-68.4255	486.374	-0.000227019	-0.0230937	14.5795	12.6082	2	41	0.00458922	7.81042e-07	0	-0.00342873	1.04055	0.535041	18.2913	1.58906e-05	1.77939e-05	2.25993e-05	1.17777e-05	1.18324e-05	2.63267e-05	1.31067	0.901163	22.0868	3.21563e-09	4.02832e-09	4.78158e-09	3.52654e-09	1.87591e-09	4.58194e-09	6.25809e-05	0.000158267	0.000170191	68.4255	12608.2	4985.44	13558.1	-21.5745	0.0000000E+000	0.0000000E+000	0.0000000E+000	21.5745	0.0000000E+000	0.0000000E+000	0.0000000E+000	-21.5745	0.0000000E+000	0.0000000E+000	0.0000000E+000	-68.4255	0.0000000E+000	0.0000000E+000	0.0000000E+000	68.4255	0.395413	21.5745	-2.18772e-05
1.00122	4091.85	8908.84	9803.61	-65.3306	502.241	-0.000257888	-0.0229002	17.8431	14.7347	2	41	0.00459219	4.68419e-07	0	-0.00353004	0.420854	0.389595	12.7999	7.25553e-06	9.40261e-06	7.94544e-06	8.63389e-06	5.34275e-06	6.78383e-06	1.53986	3.79223	27.6737	4.34612e-09	4.00766e-09	1.72693e-09	1.83322e-09	1.88571e-09	1.97597e-09	4.25744e-05	9.26935e-05	0.000102003	65.3306	14734.7	6767.69	16214.6	-24.6694	0.0000000E+000	0.0000000E+000	0.0000000E+000	24.6694	0.0000000E+000	0.0000000E+000	0.0000000E+000	-24.6694	0.0000000E+000	0.0000000E+000	0.0000000E+000	-65.3306	0.0000000E+000	0.0000000E+000	0.0000000E+000	65.3306	0.459303	24.6694	-4.10759e-05
0.501541	7339.72	14418.7	16179.3	-63.022	532.737	-0.000256916	-0.0227654	22.0084	17.4791	2	41	0.00459907	2.84257e-07	0	-0.00372298	0.525147	0.25672	8.90917	1.06789e-05	4.83314e-06	7.0436e-06	7.96987e-06	1.11292e-05	1.03605e-05	2.93488	8.14614	35.781	2.50334e-09	4.30248e-09	3.79808e-09	3.08195e-09	2.71044e-09	2.95446e-09	2.80389e-05	5.50816e-05	6.18074e-05	63.022	17479.1	8897.63	19613.5	-26.978	0.0000000E+000	0.0000000E+000	0.0000000E+000	26.978	0.0000000E+000	0.0000000E+000	0.0000000E+000	-26.978	0.0000000E+000	0.0000000E+000	0.0000000E+000	-63.022	0.0000000E+000	0.0000000E+000	0.0000000E+000	63.022	0.509043	26.978	-7.91873e-05
0.251222	9533.21	22081.3	24051.3	-66.6486	592.631	-0.000228033	-0.0225584	28.6905	24.183	2	41	0.00459678	1.91124e-07	0	-0.00410003	0.364121	0.10838	6.1744	8.05539e-06	7.19737e-06	5.3589e-06	8.1987e-06	3.28141e-06	5.92544e-06	8.14939	27.9572	40.4412	1.06322e-08	8.07473e-09	5.02641e-09	4.15956e-09	3.93399e-09	3.6709e-09	1.64801e-05	3.81722e-05	4.15777e-05	66.6486	24183	10440.6	26340.5	-23.3514	0.0000000E+000	0.0000000E+000	0.0000000E+000	23.3514	0.0000000E+000	0.0000000E+000	0.0000000E+000	-23.3514	0.0000000E+000	0.0000000E+000	0.0000000E+000	-66.6486	0.0000000E+000	0.0000000E+000	0.0000000E+000	66.6486	0.431732	23.3514	-0.0001548
0.125939	27846.3	38634.4	47623.8	-54.2173	711.192	-0.000235811	-0.0219523	32.7105	21.5271	2	41	0.00459603	9.65069e-08	0	-0.00483526	0.227197	0.179902	4.49888	2.47284e-06	3.57581e-06	3.81956e-06	3.00066e-06	6.30051e-06	3.31693e-06	40.6381	183.228	75.7437	1.86519e-08	1.33648e-08	7.29795e-09	8.22063e-09	6.09096e-09	5.06492e-09	1.22777e-05	1.70343e-05	2.09979e-05	54.2173	21527.1	15516	26536.1	-35.7827	0.0000000E+000	0.0000000E+000	0.0000000E+000	35.7827	0.0000000E+000	0.0000000E+000	0.0000000E+000	-35.7827	0.0000000E+000	0.0000000E+000	0.0000000E+000	-54.2173	0.0000000E+000	0.0000000E+000	0.0000000E+000	54.2173	0.720764	35.7827	-0.000298543
317705	3.63436	1.29133	3.85695	-19.5607	776.631	-0.0001589	-0.0242185	0.387936	0.0434854	3	38	0.00518643	0.0013447	0	-0.00523669	-1	-1	-1	0	0	0	0	0	0	-1	-1	-1	0	0	0	0	0	0	0.244309	0.0868055	0.259272	19.5607	43.4854	122.387	129.883	-70.4393	0.0000000E+000	0.0000000E+000	0.0000000E+000	70.4393	0.0000000E+000	0.0000000E+000	0.0000000E+000	-70.4393	0.0000000E+000	0.0000000E+000	0.0000000E+000	-19.5607	0.0000000E+000	0.0000000E+000	0.0000000E+000	19.5607	2.81444	70.4393	-5.1228e-06
159201	3.55968	0.869775	3.6644	-13.7307	780.073	-0.000163672	-0.0236915	1.14939	0.0647555	3	38	0.00517754	0.00141293	0	-0.00526069	-1	-1	-1	0	0	0	0	0	0	-1	-1	-1	0	0	0	0	0	0	0.265097	0.0647741	0.272896	13.7307	64.7555	265.021	272.818	-76.2693	0.0000000E+000	0.0000000E+000	0.0000000E+000	76.2693	0.0000000E+000	0.0000000E+000	0.0000000E+000	-76.2693	0.0000000E+000	0.0000000E+000	0.0000000E+000	-13.7307	0.0000000E+000	0.0000000E+000	0.0000000E+000	13.7307	4.09265	76.2693	-8.94851e-06
79767.3	3.56383	0.864491	3.66718	-13.6351	783.515	-0.000153811	-0.0241105	2.30799	0.12826	3	38	0.00511715	0.00139539	0	-0.00528624	1.45341	0.935867	26.3872	3.88228e-05	3.13455e-05	2.69712e-05	1.58044e-05	2.7025e-05	2.85231e-05	0.106107	0.0851281	2.02814	4.52027e-07	8.29817e-07	3.48449e-07	3.06526e-07	5.91143e-07	6.8057e-07	0.265004	0.064283	0.272689	13.6351	128.26	528.747	544.08	-76.3649	0.0000000E+000	0.0000000E+000	0.0000000E+000	76.3649	0.0000000E+000	0.0000000E+000	0.0000000E+000	-76.3649	0.0000000E+000	0.0000000E+000	0.0000000E+000	-13.6351	0.0000000E+000	0.0000000E+000	0.0000000E+000	13.6351	4.12246	76.3649	-8.10267e-06
39971.8	3.65805	1.32364	3.89016	-19.8924	786.956	-0.000154128	-0.0241403	3.00812	0.348259	3	38	0.00518492	0.00133283	0	-0.00530609	1.13589	0.739134	25.5163	2.76994e-05	1.91751e-05	1.34689e-05	2.74978e-05	2.00482e-05	2.61915e-05	0.124348	0.0543456	2.13881	4.53101e-07	6.97506e-07	8.38165e-07	5.35409e-07	4.7716e-07	7.57007e-07	0.241721	0.0874653	0.257059	19.8924	348.259	962.455	1023.53	-70.1076	0.0000000E+000	0.0000000E+000	0.0000000E+000	70.1076	0.0000000E+000	0.0000000E+000	0.0000000E+000	-70.1076	0.0000000E+000	0.0000000E+000	0.0000000E+000	-19.8924	0.0000000E+000	0.0000000E+000	0.0000000E+000	19.8924	2.76362	70.1076	-6.325e-06
20032.3	3.80105	2.29031	4.43773	-31.0709	790.398	-0.000149393	-0.0241738	3.46893	0.923977	3	38	0.00523268	0.00117914	0	-0.00532938	1.34311	0.644266	25.226	2.84023e-05	2.47769e-05	2.41756e-05	2.00742e-05	2.46716e-05	3.61341e-05	0.145707	0.064062	2.40989	5.7821e-07	5.59202e-07	7.93146e-07	8.21601e-07	4.24805e-07	7.52152e-07	0.193011	0.116298	0.22534	31.0709	923.977	1533.45	1790.31	-58.9291	0.0000000E+000	0.0000000E+000	0.0000000E+000	58.9291	0.0000000E+000	0.0000000E+000	0.0000000E+000	-58.9291	0.0000000E+000	0.0000000E+000	0.0000000E+000	-31.0709	0.0000000E+000	0.0000000E+000	0.0000000E+000	31.0709	1.65962	58.9291	-7.78714e-06
10039.3	4.05573	4.24686	5.87237	-46.3187	793.839	-0.000139811	-0.0246914	3.73291	1.95234	3	38	0.00523642	0.000891705	0	-0.00535353	1.14061	0.717014	25.2766	2.11335e-05	1.91902e-05	2.71079e-05	2.24132e-05	1.56725e-05	2.39795e-05	0.183455	0.104936	3.25286	4.60558e-07	5.17448e-07	7.30299e-07	1.02579e-06	5.79884e-07	2.36592e-07	0.117609	0.123152	0.170289	46.3187	1952.34	1864.48	2699.61	-43.6813	0.0000000E+000	0.0000000E+000	0.0000000E+000	43.6813	0.0000000E+000	0.0000000E+000	0.0000000E+000	-43.6813	0.0000000E+000	0.0000000E+000	0.0000000E+000	-46.3187	0.0000000E+000	0.0000000E+000	0.0000000E+000	46.3187	0.954995	43.6813	-8.25264e-06
5028.39	4.56422	7.98123	9.19413	-60.2361	797.372	-0.000268041	-0.0261586	3.96572	2.9884	3	38	0.00491837	0.000534946	0	-0.00537514	1.25656	0.910438	27.3152	1.61531e-05	2.14867e-05	2.4713e-05	1.67936e-05	3.31155e-05	2.7298e-05	0.278921	0.153135	5.36725	3.81234e-07	5.52466e-07	7.14321e-07	6.56786e-07	6.25385e-07	5.1138e-07	0.053994	0.0944165	0.108765	60.2361	2988.4	1708.98	3442.55	-29.7639	0.0000000E+000	0.0000000E+000	0.0000000E+000	29.7639	0.0000000E+000	0.0000000E+000	0.0000000E+000	-29.7639	0.0000000E+000	0.0000000E+000	0.0000000E+000	-60.2361	0.0000000E+000	0.0000000E+000	0.0000000E+000	60.2361	0.57187	29.7639	-8.17673e-06
2519.19	5.7334	15.0343	16.0904	-69.1254	800.912	-0.000294287	-0.0237232	4.20219	3.66866	3	38	0.00479454	0.000297975	0	-0.00539875	1.53678	0.620449	27.5021	2.73977e-05	2.7656e-05	3.67208e-05	2.72523e-05	2.7052e-05	2.07641e-05	0.640359	0.396492	9.74126	7.06942e-07	9.32995e-07	9.83348e-07	4.84187e-07	6.49614e-07	6.35602e-07	0.0221451	0.0580695	0.0621488	69.1254	3668.66	1399.06	3926.37	-20.8746	0.0000000E+000	0.0000000E+000	0.0000000E+000	20.8746	0.0000000E+000	0.0000000E+000	0.0000000E+000	-20.8746	0.0000000E+000	0.0000000E+000	0.0000000E+000	-69.1254	0.0000000E+000	0.0000000E+000	0.0000000E+000	69.1254	0.381355	20.8746	-7.40088e-06
1262.98	8.26668	27.975	29.1708	-73.5374	804.23	-0.000251656	-0.0241068	4.50459	4.14283	3	38	0.00455697	0.000156217	0	-0.00542082	1.48982	0.876578	29.9991	2.38025e-05	2.70795e-05	2.74913e-05	1.69434e-05	2.6341e-05	3.28264e-05	1.14098	0.406898	18.4982	5.53404e-07	7.16698e-07	5.54328e-07	7.46902e-07	9.57739e-07	5.57265e-07	0.0097148	0.0328755	0.0342808	73.5374	4142.83	1224.22	4319.92	-16.4626	0.0000000E+000	0.0000000E+000	0.0000000E+000	16.4626	0.0000000E+000	0.0000000E+000	0.0000000E+000	-16.4626	0.0000000E+000	0.0000000E+000	0.0000000E+000	-73.5374	0.0000000E+000	0.0000000E+000	0.0000000E+000	73.5374	0.295503	16.4626	-7.44588e-06
632.773	14.3365	51.2455	53.2131	-74.3704	807.805	-0.000264686	-0.0219251	4.90814	4.55188	3	39	0.00467526	8.78592e-05	0	-0.00544268	1.27037	0.695699	27.8358	1.63324e-05	2.08735e-05	2.50181e-05	2.17478e-05	2.98902e-05	2.13103e-05	0.969318	0.347404	14.9405	2.22732e-07	4.84931e-07	1.76857e-07	3.79182e-07	2.84277e-07	2.66871e-07	0.00506297	0.0180975	0.0187924	74.3704	4551.88	1273.44	4726.65	-15.6296	0.0000000E+000	0.0000000E+000	0.0000000E+000	15.6296	0.0000000E+000	0.0000000E+000	0.0000000E+000	-15.6296	0.0000000E+000	0.0000000E+000	0.0000000E+000	-74.3704	0.0000000E+000	0.0000000E+000	0.0000000E+000	74.3704	0.279761	15.6295	-6.68113e-06
316.927	25.8308	91.5218	95.0972	-74.239	811.345	-0.000247946	-0.0219231	5.48702	5.08219	3	39	0.00496777	5.22389e-05	0	-0.00546421	1.48523	0.785402	25.8986	1.96644e-05	3.18439e-05	1.33086e-05	2.14957e-05	2.67709e-05	4.63893e-05	1.59202	0.672709	25.2911	3.40006e-07	3.45263e-07	1.51695e-07	1.91639e-07	2.58897e-07	5.49197e-07	0.00285629	0.0101202	0.0105156	74.239	5082.19	1434.38	5280.72	-15.761	0.0000000E+000	0.0000000E+000	0.0000000E+000	15.761	0.0000000E+000	0.0000000E+000	0.0000000E+000	-15.761	0.0000000E+000	0.0000000E+000	0.0000000E+000	-74.239	0.0000000E+000	0.0000000E+000	0.0000000E+000	74.239	0.282236	15.761	-7.94477e-06
158.831	46.5814	160.276	166.908	-73.7944	814.664	-0.000226137	-0.0219617	6.25197	5.76502	3	39	0.00491746	2.94621e-05	0	-0.00548428	1.10463	0.810585	26.2797	1.95627e-05	2.21256e-05	2.88753e-05	1.30178e-05	1.6666e-05	2.02469e-05	2.45475	1.59065	46.0781	2.68372e-07	3.20796e-07	2.8618e-07	2.79984e-07	1.31711e-07	3.52332e-07	0.00167209	0.00575327	0.00599133	73.7944	5765.02	1675.5	6003.56	-16.2056	0.0000000E+000	0.0000000E+000	0.0000000E+000	16.2056	0.0000000E+000	0.0000000E+000	0.0000000E+000	-16.2056	0.0000000E+000	0.0000000E+000	0.0000000E+000	-73.7944	0.0000000E+000	0.0000000E+000	0.0000000E+000	73.7944	0.290632	16.2056	-6.7278e-06
79.6177	80.7322	284.529	295.761	-74.1592	818.205	-0.000260435	-0.0217829	7.02562	6.50214	3	40	0.00496528	1.67882e-05	0	-0.00550529	3.0493	1.28011	38.9953	6.39442e-05	4.9373e-05	4.53085e-05	4.60924e-05	6.95079e-05	6.7205e-05	1.20713	0.389002	15.1382	7.93065e-08	7.35122e-08	4.10244e-08	9.94586e-08	9.40154e-08	8.22583e-08	0.000922925	0.00325271	0.00338111	74.1592	6502.14	1844.92	6758.81	-15.8408	0.0000000E+000	0.0000000E+000	0.0000000E+000	15.8408	0.0000000E+000	0.0000000E+000	0.0000000E+000	-15.8408	0.0000000E+000	0.0000000E+000	0.0000000E+000	-74.1592	0.0000000E+000	0.0000000E+000	0.0000000E+000	74.1592	0.28374	15.8408	-6.42917e-06
39.8851	142.326	501.28	521.093	-74.1495	821.42	-0.000244069	-0.0218355	7.96029	7.36646	3	40	0.00490719	9.41711e-06	0	-0.00552458	2.3802	1.39512	40.3164	5.76962e-05	5.4257e-05	3.15794e-05	1.80554e-05	4.99622e-05	5.49213e-05	1.85821	0.8663	27.485	5.4742e-08	8.88848e-08	4.95075e-08	5.79e-08	7.84202e-08	7.60523e-08	0.000524146	0.00184608	0.00191904	74.1495	7366.46	2091.52	7657.62	-15.8505	0.0000000E+000	0.0000000E+000	0.0000000E+000	15.8505	0.0000000E+000	0.0000000E+000	0.0000000E+000	-15.8505	0.0000000E+000	0.0000000E+000	0.0000000E+000	-74.1495	0.0000000E+000	0.0000000E+000	0.0000000E+000	74.1495	0.283924	15.8505	-6.43104e-06
19.9808	254.602	893.735	929.293	-74.0991	824.596	-0.000249959	-0.0219093	8.91247	8.24348	3	40	0.00490637	5.27968e-06	0	-0.00554371	2.59442	1.18839	39.6836	3.17506e-05	3.27472e-05	4.1117e-05	5.40749e-05	3.27768e-05	8.2934e-05	2.69972	1.34297	48.3892	3.86052e-08	4.10206e-08	5.45041e-08	6.85195e-08	4.37808e-08	8.20478e-08	0.00029482	0.00103491	0.00107609	74.0991	8243.48	2348.36	8571.45	-15.9009	0.0000000E+000	0.0000000E+000	0.0000000E+000	15.9009	0.0000000E+000	0.0000000E+000	0.0000000E+000	-15.9009	0.0000000E+000	0.0000000E+000	0.0000000E+000	-74.0991	0.0000000E+000	0.0000000E+000	0.0000000E+000	74.0991	0.284874	15.9009	-6.43052e-06
10.016	470.549	1589.46	1657.64	-73.5089	828.154	-0.000262057	-0.02195	9.99714	9.19157	3	41	0.00492529	2.97126e-06	0	-0.00556501	2.90524	1.43005	51.7866	6.70334e-05	5.64924e-05	5.33191e-05	2.79702e-05	4.16687e-05	6.11913e-05	1.0968	0.637739	16.2004	1.40383e-08	1.21331e-08	9.70356e-09	1.43568e-08	7.91226e-09	1.43759e-08	0.000171247	0.00057845	0.000603266	73.5089	9191.57	2721.11	9585.89	-16.4911	0.0000000E+000	0.0000000E+000	0.0000000E+000	16.4911	0.0000000E+000	0.0000000E+000	0.0000000E+000	-16.4911	0.0000000E+000	0.0000000E+000	0.0000000E+000	-73.5089	0.0000000E+000	0.0000000E+000	0.0000000E+000	73.5089	0.296044	16.4911	-6.46031e-06
5.01766	913.195	2761.02	2908.12	-71.6986	832.361	-0.000241416	-0.0219079	11.4881	10.3553	3	41	0.00489678	1.68383e-06	0	-0.00559031	1.49741	0.954627	29.8407	2.73681e-05	3.97345e-05	3.15402e-05	1.70932e-05	2.58049e-05	2.57622e-05	0.940999	0.578537	16.6689	8.67065e-09	5.85362e-09	5.06698e-09	4.5086e-09	5.18167e-09	6.30883e-09	0.000107979	0.000326471	0.000343865	71.6986	10355.3	3424.97	10907	-18.3014	0.0000000E+000	0.0000000E+000	0.0000000E+000	18.3014	0.0000000E+000	0.0000000E+000	0.0000000E+000	-18.3014	0.0000000E+000	0.0000000E+000	0.0000000E+000	-71.6986	0.0000000E+000	0.0000000E+000	0.0000000E+000	71.6986	0.330745	18.3014	-9.7602e-06
2.51368	1813.64	4702.88	5040.47	-68.9111	839.388	-0.000259612	-0.0218996	13.4632	11.7201	3	41	0.00490356	9.72837e-07	0	-0.00563278	1.2589	0.613701	19.652	2.49724e-05	1.96062e-05	2.02789e-05	8.04866e-06	3.43074e-05	2.2906e-05	1.31505	0.745956	19.762	6.99512e-09	3.05539e-09	3.85836e-09	3.20645e-09	6.13727e-09	5.09547e-09	7.13855e-05	0.000185106	0.000198394	68.9111	11720.1	4519.81	12561.4	-21.0889	0.0000000E+000	0.0000000E+000	0.0000000E+000	21.0889	0.0000000E+000	0.0000000E+000	0.0000000E+000	-21.0889	0.0000000E+000	0.0000000E+000	0.0000000E+000	-68.9111	0.0000000E+000	0.0000000E+000	0.0000000E+000	68.9111	0.385646	21.0889	-1.69495e-05
1.25968	3187.41	7716.21	8348.62	-67.5555	852.223	-0.000262707	-0.0217223	16.3741	13.9873	3	41	0.00488758	5.85436e-07	0	-0.00571048	0.798747	0.525192	13.9068	1.40049e-05	2.04736e-05	8.75389e-06	1.69616e-05	1.57086e-05	9.31258e-06	2.06901	2.82558	24.3505	5.11863e-09	4.93892e-09	2.40811e-09	7.8012e-09	2.84377e-09	2.25835e-09	4.57307e-05	0.000110707	0.00011978	67.5555	13987.4	5777.88	15133.7	-22.4445	0.0000000E+000	0.0000000E+000	0.0000000E+000	22.4445	0.0000000E+000	0.0000000E+000	0.0000000E+000	-22.4445	0.0000000E+000	0.0000000E+000	0.0000000E+000	-67.5555	0.0000000E+000	0.0000000E+000	0.0000000E+000	67.5555	0.413079	22.4445	-3.13657e-05
0.631645	5631.99	13021.5	14187.2	-66.6108	876.68	-0.000243155	-0.0217384	19.3503	16.3009	3	41	0.00490759	3.45916e-07	0	-0.00585739	0.649031	0.326317	9.18229	9.61944e-06	8.27984e-06	1.00249e-05	1.12164e-05	1.1707e-05	1.79095e-05	2.29675	6.051	31.5499	4.74945e-09	2.93166e-09	2.48619e-09	2.33941e-09	1.84341e-09	2.73501e-09	2.79811e-05	6.4694e-05	7.04858e-05	66.6108	16300.9	7050.38	17760.3	-23.3892	0.0000000E+000	0.0000000E+000	0.0000000E+000	23.3892	0.0000000E+000	0.0000000E+000	0.0000000E+000	-23.3892	0.0000000E+000	0.0000000E+000	0.0000000E+000	-66.6108	0.0000000E+000	0.0000000E+000	0.0000000E+000	66.6108	0.432515	23.3892	-6.01499e-05
0.316193	9389.99	20757.9	22783	-65.66	924.448	-0.000265447	-0.0217544	24.2485	20.1294	3	41	0.00489743	2.1496e-07	0	-0.00614684	0.373793	0.153884	6.78406	6.58197e-06	7.92712e-06	3.61733e-06	9.92547e-06	4.2797e-06	7.25208e-06	6.56304	21.2835	41.5087	1.00418e-08	6.41066e-09	5.25088e-09	3.69153e-09	2.90929e-09	2.94862e-09	1.80903e-05	3.99911e-05	4.38925e-05	65.66	20129.4	9105.69	22093.2	-24.34	0.0000000E+000	0.0000000E+000	0.0000000E+000	24.34	0.0000000E+000	0.0000000E+000	0.0000000E+000	-24.34	0.0000000E+000	0.0000000E+000	0.0000000E+000	-65.66	0.0000000E+000	0.0000000E+000	0.0000000E+000	65.66	0.452357	24.34	-0.000118151
0.158419	17810.2	34585	38901.5	-62.7529	1018.83	-0.000247752	-0.0212478	29.0487	22.9599	3	41	0.00490326	1.26043e-07	0	-0.00671047	0.281975	0.177223	4.75922	5.93284e-06	5.85844e-06	4.69467e-06	5.25588e-06	7.06063e-06	1.73601e-06	7.40116	29.388	42.1723	5.80676e-09	4.18123e-09	3.39688e-09	2.64194e-09	2.39905e-09	1.42527e-09	1.17689e-05	2.28536e-05	2.5706e-05	62.7529	22959.9	11823.6	25825.4	-27.2471	0.0000000E+000	0.0000000E+000	0.0000000E+000	27.2471	0.0000000E+000	0.0000000E+000	0.0000000E+000	-27.2471	0.0000000E+000	0.0000000E+000	0.0000000E+000	-62.7529	0.0000000E+000	0.0000000E+000	0.0000000E+000	62.7529	0.51497	27.2471	-0.000228605
0.0999518	18310.6	43172.6	46895.1	-67.0169	1129.03	-0.000240766	-0.0211997	36.8826	31.2595	3	41	0.00490326	1.04558e-07	0	-0.00736477	0.18329	0.146577	4.0861	4.3534e-06	2.7995e-06	3.31755e-06	2.54593e-06	4.50545e-06	2.04977e-06	26.1934	91.1013	51.1118	1.82986e-08	1.11064e-08	1.03195e-08	7.64138e-09	7.70655e-09	5.72459e-09	8.32624e-06	1.96315e-05	2.13242e-05	67.0169	31259.5	13258	33954.9	-22.9831	0.0000000E+000	0.0000000E+000	0.0000000E+000	22.9831	0.0000000E+000	0.0000000E+000	0.0000000E+000	-22.9831	0.0000000E+000	0.0000000E+000	0.0000000E+000	-67.0169	0.0000000E+000	0.0000000E+000	0.0000000E+000	67.0169	0.424127	22.9831	-0.000362698