File: Python/Data/RDE/240223-OCV-EIS-Fe2Fe3_5mM-HCl1M-225RPM-Ag_AgCl_BLF8-GC-RDE-1minRestVSEoc-3ppf-14p1mVAmplitude_06_PEIS_C15.mpt
EC-Lab ASCII FILE
Nb header lines : 67

Potentio Electrochemical Impedance Spectroscopy

Run on channel : 15 (SN 19485)
User :
Electrode connection : standard
Potential control : Ewe
Ewe ctrl range : min = -1.00 V, max = 1.00 V
Ewe,I filtering : 50 kHz
Safety Limits :
	Do not start on E overload
Channel : Floating
Acquisition started on : 02/23/2024 15:54:32.363
Loaded Setting File :  NONE
Saved on :
	File : 240223-OCV-EIS-Fe2Fe3_5mM-HCl1M-225RPM-Ag_AgCl_BLF8-GC-RDE-1minRestVSEoc-3ppf-14p1mVAmplitude_06_PEIS_C15.mpr
	Directory : C:\Data\mathias\RDE-RPM-variation\
	Host : 192.168.0.1
Device : VMP-300 (SN 0826)
Address : USB
EC-Lab for windows v11.52 (software)
Internet server v11.52 (firmware)
Command interpretor v11.52 (firmware)
Electrode material :
Initial state :
Electrolyte :
Comments :
Cable : special
Reference electrode : SCE Saturated Calomel Electrode (0.241 V)
Electrode surface area : 0.001 cm²
Characteristic mass : 0.001 g
Equivalent Weight : 0.000 g/eq.
Density : 0.000 g/cm3
Volume (V) : 0.001 cm³
Record EIS quality indicators
Cycle Definition : Charge/Discharge alternance
Mode                Single sine
E (V)               0.0000
vs.                 Eoc
tE (h:m:s)          0:01:0.0000
record              0
dI                  0.000
unit dI             mA
dt (s)              0.000
fi                  1.000
unit fi             MHz
ff                  100.000
unit ff             mHz
Nd                  10
Points              per decade
spacing             Logarithmic
Va (mV)             14.1
pw                  0.10
Na                  3
corr                0
E range min (V)     -1.000
E range max (V)     1.000
I Range             Auto
Bandwidth           8
nc cycles           0
goto Ns'            0
nr cycles           0
inc. cycle          1

freq/Hz	Re(Z)/Ohm	-Im(Z)/Ohm	|Z|/Ohm	Phase(Z)/deg	time/s	<Ewe>/V	<I>/mA	Cs/µF	Cp/µF	cycle number	I Range	|Ewe|/V	|I|/A	Ns	(Q-Qo)/mA.h	THD Ewe/%	NSD Ewe/%	NSR Ewe/%	|Ewe h2|/V	|Ewe h3|/V	|Ewe h4|/V	|Ewe h5|/V	|Ewe h6|/V	|Ewe h7|/V	THD I/%	NSD I/%	NSR I/%	|I h2|/A	|I h3|/A	|I h4|/A	|I h5|/A	|I h6|/A	|I h7|/A	Re(Y)/Ohm-1	Im(Y)/Ohm-1	|Y|/Ohm-1	Phase(Y)/deg	Re(C)/nF	Im(C)/nF	|C|/nF	Phase(C)/deg	Re(M)	Im(M)	|M|	Phase(M)/deg	Re(Permittivity)	Im(Permittivity)	|Permittivity|	Phase(Permittivity)/deg	Re(Resistivity)/Ohm.cm	Im(Resistivity)/Ohm.cm	|Resistivity|/Ohm.cm	Phase(Resistivity)/deg	Re(Conductivity)/mS/cm	Im(Conductivity)/mS/cm	|Conductivity|/mS/cm	Phase(Conductivity)/deg	Tan(Delta)	Loss Angle(Delta)/deg	dq/mA.h
1.00002e+06	3.51504	4.08374	5.38818	-49.2801	1084.32	0.459387	-0.00922991	0.0389721	0.0223865	1	38	0.0111333	0.00206625	0	-4.35444e-06	-1	-1	-1	0	0	0	0	0	0	-1	-1	-1	0	0	0	0	0	0	0.121073	0.140661	0.185592	49.2801	22.3865	19.269	29.5373	-40.7199	0.0000000E+000	0.0000000E+000	0.0000000E+000	40.7199	0.0000000E+000	0.0000000E+000	0.0000000E+000	-40.7199	0.0000000E+000	0.0000000E+000	0.0000000E+000	-49.2801	0.0000000E+000	0.0000000E+000	0.0000000E+000	49.2801	0.86074	40.7199	-4.35444e-06
794333	3.54627	3.20715	4.78141	-42.1253	1085.33	0.45939	-0.000314904	0.0624738	0.0281077	1	38	0.0138454	0.00289567	0	-6.34409e-06	-1	-1	-1	0	0	0	0	0	0	-1	-1	-1	0	0	0	0	0	0	0.155117	0.140284	0.209143	42.1253	28.1077	31.0798	41.9046	-47.8747	0.0000000E+000	0.0000000E+000	0.0000000E+000	47.8747	0.0000000E+000	0.0000000E+000	0.0000000E+000	-47.8747	0.0000000E+000	0.0000000E+000	0.0000000E+000	-42.1253	0.0000000E+000	0.0000000E+000	0.0000000E+000	42.1253	1.10574	47.8747	-1.98965e-06
630957	3.53864	2.52474	4.34699	-35.507	1086.47	0.459365	-0.00193103	0.0999088	0.0337024	1	38	0.0144353	0.00332076	0	-2.25301e-06	-1	-1	-1	0	0	0	0	0	0	-1	-1	-1	0	0	0	0	0	0	0.187266	0.13361	0.230044	35.507	33.7024	47.2368	58.0273	-54.493	0.0000000E+000	0.0000000E+000	0.0000000E+000	54.493	0.0000000E+000	0.0000000E+000	0.0000000E+000	-54.493	0.0000000E+000	0.0000000E+000	0.0000000E+000	-35.507	0.0000000E+000	0.0000000E+000	0.0000000E+000	35.507	1.40159	54.493	4.09108e-06
501206	3.50937	2.01156	4.045	-29.8212	1087.62	0.459394	-0.000869718	0.15786	0.0390391	1	38	0.0145506	0.00359717	0	-2.75695e-06	-1	-1	-1	0	0	0	0	0	0	-1	-1	-1	0	0	0	0	0	0	0.214482	0.122941	0.247219	29.8212	39.0391	68.1076	78.5028	-60.1788	0.0000000E+000	0.0000000E+000	0.0000000E+000	60.1788	0.0000000E+000	0.0000000E+000	0.0000000E+000	-60.1788	0.0000000E+000	0.0000000E+000	0.0000000E+000	-29.8212	0.0000000E+000	0.0000000E+000	0.0000000E+000	29.8212	1.7446	60.1788	-5.03945e-07
398103	3.46883	1.63672	3.83558	-25.2597	1088.77	0.459372	-0.00121045	0.244258	0.0444773	1	38	0.0145614	0.0037964	0	4.0498e-06	-1	-1	-1	0	0	0	0	0	0	-1	-1	-1	0	0	0	0	0	0	0.235788	0.111254	0.260717	25.2597	44.4773	94.264	104.23	-64.7403	0.0000000E+000	0.0000000E+000	0.0000000E+000	64.7403	0.0000000E+000	0.0000000E+000	0.0000000E+000	-64.7403	0.0000000E+000	0.0000000E+000	0.0000000E+000	-25.2597	0.0000000E+000	0.0000000E+000	0.0000000E+000	25.2597	2.11937	64.7403	6.80675e-06
316230	3.43717	1.36134	3.69694	-21.6068	1089.92	0.459367	-0.0014134	0.3697	0.0501302	1	38	0.0145236	0.00392854	0	-5.32615e-06	-1	-1	-1	0	0	0	0	0	0	-1	-1	-1	0	0	0	0	0	0	0.251487	0.0996052	0.270494	21.6068	50.1302	126.571	136.136	-68.3932	0.0000000E+000	0.0000000E+000	0.0000000E+000	68.3932	0.0000000E+000	0.0000000E+000	0.0000000E+000	-68.3932	0.0000000E+000	0.0000000E+000	0.0000000E+000	-21.6068	0.0000000E+000	0.0000000E+000	0.0000000E+000	21.6068	2.52484	68.3932	-9.37595e-06
251188	3.41215	1.17837	3.60989	-19.0522	1091.06	0.459379	0.000154352	0.537699	0.057295	1	38	0.0145551	0.00403199	0	-2.45375e-06	-1	-1	-1	0	0	0	0	0	0	-1	-1	-1	0	0	0	0	0	0	0.261842	0.0904263	0.277017	19.0522	57.295	165.906	175.521	-70.9478	0.0000000E+000	0.0000000E+000	0.0000000E+000	70.9478	0.0000000E+000	0.0000000E+000	0.0000000E+000	-70.9478	0.0000000E+000	0.0000000E+000	0.0000000E+000	-19.0522	0.0000000E+000	0.0000000E+000	0.0000000E+000	19.0522	2.89564	70.9478	2.87241e-06
199544	3.40532	1.07799	3.57187	-17.5658	1092.21	0.459352	-0.00124396	0.739889	0.0673917	1	38	0.014594	0.00408581	0	-4.12228e-06	-1	-1	-1	0	0	0	0	0	0	-1	-1	-1	0	0	0	0	0	0	0.266911	0.0844936	0.279965	17.5658	67.3916	212.887	223.299	-72.4342	0.0000000E+000	0.0000000E+000	0.0000000E+000	72.4342	0.0000000E+000	0.0000000E+000	0.0000000E+000	-72.4342	0.0000000E+000	0.0000000E+000	0.0000000E+000	-17.5658	0.0000000E+000	0.0000000E+000	0.0000000E+000	17.5658	3.15895	72.4342	-1.66853e-06
158486	3.39807	1.01442	3.54625	-16.6219	1093.36	0.459352	-0.0010708	0.989945	0.0810042	1	38	0.0145904	0.00411431	0	3.95647e-06	-1	-1	-1	0	0	0	0	0	0	-1	-1	-1	0	0	0	0	0	0	0.270205	0.0806638	0.281988	16.6219	81.0042	271.345	283.178	-73.3781	0.0000000E+000	0.0000000E+000	0.0000000E+000	73.3781	0.0000000E+000	0.0000000E+000	0.0000000E+000	-73.3781	0.0000000E+000	0.0000000E+000	0.0000000E+000	-16.6219	0.0000000E+000	0.0000000E+000	0.0000000E+000	16.6219	3.34976	73.3781	8.07874e-06
125909	3.40053	1.01119	3.54769	-16.5606	1094.5	0.459379	-0.00118438	1.25005	0.101556	1	38	0.014567	0.00410605	0	-2.76151e-06	-1	-1	-1	0	0	0	0	0	0	-1	-1	-1	0	0	0	0	0	0	0.270181	0.0803421	0.281873	16.5606	101.556	341.521	356.301	-73.4394	0.0000000E+000	0.0000000E+000	0.0000000E+000	73.4394	0.0000000E+000	0.0000000E+000	0.0000000E+000	-73.4394	0.0000000E+000	0.0000000E+000	0.0000000E+000	-16.5606	0.0000000E+000	0.0000000E+000	0.0000000E+000	16.5606	3.36288	73.4394	-6.71798e-06
100004	3.41309	1.06769	3.57619	-17.3709	1095.65	0.459387	-4.30118e-05	1.49059	0.132864	1	38	0.014535	0.00406437	0	3.98619e-06	0.563404	0.216332	9.07574	2.50404e-05	2.6831e-05	3.11444e-05	3.58931e-05	3.44543e-05	2.36556e-05	0.0739068	0.0491093	0.704947	2.24978e-06	1.04342e-06	1.02478e-06	5.07521e-07	6.89549e-07	6.04023e-07	0.266874	0.0834841	0.279627	17.3709	132.864	424.727	445.023	-72.6291	0.0000000E+000	0.0000000E+000	0.0000000E+000	72.6291	0.0000000E+000	0.0000000E+000	0.0000000E+000	-72.6291	0.0000000E+000	0.0000000E+000	0.0000000E+000	-17.3709	0.0000000E+000	0.0000000E+000	0.0000000E+000	17.3709	3.1967	72.6291	6.7477e-06
79433.3	3.44136	1.16535	3.63332	-18.7077	1096.8	0.459379	-7.6371e-06	1.71934	0.176875	1	38	0.0145679	0.00400953	0	-1.16437e-06	0.481222	0.354707	8.94352	2.5253e-05	2.66514e-05	2.65709e-05	1.32264e-05	2.94623e-05	3.50581e-05	0.0631419	0.0742527	0.711915	1.51851e-06	1.51304e-06	4.92669e-07	2.94393e-07	8.56359e-07	7.27742e-07	0.260689	0.0882774	0.27523	18.7077	176.875	522.325	551.46	-71.2923	0.0000000E+000	0.0000000E+000	0.0000000E+000	71.2923	0.0000000E+000	0.0000000E+000	0.0000000E+000	-71.2923	0.0000000E+000	0.0000000E+000	0.0000000E+000	-18.7077	0.0000000E+000	0.0000000E+000	0.0000000E+000	18.7077	2.95307	71.2923	-5.15057e-06
63093.8	3.46616	1.3208	3.70929	-20.8596	1097.95	0.459379	-0.00101682	1.90984	0.242152	1	38	0.0146116	0.00393919	0	-8.68742e-06	0.465606	0.405654	8.80599	2.63133e-05	2.01883e-05	2.69721e-05	3.51518e-05	1.65314e-05	2.97833e-05	0.0610886	0.0545595	0.713282	9.94177e-07	1.46023e-06	7.37745e-07	7.6097e-07	7.88804e-07	5.38585e-07	0.251923	0.0959966	0.269594	20.8596	242.152	635.48	680.053	-69.1404	0.0000000E+000	0.0000000E+000	0.0000000E+000	69.1404	0.0000000E+000	0.0000000E+000	0.0000000E+000	-69.1404	0.0000000E+000	0.0000000E+000	0.0000000E+000	-20.8596	0.0000000E+000	0.0000000E+000	0.0000000E+000	20.8596	2.6243	69.1404	-7.52305e-06
50122.5	3.49075	1.52341	3.80869	-23.5771	1099.09	0.459366	-0.00038561	2.08435	0.333468	1	38	0.0145296	0.00381484	0	-2.43435e-06	0.491958	0.333285	8.92947	3.83224e-05	3.13278e-05	1.45142e-05	2.62315e-05	1.99442e-05	2.80488e-05	0.066779	0.0419166	0.73949	6.35231e-07	1.5614e-06	5.84474e-07	1.18342e-06	1.17265e-06	4.25255e-07	0.24064	0.105019	0.262558	23.5771	333.468	764.109	833.705	-66.4229	0.0000000E+000	0.0000000E+000	0.0000000E+000	66.4229	0.0000000E+000	0.0000000E+000	0.0000000E+000	-66.4229	0.0000000E+000	0.0000000E+000	0.0000000E+000	-23.5771	0.0000000E+000	0.0000000E+000	0.0000000E+000	23.5771	2.2914	66.4229	6.25307e-06
39814.1	3.55412	1.80965	3.98831	-26.9838	1100.24	0.459387	-0.000769176	2.20896	0.454779	1	38	0.0145857	0.00365711	0	-5.00016e-06	0.459861	0.369968	9.00886	2.29419e-05	1.61264e-05	1.85397e-05	3.06413e-05	1.41578e-05	4.29937e-05	0.053756	0.111409	0.783721	6.97767e-07	1.12333e-06	6.56002e-07	6.64333e-07	6.71865e-07	6.83393e-07	0.223437	0.113767	0.250733	26.9838	454.779	893.178	1002.29	-63.0162	0.0000000E+000	0.0000000E+000	0.0000000E+000	63.0162	0.0000000E+000	0.0000000E+000	0.0000000E+000	-63.0162	0.0000000E+000	0.0000000E+000	0.0000000E+000	-26.9838	0.0000000E+000	0.0000000E+000	0.0000000E+000	26.9838	1.96398	63.0162	-2.56581e-06
31621.1	3.61667	2.17176	4.21863	-30.9842	1101.39	0.459394	-0.00100192	2.31756	0.614203	1	38	0.0146813	0.00348012	0	-1.03488e-05	0.517927	0.344079	9.01146	3.08047e-05	2.42987e-05	3.14868e-05	2.66916e-05	3.06047e-05	2.23551e-05	0.064955	0.109277	0.816998	8.10955e-07	1.65371e-06	5.43828e-07	8.29254e-07	6.95144e-07	2.30655e-07	0.20322	0.122031	0.237044	30.9842	614.203	1022.84	1193.08	-59.0158	0.0000000E+000	0.0000000E+000	0.0000000E+000	59.0158	0.0000000E+000	0.0000000E+000	0.0000000E+000	-59.0158	0.0000000E+000	0.0000000E+000	0.0000000E+000	-30.9842	0.0000000E+000	0.0000000E+000	0.0000000E+000	30.9842	1.66532	59.0158	-5.34867e-06
25116.9	3.67921	2.62894	4.52193	-35.5473	1102.53	0.459357	-0.00041729	2.41031	0.814679	1	38	0.0147499	0.00326185	0	-9.30797e-06	0.475766	0.353769	8.86035	2.30774e-05	2.17845e-05	3.37473e-05	3.01463e-05	3.47849e-05	1.67036e-05	0.0652584	0.100733	0.871589	7.39375e-07	1.02719e-06	1.0267e-06	7.45958e-07	5.51605e-07	6.1765e-07	0.179931	0.128568	0.221144	35.5473	814.679	1140.14	1401.3	-54.4527	0.0000000E+000	0.0000000E+000	0.0000000E+000	54.4527	0.0000000E+000	0.0000000E+000	0.0000000E+000	-54.4527	0.0000000E+000	0.0000000E+000	0.0000000E+000	-35.5473	0.0000000E+000	0.0000000E+000	0.0000000E+000	35.5473	1.3995	54.4527	1.04086e-06
19948.8	3.76415	3.20201	4.94183	-40.3865	1103.68	0.459341	-0.000644468	2.49162	1.04605	1	38	0.0147232	0.0029793	0	-7.58571e-06	0.431337	0.200952	8.86374	3.8179e-05	1.89235e-05	1.43598e-05	2.07622e-05	2.32021e-05	2.35353e-05	0.0691441	0.0648878	0.958301	1.04848e-06	6.91611e-07	9.54598e-07	8.05356e-07	4.3161e-07	5.72309e-07	0.154132	0.131113	0.202354	40.3865	1046.05	1229.69	1614.42	-49.6135	0.0000000E+000	0.0000000E+000	0.0000000E+000	49.6135	0.0000000E+000	0.0000000E+000	0.0000000E+000	-49.6135	0.0000000E+000	0.0000000E+000	0.0000000E+000	-40.3865	0.0000000E+000	0.0000000E+000	0.0000000E+000	40.3865	1.17556	49.6135	1.72227e-06
15847.7	3.88709	3.92536	5.5243	-45.2807	1104.83	0.459364	-0.0015382	2.55844	1.29175	1	38	0.0148709	0.0026919	0	-1.96469e-06	0.389119	0.356304	8.7409	1.57455e-05	2.36431e-05	1.2316e-05	1.27038e-05	2.97014e-05	2.64379e-05	0.103017	0.171424	1.05404	1.98467e-06	1.09258e-06	3.10773e-07	8.47108e-07	5.14888e-07	1.10094e-06	0.127371	0.128625	0.181018	45.2807	1291.75	1279.16	1817.93	-44.7193	0.0000000E+000	0.0000000E+000	0.0000000E+000	44.7193	0.0000000E+000	0.0000000E+000	0.0000000E+000	-44.7193	0.0000000E+000	0.0000000E+000	0.0000000E+000	-45.2807	0.0000000E+000	0.0000000E+000	0.0000000E+000	45.2807	0.990249	44.7193	5.62102e-06
12590.9	4.03449	4.81954	6.28531	-50.067	1105.98	0.459369	-0.0019199	2.62275	1.54211	1	38	0.014719	0.00234181	0	-2.85994e-06	0.447613	0.334418	8.8159	2.5406e-05	1.47155e-05	1.55354e-05	2.92026e-05	1.76817e-05	3.06395e-05	0.137149	0.219509	1.22816	2.81741e-06	1.07585e-06	5.23944e-07	3.3854e-07	5.03832e-07	5.59764e-07	0.102126	0.121998	0.159101	50.067	1542.11	1290.92	2011.11	-39.933	0.0000000E+000	0.0000000E+000	0.0000000E+000	39.933	0.0000000E+000	0.0000000E+000	0.0000000E+000	-39.933	0.0000000E+000	0.0000000E+000	0.0000000E+000	-50.067	0.0000000E+000	0.0000000E+000	0.0000000E+000	50.067	0.83711	39.933	-8.95253e-07
10002.2	4.21354	5.916	7.26313	-54.5405	1107.12	0.459361	-0.000778546	2.68965	1.78445	1	38	0.0145688	0.00200585	0	-7.72996e-06	0.444256	0.280129	8.82209	1.93909e-05	3.58453e-05	2.24087e-05	2.50966e-05	2.12586e-05	2.21877e-05	0.215917	0.183515	1.43684	4.04172e-06	7.42592e-07	3.41275e-07	8.13743e-07	4.97083e-07	6.75696e-07	0.079873	0.112145	0.137682	54.5405	1784.45	1270.94	2190.79	-35.4595	0.0000000E+000	0.0000000E+000	0.0000000E+000	35.4595	0.0000000E+000	0.0000000E+000	0.0000000E+000	-35.4595	0.0000000E+000	0.0000000E+000	0.0000000E+000	-54.5405	0.0000000E+000	0.0000000E+000	0.0000000E+000	54.5405	0.712228	35.4595	-4.87002e-06
7944	4.46264	7.26575	8.5268	-58.4417	1108.3	0.459239	-0.00209307	2.7574	2.00212	1	38	0.0145073	0.00170137	0	-9.55777e-06	0.465325	0.210018	8.94052	2.60673e-05	2.97814e-05	2.25754e-05	4.34254e-05	7.5354e-06	1.48264e-05	0.303683	0.167033	1.70407	4.96619e-06	5.43695e-07	4.96888e-07	3.34394e-07	1.00703e-06	5.06106e-07	0.061379	0.0999329	0.117277	58.4417	2002.12	1229.7	2349.61	-31.5583	0.0000000E+000	0.0000000E+000	0.0000000E+000	31.5583	0.0000000E+000	0.0000000E+000	0.0000000E+000	-31.5583	0.0000000E+000	0.0000000E+000	0.0000000E+000	-58.4417	0.0000000E+000	0.0000000E+000	0.0000000E+000	58.4417	0.614202	31.5583	-1.82782e-06
6307.74	4.78417	8.94079	10.1403	-61.849	1109.35	0.459232	-0.00172443	2.82209	2.19392	1	38	0.0143247	0.00141265	0	-1.11806e-05	0.513691	0.271793	8.98342	3.85307e-05	3.46536e-05	2.24594e-05	1.37094e-05	2.34214e-05	2.53874e-05	0.465645	0.194367	2.00052	6.32009e-06	9.68933e-07	6.59469e-07	5.00627e-07	6.14481e-07	9.58533e-07	0.0465269	0.0869507	0.0986163	61.849	2193.91	1173.95	2488.26	-28.151	0.0000000E+000	0.0000000E+000	0.0000000E+000	28.151	0.0000000E+000	0.0000000E+000	0.0000000E+000	-28.151	0.0000000E+000	0.0000000E+000	0.0000000E+000	-61.849	0.0000000E+000	0.0000000E+000	0.0000000E+000	61.849	0.535095	28.151	-1.62287e-06
5011.6	5.2005	10.9847	12.1535	-64.6656	1110.47	0.45925	-0.00174863	2.89105	2.3617	1	38	0.013615	0.00112025	0	-1.08714e-05	0.611992	0.282875	9.40072	5.49073e-05	2.91634e-05	2.18112e-05	1.77922e-05	3.32494e-05	1.55725e-05	0.605835	0.156115	2.58159	6.54932e-06	1.09904e-06	5.62119e-07	1.03187e-06	2.0623e-07	5.52884e-07	0.0352079	0.0743673	0.0822806	64.6656	2361.7	1118.11	2613.01	-25.3344	0.0000000E+000	0.0000000E+000	0.0000000E+000	25.3344	0.0000000E+000	0.0000000E+000	0.0000000E+000	-25.3344	0.0000000E+000	0.0000000E+000	0.0000000E+000	-64.6656	0.0000000E+000	0.0000000E+000	0.0000000E+000	64.6656	0.473432	25.3344	3.0922e-07
3981.28	5.71602	13.5046	14.6645	-67.0587	1111.58	0.459252	-0.00183429	2.96017	2.51042	1	38	0.0129694	0.00088441	0	-1.19261e-05	0.622051	0.325963	9.86981	3.69986e-05	3.57518e-05	3.31243e-05	1.69433e-05	2.93342e-05	1.5427e-05	0.641293	0.170042	3.26019	5.30183e-06	1.69992e-06	3.35667e-07	5.56171e-07	6.05571e-07	3.65127e-07	0.0265805	0.0627984	0.0681921	67.0587	2510.42	1062.58	2726.04	-22.9413	0.0000000E+000	0.0000000E+000	0.0000000E+000	22.9413	0.0000000E+000	0.0000000E+000	0.0000000E+000	-22.9413	0.0000000E+000	0.0000000E+000	0.0000000E+000	-67.0587	0.0000000E+000	0.0000000E+000	0.0000000E+000	67.0587	0.423266	22.9413	-1.05464e-06
3163.04	6.39263	16.5388	17.7313	-68.8673	1112.9	0.459247	-0.0029347	3.04236	2.64691	1	38	0.0139865	0.000788806	0	-1.32027e-05	0.441475	0.256818	9.16966	3.18539e-05	2.27579e-05	2.19661e-05	3.30895e-05	1.39171e-05	1.80463e-05	0.770552	0.146334	3.6408	5.254e-06	2.65898e-06	6.6485e-07	9.93628e-07	4.85132e-07	5.42309e-07	0.0203329	0.0526047	0.0563975	68.8673	2646.91	1023.09	2837.76	-21.1327	0.0000000E+000	0.0000000E+000	0.0000000E+000	21.1327	0.0000000E+000	0.0000000E+000	0.0000000E+000	-21.1327	0.0000000E+000	0.0000000E+000	0.0000000E+000	-68.8673	0.0000000E+000	0.0000000E+000	0.0000000E+000	68.8673	0.386523	21.1327	-1.27664e-06
2512.41	7.23886	20.226	21.4824	-70.3078	1114.01	0.459231	-0.00278947	3.13198	2.77636	1	38	0.0136155	0.0006338	0	-1.43663e-05	0.555641	0.19398	9.54827	1.84897e-05	3.66385e-05	1.40972e-05	4.24624e-05	2.79053e-05	3.04713e-05	0.864603	0.136781	4.48568	4.63865e-06	2.69698e-06	5.05355e-07	6.32646e-07	2.54858e-07	5.19345e-07	0.0156858	0.0438274	0.0465498	70.3078	2776.36	993.654	2948.81	-19.6922	0.0000000E+000	0.0000000E+000	0.0000000E+000	19.6922	0.0000000E+000	0.0000000E+000	0.0000000E+000	-19.6922	0.0000000E+000	0.0000000E+000	0.0000000E+000	-70.3078	0.0000000E+000	0.0000000E+000	0.0000000E+000	70.3078	0.357899	19.6922	-1.16364e-06
1995.64	8.33641	24.6657	26.0363	-71.326	1115.12	0.459243	-0.00354728	3.2333	2.90183	1	38	0.0133397	0.000512348	0	-1.53673e-05	0.410797	0.270372	9.50458	3.12949e-05	2.39671e-05	1.74349e-05	1.72778e-05	1.69178e-05	1.36243e-05	0.870348	0.221407	5.54099	3.23106e-06	2.57047e-06	5.00254e-07	1.36571e-06	4.77192e-07	2.76831e-07	0.0122976	0.0363859	0.0384079	71.326	2901.83	980.749	3063.08	-18.674	0.0000000E+000	0.0000000E+000	0.0000000E+000	18.674	0.0000000E+000	0.0000000E+000	0.0000000E+000	-18.674	0.0000000E+000	0.0000000E+000	0.0000000E+000	-71.326	0.0000000E+000	0.0000000E+000	0.0000000E+000	71.326	0.337976	18.674	-1.00094e-06
1584.49	9.67036	30.1103	31.625	-72.1948	1116.22	0.459228	-0.00209125	3.33592	3.024	1	38	0.0131908	0.0004171	0	-1.58561e-05	0.441021	0.246655	9.56921	1.66606e-05	1.73788e-05	3.02836e-05	2.64537e-05	1.86666e-05	2.08021e-05	0.991163	0.124413	6.8087	3.1725e-06	1.72831e-06	6.43588e-07	1.61066e-06	2.11662e-07	6.38956e-07	0.00966897	0.0301059	0.0316205	72.1948	3024	971.204	3176.13	-17.8052	0.0000000E+000	0.0000000E+000	0.0000000E+000	17.8052	0.0000000E+000	0.0000000E+000	0.0000000E+000	-17.8052	0.0000000E+000	0.0000000E+000	0.0000000E+000	-72.1948	0.0000000E+000	0.0000000E+000	0.0000000E+000	72.1948	0.321165	17.8052	-4.88838e-07
1258.79	11.4408	36.7296	38.4702	-72.6988	1117.58	0.459236	-0.000337552	3.44231	3.13786	1	39	0.0147275	0.000382827	0	-1.575e-05	0.518488	0.376474	8.25928	3.18126e-05	4.63829e-05	2.0601e-05	2.42045e-05	1.96947e-05	3.04797e-05	1.38125	0.157943	3.28387	4.72646e-06	2.25049e-06	3.44114e-07	4.17416e-07	3.41589e-07	2.2262e-07	0.00773051	0.024818	0.0259941	72.6988	3137.86	977.405	3286.56	-17.3012	0.0000000E+000	0.0000000E+000	0.0000000E+000	17.3012	0.0000000E+000	0.0000000E+000	0.0000000E+000	-17.3012	0.0000000E+000	0.0000000E+000	0.0000000E+000	-72.6988	0.0000000E+000	0.0000000E+000	0.0000000E+000	72.6988	0.311488	17.3012	1.0608e-07
999.682	13.6337	44.742	46.7731	-73.0531	1118.69	0.459244	-0.000145399	3.5583	3.25598	1	39	0.0140504	0.000300394	0	-1.56908e-05	0.486768	0.302568	8.53418	3.16412e-05	3.52007e-05	1.20214e-05	2.8519e-05	2.23099e-05	2.15521e-05	1.22323	0.182176	4.09903	3.01984e-06	1.90988e-06	1.84298e-07	7.72782e-07	1.74298e-07	1.65156e-07	0.00623189	0.0204514	0.0213798	73.0531	3255.98	992.153	3403.78	-16.9469	0.0000000E+000	0.0000000E+000	0.0000000E+000	16.9469	0.0000000E+000	0.0000000E+000	0.0000000E+000	-16.9469	0.0000000E+000	0.0000000E+000	0.0000000E+000	-73.0531	0.0000000E+000	0.0000000E+000	0.0000000E+000	73.0531	0.304717	16.9469	5.92322e-08
794.239	16.4059	54.4862	56.9026	-73.2429	1119.8	0.459222	-6.7121e-05	3.67775	3.37203	1	39	0.01366	0.000240059	0	-1.59182e-05	0.499118	0.339931	9.02154	3.97349e-05	1.83529e-05	1.13617e-05	2.46642e-05	2.14644e-05	3.02918e-05	1.04404	0.209419	5.31796	1.96197e-06	1.15924e-06	2.07704e-07	8.61914e-07	1.40419e-07	3.89789e-07	0.00506683	0.0168276	0.0175739	73.2429	3372.03	1015.33	3521.58	-16.7571	0.0000000E+000	0.0000000E+000	0.0000000E+000	16.7571	0.0000000E+000	0.0000000E+000	0.0000000E+000	-16.7571	0.0000000E+000	0.0000000E+000	0.0000000E+000	-73.2429	0.0000000E+000	0.0000000E+000	0.0000000E+000	73.2429	0.301102	16.7571	-2.27439e-07
631.01	19.958	65.8822	68.8388	-73.1466	1120.9	0.459243	-0.00024064	3.82839	3.50659	1	39	0.0133599	0.000194075	0	-1.5752e-05	0.562147	0.385901	9.18151	4.7161e-05	2.53818e-05	1.97582e-05	3.4727e-05	1.89907e-05	2.3597e-05	1.01747	0.226294	6.50341	1.3117e-06	9.95815e-07	1.6886e-07	9.71743e-07	3.00672e-07	2.57895e-07	0.00421162	0.0139028	0.0145267	73.1466	3506.59	1062.27	3663.96	-16.8534	0.0000000E+000	0.0000000E+000	0.0000000E+000	16.8534	0.0000000E+000	0.0000000E+000	0.0000000E+000	-16.8534	0.0000000E+000	0.0000000E+000	0.0000000E+000	-73.1466	0.0000000E+000	0.0000000E+000	0.0000000E+000	73.1466	0.302934	16.8534	1.66268e-07
501.122	24.2461	79.7928	83.3952	-73.0979	1122.01	0.459251	-2.66792e-05	3.98027	3.64383	1	39	0.0131923	0.00015819	0	-1.58758e-05	0.571656	0.27658	9.21435	3.14174e-05	1.63213e-05	3.2374e-05	3.96334e-05	2.95338e-05	1.75641e-05	1.04529	0.196366	7.90219	1.02999e-06	6.71696e-07	3.90567e-07	8.95209e-07	3.12128e-07	2.38136e-07	0.00348626	0.0114731	0.0119911	73.0979	3643.83	1107.23	3808.34	-16.9021	0.0000000E+000	0.0000000E+000	0.0000000E+000	16.9021	0.0000000E+000	0.0000000E+000	0.0000000E+000	-16.9021	0.0000000E+000	0.0000000E+000	0.0000000E+000	-73.0979	0.0000000E+000	0.0000000E+000	0.0000000E+000	73.0979	0.303863	16.9021	-1.23862e-07
398.089	29.4776	96.5443	100.944	-73.0211	1123.12	0.459273	8.38427e-05	4.14108	3.78795	1	39	0.0130924	0.000129699	0	-1.59162e-05	0.615816	0.222743	9.38012	3.7465e-05	2.32838e-05	1.84568e-05	5.03286e-05	2.11303e-05	2.48576e-05	1.05471	0.301145	9.96963	9.49172e-07	5.67214e-07	3.08256e-07	5.42846e-07	3.09295e-07	2.36387e-07	0.00289288	0.00947467	0.00990647	73.0211	3787.95	1156.57	3960.58	-16.9789	0.0000000E+000	0.0000000E+000	0.0000000E+000	16.9789	0.0000000E+000	0.0000000E+000	0.0000000E+000	-16.9789	0.0000000E+000	0.0000000E+000	0.0000000E+000	-73.0211	0.0000000E+000	0.0000000E+000	0.0000000E+000	73.0211	0.305328	16.9789	-4.03679e-08
316.316	36.5914	116.338	121.957	-72.5403	1124.22	0.459263	-0.000165906	4.3249	3.93557	1	39	0.0130045	0.000106632	0	-1.5912e-05	0.553984	0.202401	9.5454	3.53901e-05	2.18565e-05	2.83679e-05	3.21159e-05	1.92635e-05	2.70665e-05	1.07684	0.240752	11.8821	7.39979e-07	4.81983e-07	3.12694e-07	4.10443e-07	2.61007e-07	3.5588e-07	0.00246016	0.00782182	0.00819959	72.5403	3935.57	1237.84	4125.64	-17.4597	0.0000000E+000	0.0000000E+000	0.0000000E+000	17.4597	0.0000000E+000	0.0000000E+000	0.0000000E+000	-17.4597	0.0000000E+000	0.0000000E+000	0.0000000E+000	-72.5403	0.0000000E+000	0.0000000E+000	0.0000000E+000	72.5403	0.314526	17.4597	4.2296e-09
251.206	45.0733	140.484	147.537	-72.2115	1125.32	0.459272	-0.000291899	4.50987	4.08895	1	39	0.0129687	8.79009e-05	0	-1.58937e-05	0.506648	0.29465	9.51164	2.47389e-05	2.41016e-05	2.87356e-05	2.8977e-05	1.37984e-05	2.95742e-05	1.03321	0.438305	14.4468	5.83649e-07	3.59755e-07	2.36024e-07	4.01033e-07	1.98867e-07	1.61834e-07	0.00207069	0.00645389	0.00677794	72.2115	4088.95	1311.91	4294.26	-17.7885	0.0000000E+000	0.0000000E+000	0.0000000E+000	17.7885	0.0000000E+000	0.0000000E+000	0.0000000E+000	-17.7885	0.0000000E+000	0.0000000E+000	0.0000000E+000	-72.2115	0.0000000E+000	0.0000000E+000	0.0000000E+000	72.2115	0.320843	17.7885	1.83145e-08
199.553	55.4686	169.12	177.985	-71.8414	1126.43	0.459276	-0.000145592	4.7159	4.25787	1	39	0.0129278	7.26346e-05	0	-1.59732e-05	0.498669	0.253327	9.61779	2.13501e-05	2.54116e-05	2.06955e-05	2.5681e-05	2.84718e-05	1.71464e-05	1.17195	0.432353	17.4108	4.80507e-07	4.33483e-07	2.71528e-07	2.75498e-07	2.09886e-07	2.91828e-07	0.00175099	0.00533865	0.00561847	71.8414	4257.87	1396.51	4481.04	-18.1586	0.0000000E+000	0.0000000E+000	0.0000000E+000	18.1586	0.0000000E+000	0.0000000E+000	0.0000000E+000	-18.1586	0.0000000E+000	0.0000000E+000	0.0000000E+000	-71.8414	0.0000000E+000	0.0000000E+000	0.0000000E+000	71.8414	0.327983	18.1586	-7.95799e-08
158.529	68.9335	203.109	214.488	-71.2532	1127.54	0.459253	7.99273e-05	4.9429	4.43236	1	39	0.012911	6.01947e-05	0	-1.60167e-05	0.484834	0.255901	9.29919	2.21281e-05	2.58154e-05	2.42405e-05	1.29835e-05	3.05971e-05	2.82172e-05	1.50356	0.536266	21.3371	4.64517e-07	4.89237e-07	2.24825e-07	3.18789e-07	2.40913e-07	3.01723e-07	0.00149839	0.00441492	0.00466227	71.2532	4432.36	1504.3	4680.68	-18.7468	0.0000000E+000	0.0000000E+000	0.0000000E+000	18.7468	0.0000000E+000	0.0000000E+000	0.0000000E+000	-18.7468	0.0000000E+000	0.0000000E+000	0.0000000E+000	-71.2532	0.0000000E+000	0.0000000E+000	0.0000000E+000	71.2532	0.339391	18.7468	-4.34838e-08
125.927	85.972	243.246	257.992	-70.5347	1128.9	0.459272	-8.16246e-05	5.19585	4.61887	1	40	0.01319	5.11256e-05	0	-1.59683e-05	0.735581	0.585991	14.9565	6.40883e-05	2.45719e-05	3.27615e-05	2.38695e-05	3.91478e-05	2.60969e-05	1.00348	0.207864	5.06678	3.74991e-07	2.21458e-07	3.03758e-08	2.53783e-07	6.2402e-08	3.12361e-08	0.00129165	0.00365455	0.00387609	70.5347	4618.87	1632.48	4898.87	-19.4653	0.0000000E+000	0.0000000E+000	0.0000000E+000	19.4653	0.0000000E+000	0.0000000E+000	0.0000000E+000	-19.4653	0.0000000E+000	0.0000000E+000	0.0000000E+000	-70.5347	0.0000000E+000	0.0000000E+000	0.0000000E+000	70.5347	0.353436	19.4653	4.84179e-08
99.9682	107.068	290.506	309.609	-69.7683	1129.98	0.459272	-0.00012564	5.48028	4.8249	1	40	0.0130463	4.21381e-05	0	-1.60355e-05	0.778298	0.441227	14.8254	4.16976e-05	3.35669e-05	3.11205e-05	3.42141e-05	5.32373e-05	3.81919e-05	1.06316	0.206613	5.98918	3.63214e-07	1.57867e-07	2.58355e-08	1.85377e-07	5.82327e-08	5.22154e-08	0.00111695	0.00303061	0.00322988	69.7683	4824.9	1778.25	5142.16	-20.2317	0.0000000E+000	0.0000000E+000	0.0000000E+000	20.2317	0.0000000E+000	0.0000000E+000	0.0000000E+000	-20.2317	0.0000000E+000	0.0000000E+000	0.0000000E+000	-69.7683	0.0000000E+000	0.0000000E+000	0.0000000E+000	69.7683	0.368557	20.2317	-6.72369e-08
79.4157	134.252	347.82	372.831	-68.8944	1131.05	0.459254	-8.21651e-05	5.7618	5.01471	1	40	0.0130071	3.48875e-05	0	-1.60394e-05	0.720831	0.373946	14.6531	1.75065e-05	3.83957e-05	4.17166e-05	3.63829e-05	4.557e-05	3.52455e-05	0.960476	0.178549	7.13822	2.64456e-07	1.11158e-07	5.51629e-08	1.33472e-07	6.37398e-08	5.42295e-08	0.000965823	0.00250226	0.00268218	68.8944	5014.71	1935.58	5375.29	-21.1056	0.0000000E+000	0.0000000E+000	0.0000000E+000	21.1056	0.0000000E+000	0.0000000E+000	0.0000000E+000	-21.1056	0.0000000E+000	0.0000000E+000	0.0000000E+000	-68.8944	0.0000000E+000	0.0000000E+000	0.0000000E+000	68.8944	0.385981	21.1056	-3.86053e-09
63.0823	166.152	413.356	445.499	-68.102	1132.14	0.459264	-5.8323e-05	6.10364	5.25464	1	40	0.0129425	2.90516e-05	0	-1.60602e-05	0.747922	0.472333	14.3641	5.66154e-05	2.27105e-05	3.70982e-05	2.12157e-05	5.15251e-05	2.78531e-05	0.940703	0.309423	8.42034	1.90312e-07	1.22347e-07	4.55744e-08	1.08275e-07	5.81415e-08	4.55662e-08	0.000837164	0.00208272	0.00224467	68.102	5254.64	2112.14	5663.25	-21.898	0.0000000E+000	0.0000000E+000	0.0000000E+000	21.898	0.0000000E+000	0.0000000E+000	0.0000000E+000	-21.898	0.0000000E+000	0.0000000E+000	0.0000000E+000	-68.102	0.0000000E+000	0.0000000E+000	0.0000000E+000	68.102	0.401958	21.898	-2.07728e-08
50.1122	208.874	490.22	532.864	-66.922	1133.2	0.459221	-3.80943e-05	6.47867	5.48321	1	40	0.0129163	2.42395e-05	0	-1.60591e-05	0.588153	0.541994	14.6885	4.01849e-05	3.47842e-05	2.32266e-05	2.23132e-05	3.52072e-05	1.37575e-05	1.13068	0.313442	10.3235	2.18476e-07	1.01998e-07	4.38031e-08	7.50285e-08	5.83129e-08	5.24925e-08	0.000735617	0.00172647	0.00187665	66.922	5483.21	2336.3	5960.19	-23.078	0.0000000E+000	0.0000000E+000	0.0000000E+000	23.078	0.0000000E+000	0.0000000E+000	0.0000000E+000	-23.078	0.0000000E+000	0.0000000E+000	0.0000000E+000	-66.922	0.0000000E+000	0.0000000E+000	0.0000000E+000	66.922	0.426082	23.078	1.12092e-09
39.8089	262.885	581.562	638.219	-65.6755	1134.27	0.45923	-1.34325e-05	6.87454	5.70817	1	40	0.0129058	2.02215e-05	0	-1.6102e-05	0.905491	0.365571	15.0034	5.11034e-05	3.30397e-05	4.77228e-05	4.94322e-05	6.52286e-05	1.86226e-05	1.3214	0.222686	12.6473	1.89643e-07	1.31616e-07	2.80681e-08	6.66205e-08	8.58452e-08	4.95965e-08	0.000645397	0.00142776	0.00156686	65.6755	5708.17	2580.28	6264.26	-24.3245	0.0000000E+000	0.0000000E+000	0.0000000E+000	24.3245	0.0000000E+000	0.0000000E+000	0.0000000E+000	-24.3245	0.0000000E+000	0.0000000E+000	0.0000000E+000	-65.6755	0.0000000E+000	0.0000000E+000	0.0000000E+000	65.6755	0.452033	24.3245	-4.29906e-08
31.6296	330.292	680.246	756.193	-64.1012	1135.31	0.459307	-0.000111261	7.39708	5.98587	1	40	0.0128714	1.70213e-05	0	-1.6135e-05	0.814096	0.292297	14.8258	3.56385e-05	2.6224e-05	2.3901e-05	4.5668e-05	4.97694e-05	4.97957e-05	1.25204	0.31345	14.8746	1.56284e-07	7.66557e-08	1.87827e-08	9.25345e-08	5.85118e-08	3.91938e-08	0.000577607	0.0011896	0.00132241	64.1012	5985.87	2906.43	6654.17	-25.8988	0.0000000E+000	0.0000000E+000	0.0000000E+000	25.8988	0.0000000E+000	0.0000000E+000	0.0000000E+000	-25.8988	0.0000000E+000	0.0000000E+000	0.0000000E+000	-64.1012	0.0000000E+000	0.0000000E+000	0.0000000E+000	64.1012	0.485548	25.8988	-3.29259e-08
25.1206	418.099	800.553	903.157	-62.4236	1136.38	0.459249	-4.27886e-05	7.91407	6.21805	1	40	0.012908	1.42921e-05	0	-1.6197e-05	0.700193	0.337892	14.9668	5.31125e-05	3.00884e-05	2.30662e-05	3.40028e-05	2.38652e-05	3.96235e-05	1.36997	0.400382	17.812	1.49587e-07	8.7647e-08	2.65676e-08	5.95289e-08	2.37039e-08	3.93001e-08	0.000512569	0.00098144	0.00110723	62.4236	6218.05	3247.45	7014.99	-27.5764	0.0000000E+000	0.0000000E+000	0.0000000E+000	27.5764	0.0000000E+000	0.0000000E+000	0.0000000E+000	-27.5764	0.0000000E+000	0.0000000E+000	0.0000000E+000	-62.4236	0.0000000E+000	0.0000000E+000	0.0000000E+000	62.4236	0.522263	27.5764	-6.20414e-08
19.9553	530.382	929.602	1070.26	-60.2932	1137.45	0.459252	-2.88558e-05	8.57954	6.47256	1	40	0.0129048	1.20576e-05	0	-1.61958e-05	0.671099	0.40701	14.955	3.0205e-05	4.70243e-05	2.70504e-05	2.97326e-05	3.96748e-05	1.88975e-05	1.34356	0.663231	20.7472	9.54656e-08	7.04245e-08	3.89729e-08	5.70512e-08	5.60627e-08	3.85637e-08	0.000463028	0.00081155	0.000934349	60.2932	6472.56	3692.91	7451.95	-29.7068	0.0000000E+000	0.0000000E+000	0.0000000E+000	29.7068	0.0000000E+000	0.0000000E+000	0.0000000E+000	-29.7068	0.0000000E+000	0.0000000E+000	0.0000000E+000	-60.2932	0.0000000E+000	0.0000000E+000	0.0000000E+000	60.2932	0.570548	29.7068	1.22712e-09
15.8469	665.507	1061.11	1252.53	-57.9048	1138.49	0.459254	-6.5234e-05	9.46495	6.79291	1	40	0.0128678	1.02734e-05	0	-1.62622e-05	0.770381	0.45435	14.8855	3.42228e-05	4.48227e-05	3.5913e-05	4.84812e-05	3.43298e-05	2.59671e-05	1.31302	0.941222	24.451	6.6014e-08	5.18404e-08	4.98972e-08	6.57644e-08	4.50343e-08	3.34617e-08	0.000424202	0.000676361	0.000798381	57.9048	6792.91	4260.39	8018.39	-32.0952	0.0000000E+000	0.0000000E+000	0.0000000E+000	32.0952	0.0000000E+000	0.0000000E+000	0.0000000E+000	-32.0952	0.0000000E+000	0.0000000E+000	0.0000000E+000	-57.9048	0.0000000E+000	0.0000000E+000	0.0000000E+000	57.9048	0.627182	32.0952	-6.64009e-08
12.5873	824.995	1210.23	1464.67	-55.7183	1139.95	0.459255	-5.69917e-05	10.4477	7.13302	1	41	0.0129073	8.81239e-06	0	-1.61907e-05	0.822174	0.304155	13.3484	5.85852e-05	3.34078e-05	1.85681e-05	3.82018e-05	3.55888e-05	3.95243e-05	0.971538	0.0985849	3.93877	7.057e-08	3.45167e-08	2.3103e-08	2.13234e-08	4.91578e-09	5.64797e-09	0.000384566	0.000564139	0.000682747	55.7183	7133.02	4862.48	8632.71	-34.2817	0.0000000E+000	0.0000000E+000	0.0000000E+000	34.2817	0.0000000E+000	0.0000000E+000	0.0000000E+000	-34.2817	0.0000000E+000	0.0000000E+000	0.0000000E+000	-55.7183	0.0000000E+000	0.0000000E+000	0.0000000E+000	55.7183	0.681687	34.2817	7.1482e-08
9.99682	1031.21	1356.08	1703.63	-52.7494	1141.01	0.459273	-6.92539e-05	11.7401	7.43865	1	41	0.0129024	7.57349e-06	0	-1.62692e-05	1.21604	0.642404	18.7912	5.69989e-05	7.6994e-05	7.83331e-05	4.44543e-05	3.15721e-05	4.91853e-05	0.985303	0.22939	6.23022	5.90503e-08	1.79795e-08	1.59943e-08	3.57542e-08	6.76258e-09	6.91467e-09	0.000355301	0.000467235	0.000586982	52.7494	7438.65	5656.6	9345.09	-37.2506	0.0000000E+000	0.0000000E+000	0.0000000E+000	37.2506	0.0000000E+000	0.0000000E+000	0.0000000E+000	-37.2506	0.0000000E+000	0.0000000E+000	0.0000000E+000	-52.7494	0.0000000E+000	0.0000000E+000	0.0000000E+000	52.7494	0.760433	37.2506	-7.84564e-08
7.93956	1275.21	1488.46	1960.02	-49.4124	1142.22	0.459275	-6.57817e-05	13.4675	7.76678	1	41	0.0128887	6.57582e-06	0	-1.62507e-05	0.57058	0.414361	13.6016	1.57828e-05	1.83083e-05	2.80213e-05	3.68962e-05	3.17651e-05	3.45696e-05	0.890882	0.148481	5.30187	4.7237e-08	2.4751e-08	6.50701e-09	1.29296e-08	1.52722e-08	8.51966e-09	0.00033194	0.000387452	0.000510199	49.4124	7766.78	6654.01	10227.4	-40.5876	0.0000000E+000	0.0000000E+000	0.0000000E+000	40.5876	0.0000000E+000	0.0000000E+000	0.0000000E+000	-40.5876	0.0000000E+000	0.0000000E+000	0.0000000E+000	-49.4124	0.0000000E+000	0.0000000E+000	0.0000000E+000	49.4124	0.856727	40.5876	1.84261e-08
6.31058	1553.86	1605.01	2233.95	-45.9277	1143.6	0.459299	-6.69792e-05	15.7135	8.11115	1	41	0.0128896	5.76987e-06	0	-1.62665e-05	0.867129	0.44939	13.2843	3.46884e-05	4.43546e-05	3.48406e-05	6.21441e-05	4.49928e-05	2.52431e-05	0.926425	0.196081	5.93729	4.73798e-08	1.58894e-08	8.22476e-09	1.09516e-08	7.60785e-09	5.0411e-09	0.000311361	0.000321611	0.000447638	45.9277	8111.15	7852.64	11289.6	-44.0723	0.0000000E+000	0.0000000E+000	0.0000000E+000	44.0723	0.0000000E+000	0.0000000E+000	0.0000000E+000	-44.0723	0.0000000E+000	0.0000000E+000	0.0000000E+000	-45.9277	0.0000000E+000	0.0000000E+000	0.0000000E+000	45.9277	0.968129	44.0723	-1.57196e-08
5.01283	1862.29	1688.57	2513.84	-42.1991	1145.22	0.459269	-6.41059e-05	18.8026	8.48361	1	41	0.0128762	5.12211e-06	0	-1.62843e-05	0.571479	0.315054	10.243	3.36172e-05	2.41326e-05	2.05308e-05	2.84443e-05	3.50006e-05	2.15588e-05	0.942624	0.235276	5.2487	4.1556e-08	1.95322e-08	6.50547e-09	8.46447e-09	7.74428e-09	4.51338e-09	0.000294695	0.000267204	0.000397798	42.1991	8483.61	9356.41	12629.9	-47.8009	0.0000000E+000	0.0000000E+000	0.0000000E+000	47.8009	0.0000000E+000	0.0000000E+000	0.0000000E+000	-47.8009	0.0000000E+000	0.0000000E+000	0.0000000E+000	-42.1991	0.0000000E+000	0.0000000E+000	0.0000000E+000	42.1991	1.10288	47.8009	-1.78606e-08
3.9819	2195.31	1733.08	2796.96	-38.2892	1147.14	0.459297	-6.83471e-05	23.0627	8.85477	1	41	0.0128806	4.6052e-06	0	-1.64133e-05	0.450226	0.220737	9.12259	2.60866e-05	1.3178e-05	2.7883e-05	1.93656e-05	2.14166e-05	2.27546e-05	0.842402	0.131849	5.23558	3.18323e-08	1.74108e-08	5.45108e-09	1.01563e-08	4.0871e-09	4.23357e-09	0.000280624	0.000221538	0.000357531	38.2892	8854.77	11216.4	14290.4	-51.7108	0.0000000E+000	0.0000000E+000	0.0000000E+000	51.7108	0.0000000E+000	0.0000000E+000	0.0000000E+000	-51.7108	0.0000000E+000	0.0000000E+000	0.0000000E+000	-38.2892	0.0000000E+000	0.0000000E+000	0.0000000E+000	38.2892	1.26671	51.7108	-1.28953e-07
3.16296	2534.21	1726.26	3066.3	-34.2621	1149.45	0.459266	-6.62906e-05	29.1488	9.23856	1	41	0.012877	4.19954e-06	0	-1.63663e-05	0.401444	0.201696	8.25935	1.46506e-05	1.81176e-05	9.9766e-06	2.70174e-05	2.44129e-05	2.21941e-05	0.938372	0.134966	5.22845	3.26349e-08	1.87895e-08	2.52682e-09	8.8727e-09	4.70395e-09	4.46275e-09	0.000269534	0.000183602	0.000326126	34.2621	9238.56	13562.5	16410.1	-55.7379	0.0000000E+000	0.0000000E+000	0.0000000E+000	55.7379	0.0000000E+000	0.0000000E+000	0.0000000E+000	-55.7379	0.0000000E+000	0.0000000E+000	0.0000000E+000	-34.2621	0.0000000E+000	0.0000000E+000	0.0000000E+000	34.2621	1.46803	55.7379	4.70092e-08
2.51085	2862.83	1672.69	3315.67	-30.2969	1152.26	0.459287	-6.63179e-05	37.8952	9.64435	1	41	0.012872	3.88216e-06	0	-1.64124e-05	0.361387	0.270206	7.01344	1.42282e-05	2.1986e-05	1.91821e-05	1.96862e-05	1.23862e-05	1.54014e-05	0.880779	0.143836	4.89298	3.00517e-08	1.31062e-08	3.39644e-09	6.91001e-09	2.60847e-09	2.74723e-09	0.000260406	0.00015215	0.000301598	30.2969	9644.35	16506.4	19117.4	-59.7031	0.0000000E+000	0.0000000E+000	0.0000000E+000	59.7031	0.0000000E+000	0.0000000E+000	0.0000000E+000	-59.7031	0.0000000E+000	0.0000000E+000	0.0000000E+000	-30.2969	0.0000000E+000	0.0000000E+000	0.0000000E+000	30.2969	1.71151	59.7031	-4.61422e-08
1.99553	3161.55	1589.52	3538.64	-26.6918	1155.68	0.459285	-6.63773e-05	50.1757	10.1241	1	41	0.0128728	3.63779e-06	0	-1.65427e-05	0.340693	0.174158	6.21039	1.74051e-05	1.44058e-05	1.41632e-05	2.05006e-05	1.90288e-05	1.17925e-05	0.799432	0.0946968	4.7666	2.44324e-08	1.39145e-08	3.50491e-09	4.1285e-09	2.92456e-09	1.5231e-09	0.00025248	0.000126939	0.000282594	26.6918	10124.1	20136.7	22538.5	-63.3082	0.0000000E+000	0.0000000E+000	0.0000000E+000	63.3082	0.0000000E+000	0.0000000E+000	0.0000000E+000	-63.3082	0.0000000E+000	0.0000000E+000	0.0000000E+000	-26.6918	0.0000000E+000	0.0000000E+000	0.0000000E+000	26.6918	1.98899	63.3082	-1.3028e-07
1.58533	3423.62	1477.8	3728.95	-23.3474	1161.2	0.459288	-7.09546e-05	67.9337	10.6695	1	42	0.0128678	3.45078e-06	0	-1.67635e-05	0.290491	0.15083	5.78547	1.18163e-05	2.00795e-05	1.09157e-05	2.18621e-05	5.64289e-06	1.00232e-05	0.798318	0.0349014	1.32412	2.4556e-08	1.13213e-08	5.40106e-10	5.1286e-09	6.09138e-10	6.73894e-10	0.000246214	0.000106278	0.000268172	23.3474	10669.5	24718	26922.5	-66.6526	0.0000000E+000	0.0000000E+000	0.0000000E+000	66.6526	0.0000000E+000	0.0000000E+000	0.0000000E+000	-66.6526	0.0000000E+000	0.0000000E+000	0.0000000E+000	-23.3474	0.0000000E+000	0.0000000E+000	0.0000000E+000	23.3474	2.3167	66.6526	-2.20836e-07
1.25825	3653.98	1352.25	3896.18	-20.3083	1166.41	0.459287	-6.96459e-05	93.5396	11.2676	1	42	0.0128572	3.29995e-06	0	-1.66482e-05	0.237997	0.124957	5.30453	9.80732e-06	1.56845e-05	1.32896e-05	7.06198e-06	8.31246e-06	1.20313e-05	0.774898	0.0634211	1.31167	2.27279e-08	1.08903e-08	6.49644e-10	4.10278e-09	6.4165e-10	5.81824e-10	0.000240708	8.90799e-05	0.000256662	20.3083	11267.6	30446.8	32464.8	-69.6917	0.0000000E+000	0.0000000E+000	0.0000000E+000	69.6917	0.0000000E+000	0.0000000E+000	0.0000000E+000	-69.6917	0.0000000E+000	0.0000000E+000	0.0000000E+000	-20.3083	0.0000000E+000	0.0000000E+000	0.0000000E+000	20.3083	2.70216	69.6917	1.1532e-07
1.00006	3851.32	1224.36	4041.25	-17.6357	1172.87	0.459296	-6.98659e-05	129.983	11.9308	1	42	0.0128655	3.18354e-06	0	-1.70362e-05	0.275406	0.122893	4.51874	1.12772e-05	1.08506e-05	1.58518e-05	1.79627e-05	1.43524e-05	9.5019e-06	0.762765	0.0480511	1.29482	2.17714e-08	1.00927e-08	3.88384e-10	3.57851e-09	6.72642e-10	3.86091e-10	0.000235818	7.4968e-05	0.000247448	17.6357	11930.8	37529.4	39380.2	-72.3643	0.0000000E+000	0.0000000E+000	0.0000000E+000	72.3643	0.0000000E+000	0.0000000E+000	0.0000000E+000	-72.3643	0.0000000E+000	0.0000000E+000	0.0000000E+000	-17.6357	0.0000000E+000	0.0000000E+000	0.0000000E+000	17.6357	3.14559	72.3643	-3.88027e-07
0.79456	4014.28	1100.74	4162.46	-15.3339	1180.89	0.459296	-7.04835e-05	181.974	12.7255	1	42	0.0128588	3.08923e-06	0	-1.69047e-05	0.209035	0.113985	3.85201	1.02018e-05	8.86464e-06	1.62812e-05	6.81347e-06	6.76158e-06	9.69292e-06	0.771709	0.0706524	1.32248	2.16008e-08	9.51642e-09	6.06662e-10	3.2326e-09	3.1339e-10	2.25804e-10	0.00023169	6.35305e-05	0.000240242	15.3339	12725.5	46408.9	48121.9	-74.6661	0.0000000E+000	0.0000000E+000	0.0000000E+000	74.6661	0.0000000E+000	0.0000000E+000	0.0000000E+000	-74.6661	0.0000000E+000	0.0000000E+000	0.0000000E+000	-15.3339	0.0000000E+000	0.0000000E+000	0.0000000E+000	15.3339	3.64691	74.6661	1.3148e-07
0.630906	4156.93	985.245	4272.09	-13.3338	1190.89	0.459292	-7.21738e-05	256.042	13.6182	1	42	0.0128667	3.01181e-06	0	-1.71679e-05	0.224898	0.119876	3.51543	1.06277e-05	1.23851e-05	1.17135e-05	1.0121e-05	1.32147e-05	7.31356e-06	0.771241	0.0885686	1.54685	2.11832e-08	9.02068e-09	7.46172e-10	2.7638e-09	4.88707e-10	7.74125e-10	0.000227768	5.39838e-05	0.000234078	13.3338	13618.2	57457.6	59049.4	-76.6662	0.0000000E+000	0.0000000E+000	0.0000000E+000	76.6662	0.0000000E+000	0.0000000E+000	0.0000000E+000	-76.6662	0.0000000E+000	0.0000000E+000	0.0000000E+000	-13.3338	0.0000000E+000	0.0000000E+000	0.0000000E+000	13.3338	4.21918	76.6662	-2.6314e-07
0.500946	4276.3	883.836	4366.69	-11.6776	1203.39	0.459283	-7.08198e-05	359.466	14.7264	1	42	0.0128641	2.94597e-06	0	-1.7745e-05	0.19089	0.0570964	3.16945	1.04101e-05	7.51275e-06	1.07806e-05	8.3529e-06	8.78344e-06	8.43265e-06	0.767462	0.0705403	1.40194	2.05143e-08	8.9389e-09	4.39653e-10	3.08436e-09	5.60016e-10	3.21776e-10	0.000224267	4.63519e-05	0.000229007	11.6776	14726.4	71251.5	72757.5	-78.3224	0.0000000E+000	0.0000000E+000	0.0000000E+000	78.3224	0.0000000E+000	0.0000000E+000	0.0000000E+000	-78.3224	0.0000000E+000	0.0000000E+000	0.0000000E+000	-11.6776	0.0000000E+000	0.0000000E+000	0.0000000E+000	11.6776	4.83835	78.3224	-5.77115e-07
0.398211	4384.58	795.41	4456.15	-10.2822	1219.04	0.459285	-6.88033e-05	502.476	16.0095	1	42	0.0128673	2.88753e-06	0	-1.78451e-05	0.133372	0.0723672	2.69259	6.85099e-06	7.10771e-06	5.34736e-06	7.76837e-06	6.78149e-06	2.97982e-06	0.776876	0.0674594	1.44495	2.03768e-08	8.92722e-09	3.42623e-10	2.81835e-09	2.38219e-10	2.90076e-10	0.000220805	4.00564e-05	0.000224409	10.2822	16009.5	88250.3	89690.7	-79.7178	0.0000000E+000	0.0000000E+000	0.0000000E+000	79.7178	0.0000000E+000	0.0000000E+000	0.0000000E+000	-79.7178	0.0000000E+000	0.0000000E+000	0.0000000E+000	-10.2822	0.0000000E+000	0.0000000E+000	0.0000000E+000	10.2822	5.51235	79.7178	-1.00142e-07
0.316193	4480.24	710.273	4536.19	-9.0084	1238.67	0.459276	-7.15216e-05	708.668	17.3744	1	42	0.0128673	2.83659e-06	0	-1.77971e-05	0.13656	0.087471	2.44224	6.52068e-06	8.30094e-06	6.90362e-06	6.71041e-06	8.10573e-06	3.00879e-06	0.784366	0.0546471	1.45788	2.04006e-08	8.43695e-09	3.94413e-10	2.69794e-09	1.81341e-10	2.70849e-10	0.00021773	3.45178e-05	0.000220449	9.0084	17374.4	109594	110963	-80.9916	0.0000000E+000	0.0000000E+000	0.0000000E+000	80.9916	0.0000000E+000	0.0000000E+000	0.0000000E+000	-80.9916	0.0000000E+000	0.0000000E+000	0.0000000E+000	-9.0084	0.0000000E+000	0.0000000E+000	0.0000000E+000	9.0084	6.30777	80.9916	4.80277e-08
0.251222	4567.27	635.376	4611.26	-7.91987	1263.29	0.459292	-6.6999e-05	997.086	18.9302	1	42	0.0128637	2.78963e-06	0	-1.82692e-05	0.142213	0.053668	2.18406	3.7931e-06	9.0042e-06	9.75586e-06	9.25826e-06	5.66892e-06	3.89189e-06	0.779852	0.0456534	1.50487	1.99662e-08	8.25436e-09	3.47888e-10	2.45671e-09	3.22308e-10	3.44372e-10	0.000214792	2.98808e-05	0.000216861	7.91987	18930.2	136076	137386	-82.0801	0.0000000E+000	0.0000000E+000	0.0000000E+000	82.0801	0.0000000E+000	0.0000000E+000	0.0000000E+000	-82.0801	0.0000000E+000	0.0000000E+000	0.0000000E+000	-7.91987	0.0000000E+000	0.0000000E+000	0.0000000E+000	7.91987	7.1883	82.0801	-4.72042e-07
0.199573	4649.46	563.412	4683.47	-6.90929	1294.2	0.459285	-6.80963e-05	1415.44	20.4837	1	42	0.0128694	2.74784e-06	0	-1.93936e-05	0.135728	0.0708149	1.96635	7.06716e-06	5.97221e-06	3.58606e-06	1.24161e-05	4.29393e-06	4.15105e-06	0.803198	0.0336415	1.48115	2.03416e-08	8.27486e-09	2.50645e-10	2.14711e-09	1.14903e-10	3.04991e-10	0.000211966	2.56856e-05	0.000213517	6.90929	20483.7	169038	170274	-83.0907	0.0000000E+000	0.0000000E+000	0.0000000E+000	83.0907	0.0000000E+000	0.0000000E+000	0.0000000E+000	-83.0907	0.0000000E+000	0.0000000E+000	0.0000000E+000	-6.90929	0.0000000E+000	0.0000000E+000	0.0000000E+000	6.90929	8.25233	83.0907	-1.1244e-06
0.158419	4719.24	492.522	4744.87	-5.95809	1333.05	0.459298	-6.57844e-05	2039.8	21.9781	1	42	0.0128653	2.71141e-06	0	-2.06742e-05	0.141065	0.0524154	1.76087	3.41542e-06	1.13535e-05	3.60311e-06	8.70294e-06	5.85002e-06	6.13511e-06	0.77536	0.0479483	1.51936	1.94348e-08	7.68836e-09	2.19798e-10	2.16653e-09	3.155e-10	2.58953e-10	0.000209616	2.18765e-05	0.000210754	5.95809	21978.1	210590	211734	-84.0419	0.0000000E+000	0.0000000E+000	0.0000000E+000	84.0419	0.0000000E+000	0.0000000E+000	0.0000000E+000	-84.0419	0.0000000E+000	0.0000000E+000	0.0000000E+000	-5.95809	0.0000000E+000	0.0000000E+000	0.0000000E+000	5.95809	9.58178	84.0419	-1.28062e-06
0.125939	4778.39	427.05	4797.43	-5.10702	1381.85	0.459292	-6.43743e-05	2959.26	23.4489	1	42	0.0128649	2.68161e-06	0	-2.15841e-05	0.116866	0.0632139	1.53275	2.33586e-06	1.16995e-05	3.64707e-06	5.89325e-06	2.25249e-06	4.09093e-06	0.803653	0.0421419	1.50306	2.00226e-08	7.63302e-09	1.9798e-10	2.24996e-09	1.83409e-10	2.05061e-10	0.000207617	1.8555e-05	0.000208445	5.10702	23448.9	262376	263422	-84.893	0.0000000E+000	0.0000000E+000	0.0000000E+000	84.893	0.0000000E+000	0.0000000E+000	0.0000000E+000	-84.893	0.0000000E+000	0.0000000E+000	0.0000000E+000	-5.10702	0.0000000E+000	0.0000000E+000	0.0000000E+000	5.10702	11.1893	84.893	-9.09959e-07
0.0999518	4827.48	364.605	4841.23	-4.31918	1443.25	0.459301	-6.33784e-05	4367.24	24.7708	1	42	0.0128639	2.65716e-06	0	-2.19578e-05	0.13246	0.0695466	1.54274	4.27232e-06	8.44894e-06	5.71585e-06	9.45014e-06	7.3364e-06	3.28593e-06	0.797495	0.0385534	1.52681	1.96323e-08	7.6832e-09	2.79074e-10	2.075e-09	2.87769e-10	2.11027e-10	0.000205972	1.55565e-05	0.000206559	4.31918	24770.8	327973	328907	-85.6808	0.0000000E+000	0.0000000E+000	0.0000000E+000	85.6808	0.0000000E+000	0.0000000E+000	0.0000000E+000	-85.6808	0.0000000E+000	0.0000000E+000	0.0000000E+000	-4.31918	0.0000000E+000	0.0000000E+000	0.0000000E+000	4.31918	13.2403	85.6808	-3.73701e-07