File: Python/Data/RDE/240223-OCV-EIS-Fe2Fe3_5mM-HCl1M-1225RPM-Ag_AgCl_BLF8-GC-RDE-1minRestVSEoc-3ppf-14p1mVAmplitude_06_PEIS_C15.mpt
EC-Lab ASCII FILE
Nb header lines : 67

Potentio Electrochemical Impedance Spectroscopy

Run on channel : 15 (SN 19485)
User :
Electrode connection : standard
Potential control : Ewe
Ewe ctrl range : min = -1.00 V, max = 1.00 V
Ewe,I filtering : 50 kHz
Safety Limits :
	Do not start on E overload
Channel : Floating
Acquisition started on : 02/23/2024 14:49:54.683
Loaded Setting File :  NONE
Saved on :
	File : 240223-OCV-EIS-Fe2Fe3_5mM-HCl1M-1225RPM-Ag_AgCl_BLF8-GC-RDE-1minRestVSEoc-3ppf-14p1mVAmplitude_06_PEIS_C15.mpr
	Directory : C:\Data\mathias\RDE-RPM-variation\
	Host : 192.168.0.1
Device : VMP-300 (SN 0826)
Address : USB
EC-Lab for windows v11.52 (software)
Internet server v11.52 (firmware)
Command interpretor v11.52 (firmware)
Electrode material :
Initial state :
Electrolyte :
Comments :
Cable : special
Reference electrode : SCE Saturated Calomel Electrode (0.241 V)
Electrode surface area : 0.001 cm²
Characteristic mass : 0.001 g
Equivalent Weight : 0.000 g/eq.
Density : 0.000 g/cm3
Volume (V) : 0.001 cm³
Record EIS quality indicators
Cycle Definition : Charge/Discharge alternance
Mode                Single sine
E (V)               0.0000
vs.                 Eoc
tE (h:m:s)          0:01:0.0000
record              0
dI                  0.000
unit dI             mA
dt (s)              0.000
fi                  1.000
unit fi             MHz
ff                  100.000
unit ff             mHz
Nd                  10
Points              per decade
spacing             Logarithmic
Va (mV)             14.1
pw                  0.10
Na                  3
corr                0
E range min (V)     -1.000
E range max (V)     1.000
I Range             Auto
Bandwidth           8
nc cycles           0
goto Ns'            0
nr cycles           0
inc. cycle          1

freq/Hz	Re(Z)/Ohm	-Im(Z)/Ohm	|Z|/Ohm	Phase(Z)/deg	time/s	<Ewe>/V	<I>/mA	Cs/µF	Cp/µF	cycle number	I Range	|Ewe|/V	|I|/A	Ns	(Q-Qo)/mA.h	THD Ewe/%	NSD Ewe/%	NSR Ewe/%	|Ewe h2|/V	|Ewe h3|/V	|Ewe h4|/V	|Ewe h5|/V	|Ewe h6|/V	|Ewe h7|/V	THD I/%	NSD I/%	NSR I/%	|I h2|/A	|I h3|/A	|I h4|/A	|I h5|/A	|I h6|/A	|I h7|/A	Re(Y)/Ohm-1	Im(Y)/Ohm-1	|Y|/Ohm-1	Phase(Y)/deg	Re(C)/nF	Im(C)/nF	|C|/nF	Phase(C)/deg	Re(M)	Im(M)	|M|	Phase(M)/deg	Re(Permittivity)	Im(Permittivity)	|Permittivity|	Phase(Permittivity)/deg	Re(Resistivity)/Ohm.cm	Im(Resistivity)/Ohm.cm	|Resistivity|/Ohm.cm	Phase(Resistivity)/deg	Re(Conductivity)/mS/cm	Im(Conductivity)/mS/cm	|Conductivity|/mS/cm	Phase(Conductivity)/deg	Tan(Delta)	Loss Angle(Delta)/deg	dq/mA.h
1.00002e+06	3.55447	4.06805	5.40215	-48.8546	1081.78	0.459637	-0.01171	0.0391224	0.0221852	1	38	0.0111452	0.00206311	0	-8.65597e-06	-1	-1	-1	0	0	0	0	0	0	-1	-1	-1	0	0	0	0	0	0	0.121798	0.139397	0.185111	48.8546	22.1852	19.3844	29.4608	-41.1454	0.0000000E+000	0.0000000E+000	0.0000000E+000	41.1454	0.0000000E+000	0.0000000E+000	0.0000000E+000	-41.1454	0.0000000E+000	0.0000000E+000	0.0000000E+000	-48.8546	0.0000000E+000	0.0000000E+000	0.0000000E+000	48.8546	0.873753	41.1454	-8.65597e-06
794333	3.5858	3.19321	4.80152	-41.6856	1082.79	0.459636	-0.00240772	0.0627466	0.0277516	1	38	0.0138833	0.00289144	0	-7.27899e-06	-1	-1	-1	0	0	0	0	0	0	-1	-1	-1	0	0	0	0	0	0	0.155535	0.138507	0.208268	41.6856	27.7516	31.1635	41.7291	-48.3144	0.0000000E+000	0.0000000E+000	0.0000000E+000	48.3144	0.0000000E+000	0.0000000E+000	0.0000000E+000	-48.3144	0.0000000E+000	0.0000000E+000	0.0000000E+000	-41.6856	0.0000000E+000	0.0000000E+000	0.0000000E+000	41.6856	1.12294	48.3144	1.37698e-06
630957	3.56874	2.50757	4.36162	-35.0937	1083.94	0.459612	-0.00279869	0.100593	0.0332488	1	38	0.0144832	0.00332061	0	-1.26119e-05	-1	-1	-1	0	0	0	0	0	0	-1	-1	-1	0	0	0	0	0	0	0.187594	0.131812	0.229272	35.0937	33.2488	47.3193	57.8325	-54.9063	0.0000000E+000	0.0000000E+000	0.0000000E+000	54.9063	0.0000000E+000	0.0000000E+000	0.0000000E+000	-54.9063	0.0000000E+000	0.0000000E+000	0.0000000E+000	-35.0937	0.0000000E+000	0.0000000E+000	0.0000000E+000	35.0937	1.42319	54.9063	-5.33289e-06
501206	3.52828	1.99797	4.05471	-29.5217	1085.08	0.459643	-0.00270559	0.158933	0.0385899	1	38	0.0145483	0.00358801	0	-7.92907e-06	-1	-1	-1	0	0	0	0	0	0	-1	-1	-1	0	0	0	0	0	0	0.214607	0.121526	0.246627	29.5217	38.5899	68.1472	78.3149	-60.4783	0.0000000E+000	0.0000000E+000	0.0000000E+000	60.4783	0.0000000E+000	0.0000000E+000	0.0000000E+000	-60.4783	0.0000000E+000	0.0000000E+000	0.0000000E+000	-29.5217	0.0000000E+000	0.0000000E+000	0.0000000E+000	29.5217	1.76593	60.4783	4.68282e-06
398103	3.48315	1.62288	3.84266	-24.9819	1086.23	0.459607	-0.00275772	0.246341	0.0439386	1	38	0.0145195	0.00377849	0	-5.51575e-06	-1	-1	-1	0	0	0	0	0	0	-1	-1	-1	0	0	0	0	0	0	0.235889	0.109906	0.260236	24.9819	43.9386	94.3043	104.038	-65.0181	0.0000000E+000	0.0000000E+000	0.0000000E+000	65.0181	0.0000000E+000	0.0000000E+000	0.0000000E+000	-65.0181	0.0000000E+000	0.0000000E+000	0.0000000E+000	-24.9819	0.0000000E+000	0.0000000E+000	0.0000000E+000	24.9819	2.14627	65.0181	2.41332e-06
316230	3.4576	1.3424	3.70905	-21.2186	1087.38	0.459629	-0.00307238	0.374916	0.0491107	1	38	0.0145833	0.00393181	0	4.64199e-07	-1	-1	-1	0	0	0	0	0	0	-1	-1	-1	0	0	0	0	0	0	0.251333	0.0975796	0.269611	21.2186	49.1107	126.493	135.692	-68.7814	0.0000000E+000	0.0000000E+000	0.0000000E+000	68.7814	0.0000000E+000	0.0000000E+000	0.0000000E+000	-68.7814	0.0000000E+000	0.0000000E+000	0.0000000E+000	-21.2186	0.0000000E+000	0.0000000E+000	0.0000000E+000	21.2186	2.57567	68.7814	5.97995e-06
251188	3.42279	1.16844	3.61674	-18.8484	1088.52	0.459638	-0.002538	0.542268	0.0565974	1	38	0.0145461	0.00402189	0	-2.02553e-07	-1	-1	-1	0	0	0	0	0	0	-1	-1	-1	0	0	0	0	0	0	0.261666	0.0893253	0.276492	18.8484	56.5974	165.794	175.188	-71.1516	0.0000000E+000	0.0000000E+000	0.0000000E+000	71.1516	0.0000000E+000	0.0000000E+000	0.0000000E+000	-71.1516	0.0000000E+000	0.0000000E+000	0.0000000E+000	-18.8484	0.0000000E+000	0.0000000E+000	0.0000000E+000	18.8484	2.92936	71.1516	-6.66752e-07
199544	3.41025	1.05166	3.56873	-17.1388	1089.67	0.459646	-0.00140036	0.758415	0.0658615	1	38	0.0145532	0.00407799	0	-3.55516e-06	-1	-1	-1	0	0	0	0	0	0	-1	-1	-1	0	0	0	0	0	0	0.267769	0.0825751	0.280212	17.1388	65.8615	213.571	223.496	-72.8612	0.0000000E+000	0.0000000E+000	0.0000000E+000	72.8612	0.0000000E+000	0.0000000E+000	0.0000000E+000	-72.8612	0.0000000E+000	0.0000000E+000	0.0000000E+000	-17.1388	0.0000000E+000	0.0000000E+000	0.0000000E+000	17.1388	3.24273	72.8612	-3.35261e-06
158486	3.40524	0.999097	3.54878	-16.3517	1090.82	0.459631	-0.00212652	1.00513	0.0796669	1	38	0.0145517	0.00410047	0	-2.55973e-06	-1	-1	-1	0	0	0	0	0	0	-1	-1	-1	0	0	0	0	0	0	0.270389	0.0793321	0.281787	16.3517	79.6669	271.53	282.976	-73.6483	0.0000000E+000	0.0000000E+000	0.0000000E+000	73.6483	0.0000000E+000	0.0000000E+000	0.0000000E+000	-73.6483	0.0000000E+000	0.0000000E+000	0.0000000E+000	-16.3517	0.0000000E+000	0.0000000E+000	0.0000000E+000	16.3517	3.40832	73.6483	9.95429e-07
125909	3.41418	1.00189	3.55815	-16.3543	1091.97	0.459617	-0.00149532	1.26166	0.100031	1	38	0.0145692	0.00409462	0	-8.04983e-07	-1	-1	-1	0	0	0	0	0	0	-1	-1	-1	0	0	0	0	0	0	0.269674	0.0791355	0.281045	16.3543	100.031	340.88	355.253	-73.6457	0.0000000E+000	0.0000000E+000	0.0000000E+000	73.6457	0.0000000E+000	0.0000000E+000	0.0000000E+000	-73.6457	0.0000000E+000	0.0000000E+000	0.0000000E+000	-16.3543	0.0000000E+000	0.0000000E+000	0.0000000E+000	16.3543	3.40774	73.6457	1.75475e-06
100004	3.42989	1.051	3.5873	-17.0364	1093.11	0.459622	-0.00186212	1.51426	0.129979	1	38	0.0145652	0.00406021	0	-9.87908e-06	0.44284	0.264056	8.51706	4.2171e-05	2.35791e-05	1.23784e-05	2.01983e-05	2.09766e-05	2.51536e-05	0.0837334	0.0296865	0.702243	2.24296e-06	1.65261e-06	1.0407e-06	9.20602e-07	5.49166e-07	1.01951e-06	0.266529	0.081671	0.278761	17.0364	129.979	424.178	443.645	-72.9636	0.0000000E+000	0.0000000E+000	0.0000000E+000	72.9636	0.0000000E+000	0.0000000E+000	0.0000000E+000	-72.9636	0.0000000E+000	0.0000000E+000	0.0000000E+000	-17.0364	0.0000000E+000	0.0000000E+000	0.0000000E+000	17.0364	3.26344	72.9636	-9.0741e-06
79433.3	3.44725	1.14297	3.63179	-18.3434	1094.26	0.459632	-0.00228479	1.75301	0.173624	1	38	0.0145716	0.00401222	0	-4.42718e-06	0.491257	0.314775	8.93962	2.21057e-05	1.99041e-05	3.1492e-05	4.10728e-05	2.05715e-05	2.86392e-05	0.0577354	0.0327006	0.715295	1.56611e-06	1.01102e-06	4.87801e-07	7.08165e-07	6.19528e-07	5.31733e-07	0.261355	0.0866546	0.275346	18.3434	173.624	523.659	551.692	-71.6566	0.0000000E+000	0.0000000E+000	0.0000000E+000	71.6566	0.0000000E+000	0.0000000E+000	0.0000000E+000	-71.6566	0.0000000E+000	0.0000000E+000	0.0000000E+000	-18.3434	0.0000000E+000	0.0000000E+000	0.0000000E+000	18.3434	3.01606	71.6566	5.4519e-06
63093.8	3.48131	1.29495	3.71435	-20.4037	1095.41	0.459634	-0.00151954	1.94797	0.236766	1	38	0.0146062	0.00393238	0	-1.02813e-05	0.513031	0.27727	8.78082	2.54237e-05	3.25385e-05	3.889e-05	3.17258e-05	2.58945e-05	1.50955e-05	0.0630349	0.0249786	0.742737	1.60077e-06	1.07547e-06	7.9782e-07	8.09906e-07	9.32926e-07	3.40319e-07	0.252335	0.0938612	0.269226	20.4037	236.766	636.517	679.126	-69.5963	0.0000000E+000	0.0000000E+000	0.0000000E+000	69.5963	0.0000000E+000	0.0000000E+000	0.0000000E+000	-69.5963	0.0000000E+000	0.0000000E+000	0.0000000E+000	-20.4037	0.0000000E+000	0.0000000E+000	0.0000000E+000	20.4037	2.68838	69.5963	-5.8541e-06
50122.5	3.51665	1.50489	3.82512	-23.1676	1096.55	0.459644	-0.00260132	2.11001	0.326589	1	38	0.0146112	0.00381981	0	-5.4245e-06	0.505183	0.237805	8.75911	2.18723e-05	2.70011e-05	3.43959e-05	2.81035e-05	3.40411e-05	2.81014e-05	0.0683826	0.0255209	0.758811	9.56966e-07	1.1885e-06	9.99299e-07	7.79733e-07	1.22051e-06	8.36874e-07	0.240348	0.102852	0.26143	23.1676	326.589	763.181	830.123	-66.8324	0.0000000E+000	0.0000000E+000	0.0000000E+000	66.8324	0.0000000E+000	0.0000000E+000	0.0000000E+000	-66.8324	0.0000000E+000	0.0000000E+000	0.0000000E+000	-23.1676	0.0000000E+000	0.0000000E+000	0.0000000E+000	23.1676	2.33683	66.8324	4.85678e-06
39814.1	3.56757	1.78024	3.98708	-26.5195	1097.7	0.45964	-0.00247284	2.24546	0.447665	1	38	0.0146655	0.00367827	0	4.17539e-07	0.343292	0.219583	9.06591	2.29274e-05	1.86858e-05	2.15205e-05	2.5161e-05	1.41447e-05	8.9118e-06	0.0561836	0.0503262	0.779702	8.16228e-07	1.13651e-06	5.976e-07	6.94416e-07	5.87549e-07	8.0827e-07	0.224421	0.111988	0.25081	26.5195	447.665	897.112	1002.6	-63.4805	0.0000000E+000	0.0000000E+000	0.0000000E+000	63.4805	0.0000000E+000	0.0000000E+000	0.0000000E+000	-63.4805	0.0000000E+000	0.0000000E+000	0.0000000E+000	-26.5195	0.0000000E+000	0.0000000E+000	0.0000000E+000	26.5195	2.00398	63.4805	5.84204e-06
31621.1	3.61826	2.13369	4.20053	-30.5279	1098.85	0.459617	-0.00223638	2.35891	0.608647	1	38	0.014672	0.00349288	0	-9.36266e-07	0.502998	0.273488	8.9609	2.56461e-05	3.32591e-05	2.04726e-05	1.7998e-05	3.95146e-05	3.05131e-05	0.0540221	0.057195	0.838762	4.63319e-07	1.10961e-06	9.11809e-07	6.99246e-07	5.34542e-07	3.50899e-07	0.205065	0.120927	0.238065	30.5279	608.647	1032.13	1198.22	-59.4721	0.0000000E+000	0.0000000E+000	0.0000000E+000	59.4721	0.0000000E+000	0.0000000E+000	0.0000000E+000	-59.4721	0.0000000E+000	0.0000000E+000	0.0000000E+000	-30.5279	0.0000000E+000	0.0000000E+000	0.0000000E+000	30.5279	1.69578	59.4721	-1.35381e-06
25116.9	3.69052	2.5784	4.50201	-34.9403	1099.99	0.459634	-0.00171134	2.45756	0.806106	1	38	0.0147106	0.00326756	0	-2.68899e-07	0.472502	0.306169	8.75122	2.37572e-05	2.2632e-05	2.45573e-05	3.50161e-05	2.08732e-05	2.664e-05	0.0580433	0.0672146	0.893314	5.641e-07	8.27837e-07	5.97077e-07	1.17521e-06	4.94435e-07	4.67904e-07	0.182085	0.127215	0.222123	34.9403	806.106	1153.8	1407.5	-55.0597	0.0000000E+000	0.0000000E+000	0.0000000E+000	55.0597	0.0000000E+000	0.0000000E+000	0.0000000E+000	-55.0597	0.0000000E+000	0.0000000E+000	0.0000000E+000	-34.9403	0.0000000E+000	0.0000000E+000	0.0000000E+000	34.9403	1.43132	55.0597	6.67366e-07
19948.8	3.77658	3.13815	4.91025	-39.7249	1101.14	0.459618	-0.00264977	2.54232	1.03841	1	38	0.014739	0.00300168	0	-9.01286e-06	0.542885	0.284506	8.64119	4.21939e-05	3.91528e-05	3.819e-05	1.74802e-05	1.87034e-05	1.59201e-05	0.0767548	0.0513124	0.975102	1.36846e-06	9.26283e-07	1.08436e-06	8.13247e-07	3.55221e-07	6.3458e-07	0.156636	0.130157	0.203656	39.7249	1038.41	1249.67	1624.8	-50.2751	0.0000000E+000	0.0000000E+000	0.0000000E+000	50.2751	0.0000000E+000	0.0000000E+000	0.0000000E+000	-50.2751	0.0000000E+000	0.0000000E+000	0.0000000E+000	-39.7249	0.0000000E+000	0.0000000E+000	0.0000000E+000	39.7249	1.20344	50.2751	-8.74396e-06
15847.7	3.89296	3.84214	5.46966	-44.6236	1102.29	0.459647	-0.00184914	2.61385	1.28975	1	38	0.0148205	0.00270958	0	-7.07656e-06	0.407065	0.278477	8.65794	2.31328e-05	1.82961e-05	2.62191e-05	9.04306e-06	1.98817e-05	3.72379e-05	0.106442	0.0263025	1.08827	2.0903e-06	1.05248e-06	7.32217e-07	8.90522e-07	7.30383e-07	7.0615e-07	0.130125	0.128426	0.182827	44.6236	1289.75	1306.81	1836.09	-45.3764	0.0000000E+000	0.0000000E+000	0.0000000E+000	45.3764	0.0000000E+000	0.0000000E+000	0.0000000E+000	-45.3764	0.0000000E+000	0.0000000E+000	0.0000000E+000	-44.6236	0.0000000E+000	0.0000000E+000	0.0000000E+000	44.6236	1.01323	45.3764	1.93631e-06
12590.9	4.04111	4.70174	6.19975	-49.3211	1103.43	0.459643	-0.00254365	2.68846	1.54622	1	38	0.0148198	0.00239038	0	-1.08076e-05	0.505516	0.319134	8.78636	2.97993e-05	1.55117e-05	3.27823e-05	2.71433e-05	3.19994e-05	1.22616e-05	0.145629	0.0460687	1.20657	2.74228e-06	1.13135e-06	7.93942e-07	5.80713e-07	6.93086e-07	1.11269e-06	0.105136	0.122323	0.161297	49.3211	1546.22	1328.97	2038.86	-40.6789	0.0000000E+000	0.0000000E+000	0.0000000E+000	40.6789	0.0000000E+000	0.0000000E+000	0.0000000E+000	-40.6789	0.0000000E+000	0.0000000E+000	0.0000000E+000	-49.3211	0.0000000E+000	0.0000000E+000	0.0000000E+000	49.3211	0.859494	40.6789	-3.73109e-06
10002.2	4.22331	5.7907	7.16719	-53.8958	1104.58	0.459619	-0.00224016	2.74785	1.79373	1	38	0.0145469	0.00202965	0	-1.35105e-05	0.627724	0.282866	8.64465	6.40361e-05	2.74944e-05	2.88176e-05	2.19178e-05	3.01397e-05	2.40247e-05	0.218059	0.0549293	1.44553	4.08311e-06	7.85401e-07	6.79592e-07	1.02099e-06	6.33619e-07	2.78534e-07	0.0822158	0.112729	0.139525	53.8958	1793.73	1308.21	2220.11	-36.1042	0.0000000E+000	0.0000000E+000	0.0000000E+000	36.1042	0.0000000E+000	0.0000000E+000	0.0000000E+000	-36.1042	0.0000000E+000	0.0000000E+000	0.0000000E+000	-53.8958	0.0000000E+000	0.0000000E+000	0.0000000E+000	53.8958	0.729326	36.1042	-2.70286e-06
7944	4.45178	7.11291	8.39118	-57.9587	1105.76	0.459503	-0.00220665	2.81665	2.02387	1	38	0.0146424	0.00174497	0	-1.59403e-05	0.433076	0.134328	8.80701	3.42215e-05	2.87095e-05	2.1154e-05	1.0993e-05	1.80505e-05	2.25788e-05	0.320637	0.0512469	1.675	5.2504e-06	9.76445e-07	6.77622e-07	7.14851e-07	6.69927e-07	9.13235e-07	0.0632248	0.101019	0.119173	57.9587	2023.87	1266.68	2387.58	-32.0413	0.0000000E+000	0.0000000E+000	0.0000000E+000	32.0413	0.0000000E+000	0.0000000E+000	0.0000000E+000	-32.0413	0.0000000E+000	0.0000000E+000	0.0000000E+000	-57.9587	0.0000000E+000	0.0000000E+000	0.0000000E+000	57.9587	0.625872	32.0413	-2.4298e-06
6307.74	4.78807	8.73671	9.96272	-61.2755	1106.81	0.459514	-0.00291979	2.88801	2.22095	1	38	0.0145288	0.00145832	0	-1.60348e-05	0.519602	0.265933	8.86467	3.46114e-05	2.24154e-05	3.24754e-05	2.26274e-05	1.76478e-05	3.84998e-05	0.437286	0.074799	1.9699	6.16974e-06	9.19046e-07	4.29504e-07	6.7788e-07	5.94842e-07	5.01379e-07	0.0482398	0.0880222	0.100374	61.2755	2220.95	1217.17	2532.61	-28.7245	0.0000000E+000	0.0000000E+000	0.0000000E+000	28.7245	0.0000000E+000	0.0000000E+000	0.0000000E+000	-28.7245	0.0000000E+000	0.0000000E+000	0.0000000E+000	-61.2755	0.0000000E+000	0.0000000E+000	0.0000000E+000	61.2755	0.548041	28.7245	-9.45258e-08
5011.6	5.17803	10.7036	11.8903	-64.184	1107.93	0.459506	-0.00264423	2.96696	2.40429	1	38	0.0137922	0.00115995	0	-1.76611e-05	0.643606	0.239285	9.29884	5.51671e-05	4.13763e-05	2.42161e-05	2.26338e-05	2.77965e-05	3.07107e-05	0.603833	0.0736808	2.46322	6.71941e-06	1.36709e-06	8.41488e-07	6.83625e-07	5.58438e-07	5.28734e-07	0.0366249	0.0757083	0.0841019	64.184	2404.29	1163.11	2670.85	-25.816	0.0000000E+000	0.0000000E+000	0.0000000E+000	25.816	0.0000000E+000	0.0000000E+000	0.0000000E+000	-25.816	0.0000000E+000	0.0000000E+000	0.0000000E+000	-64.184	0.0000000E+000	0.0000000E+000	0.0000000E+000	64.184	0.483763	25.816	-1.62628e-06
3981.28	5.70816	13.1586	14.3433	-66.5489	1109.03	0.459497	-0.00340763	3.03801	2.55686	1	38	0.0131617	0.000917619	0	-1.82213e-05	0.5429	0.347185	9.86896	3.29423e-05	3.92097e-05	1.6541e-05	2.4823e-05	3.3512e-05	1.63591e-05	0.704363	0.145248	3.09327	5.89705e-06	2.17157e-06	6.78925e-07	9.95114e-07	4.24908e-07	5.06403e-07	0.0277457	0.06396	0.0697188	66.5489	2556.86	1109.16	2787.07	-23.4511	0.0000000E+000	0.0000000E+000	0.0000000E+000	23.4511	0.0000000E+000	0.0000000E+000	0.0000000E+000	-23.4511	0.0000000E+000	0.0000000E+000	0.0000000E+000	-66.5489	0.0000000E+000	0.0000000E+000	0.0000000E+000	66.5489	0.433798	23.4511	-5.6024e-07
3163.04	6.35718	16.1174	17.3258	-68.4743	1110.36	0.459513	-0.00377629	3.12191	2.70161	1	38	0.0138377	0.000798675	0	-1.9279e-05	0.492463	0.320318	9.25886	1.93182e-05	2.44701e-05	3.33585e-05	1.84859e-05	1.81644e-05	3.24732e-05	0.809758	0.168182	3.64565	5.89796e-06	2.15452e-06	6.11188e-07	8.01945e-07	6.25344e-07	7.61445e-07	0.0211776	0.0536917	0.0577173	68.4743	2701.61	1065.59	2904.17	-21.5257	0.0000000E+000	0.0000000E+000	0.0000000E+000	21.5257	0.0000000E+000	0.0000000E+000	0.0000000E+000	-21.5257	0.0000000E+000	0.0000000E+000	0.0000000E+000	-68.4743	0.0000000E+000	0.0000000E+000	0.0000000E+000	68.4743	0.39443	21.5258	-1.05768e-06
2512.41	7.18695	19.7023	20.9722	-69.9591	1111.47	0.459542	-0.00385822	3.21524	2.83765	1	38	0.0134474	0.000641205	0	-1.98793e-05	0.573033	0.31807	9.54057	2.20619e-05	4.07376e-05	2.33667e-05	1.8631e-05	2.08058e-05	3.90024e-05	0.823543	0.150821	4.49996	4.42617e-06	1.94269e-06	8.47706e-07	1.64888e-06	2.9854e-07	7.74345e-07	0.0163403	0.044795	0.0476823	69.9591	2837.65	1035.11	3020.55	-20.0409	0.0000000E+000	0.0000000E+000	0.0000000E+000	20.0409	0.0000000E+000	0.0000000E+000	0.0000000E+000	-20.0409	0.0000000E+000	0.0000000E+000	0.0000000E+000	-69.9591	0.0000000E+000	0.0000000E+000	0.0000000E+000	69.9591	0.364778	20.0409	-6.0026e-07
1995.64	8.29245	24.0147	25.4061	-70.9498	1112.57	0.459519	-0.00337784	3.32094	2.96715	1	38	0.0131914	0.00051922	0	-2.10814e-05	0.515043	0.523815	9.86985	1.56406e-05	3.16199e-05	2.09659e-05	2.80576e-05	3.3466e-05	2.36548e-05	0.873034	0.292346	5.50582	3.42404e-06	2.11404e-06	4.11288e-07	1.77449e-06	4.54946e-07	7.06945e-07	0.0128472	0.037205	0.0393606	70.9498	2967.15	1024.58	3139.07	-19.0502	0.0000000E+000	0.0000000E+000	0.0000000E+000	19.0502	0.0000000E+000	0.0000000E+000	0.0000000E+000	-19.0502	0.0000000E+000	0.0000000E+000	0.0000000E+000	-70.9498	0.0000000E+000	0.0000000E+000	0.0000000E+000	70.9498	0.345308	19.0502	-1.2021e-06
1584.49	9.6016	29.3446	30.8755	-71.8818	1113.68	0.459507	-0.0031209	3.42296	3.09194	1	38	0.0130427	0.000422429	0	-2.22174e-05	0.53781	0.297674	9.75762	3.53708e-05	2.92891e-05	1.67159e-05	3.07964e-05	2.46798e-05	2.12115e-05	0.865403	0.248086	6.7935	2.61808e-06	1.50673e-06	7.43828e-07	1.52715e-06	5.79853e-07	6.3869e-07	0.010072	0.0307823	0.0323882	71.8818	3091.94	1011.69	3253.24	-18.1182	0.0000000E+000	0.0000000E+000	0.0000000E+000	18.1182	0.0000000E+000	0.0000000E+000	0.0000000E+000	-18.1182	0.0000000E+000	0.0000000E+000	0.0000000E+000	-71.8818	0.0000000E+000	0.0000000E+000	0.0000000E+000	71.8818	0.327202	18.1182	-1.13603e-06
1258.79	11.3385	35.8056	37.558	-72.4287	1115.04	0.459524	-0.000473422	3.53114	3.20932	1	39	0.0146137	0.000389098	0	-2.31619e-05	0.493655	0.29818	8.74046	4.1004e-05	2.6186e-05	2.30303e-05	3.46981e-05	2.27032e-05	1.35186e-05	1.32295	0.0858485	3.38037	4.62204e-06	2.10239e-06	2.35781e-07	6.10208e-07	3.6665e-07	1.85291e-07	0.00803801	0.0253832	0.0266255	72.4287	3209.32	1016.28	3366.39	-17.5713	0.0000000E+000	0.0000000E+000	0.0000000E+000	17.5713	0.0000000E+000	0.0000000E+000	0.0000000E+000	-17.5713	0.0000000E+000	0.0000000E+000	0.0000000E+000	-72.4287	0.0000000E+000	0.0000000E+000	0.0000000E+000	72.4287	0.316667	17.5713	-9.44491e-07
999.682	13.5525	43.5005	45.5627	-72.6956	1116.15	0.459484	-0.000340911	3.65986	3.33605	1	39	0.0139099	0.00030529	0	-2.35008e-05	0.420626	0.276456	9.03196	1.84025e-05	3.20368e-05	1.36513e-05	2.62805e-05	1.88209e-05	2.21689e-05	1.18256	0.159666	4.39244	2.80214e-06	2.08493e-06	1.95819e-07	7.74166e-07	1.6296e-07	3.57358e-07	0.00652831	0.0209544	0.0219478	72.6956	3336.05	1039.34	3494.21	-17.3044	0.0000000E+000	0.0000000E+000	0.0000000E+000	17.3044	0.0000000E+000	0.0000000E+000	0.0000000E+000	-17.3044	0.0000000E+000	0.0000000E+000	0.0000000E+000	-72.6956	0.0000000E+000	0.0000000E+000	0.0000000E+000	72.6956	0.311549	17.3044	-3.3892e-07
794.239	16.2559	52.6263	55.0798	-72.8345	1117.25	0.459543	-0.000643965	3.80773	3.47606	1	39	0.013453	0.000244246	0	-2.35356e-05	0.556775	0.479031	9.48786	3.09288e-05	3.98799e-05	3.09007e-05	2.17298e-05	2.65545e-05	1.96826e-05	1.03775	0.200152	5.48294	1.96562e-06	1.00916e-06	3.7173e-07	1.0886e-06	3.30523e-07	2.43726e-07	0.00535829	0.0173468	0.0181555	72.8345	3476.06	1073.73	3638.12	-17.1655	0.0000000E+000	0.0000000E+000	0.0000000E+000	17.1655	0.0000000E+000	0.0000000E+000	0.0000000E+000	-17.1655	0.0000000E+000	0.0000000E+000	0.0000000E+000	-72.8345	0.0000000E+000	0.0000000E+000	0.0000000E+000	72.8345	0.308893	17.1656	-3.48024e-08
631.01	19.7127	63.9883	66.9559	-72.8776	1118.36	0.459541	2.19679e-05	3.9417	3.60004	1	39	0.0132071	0.000197251	0	-2.36647e-05	0.475397	0.295355	9.52935	2.44247e-05	2.26071e-05	3.07412e-05	2.38997e-05	2.24214e-05	1.60933e-05	1.05518	0.268851	6.69998	1.43297e-06	7.48408e-07	4.19701e-07	1.17289e-06	2.8313e-07	2.20121e-07	0.00439713	0.0142733	0.0149352	72.8776	3600.04	1109.05	3767	-17.1224	0.0000000E+000	0.0000000E+000	0.0000000E+000	17.1224	0.0000000E+000	0.0000000E+000	0.0000000E+000	-17.1224	0.0000000E+000	0.0000000E+000	0.0000000E+000	-72.8776	0.0000000E+000	0.0000000E+000	0.0000000E+000	72.8776	0.308067	17.1224	-1.29062e-07
501.122	24.1915	77.333	81.0285	-72.6292	1119.46	0.459518	-6.56323e-05	4.10688	3.74081	1	39	0.0130253	0.00016075	0	-2.35689e-05	0.467964	0.222398	9.65749	2.48537e-05	2.69578e-05	1.39308e-05	1.91555e-05	2.09632e-05	2.76056e-05	1.09657	0.172679	8.45173	1.23621e-06	8.33961e-07	2.35154e-07	7.76229e-07	1.86191e-07	3.36123e-07	0.00368457	0.0117785	0.0123413	72.6292	3740.81	1170.21	3919.57	-17.3708	0.0000000E+000	0.0000000E+000	0.0000000E+000	17.3708	0.0000000E+000	0.0000000E+000	0.0000000E+000	-17.3708	0.0000000E+000	0.0000000E+000	0.0000000E+000	-72.6292	0.0000000E+000	0.0000000E+000	0.0000000E+000	72.6292	0.312822	17.3708	9.57791e-08
398.089	29.2351	93.5768	98.0372	-72.6502	1120.57	0.4595	-0.000161059	4.2724	3.89247	1	39	0.0129392	0.000131982	0	-2.35621e-05	0.448564	0.273876	9.61414	1.89732e-05	2.57478e-05	1.40565e-05	2.8156e-05	2.118e-05	2.13445e-05	1.02361	0.260993	9.81183	9.25386e-07	4.87906e-07	8.32421e-08	5.48343e-07	1.99439e-07	4.20262e-07	0.00304174	0.00973612	0.0102002	72.6502	3892.47	1216.08	4078.02	-17.3498	0.0000000E+000	0.0000000E+000	0.0000000E+000	17.3498	0.0000000E+000	0.0000000E+000	0.0000000E+000	-17.3498	0.0000000E+000	0.0000000E+000	0.0000000E+000	-72.6502	0.0000000E+000	0.0000000E+000	0.0000000E+000	72.6502	0.312418	17.3498	6.81975e-09
316.316	36.2056	112.941	118.602	-72.2256	1121.67	0.45954	-0.000105519	4.45501	4.03985	1	39	0.0128452	0.000108305	0	-2.36955e-05	0.491456	0.239007	9.59202	1.74067e-05	2.72504e-05	3.55281e-05	1.77456e-05	1.61028e-05	2.54241e-05	1.09713	0.245814	11.7266	8.78754e-07	4.8626e-07	4.18524e-07	2.99841e-07	2.2228e-07	2.05745e-07	0.0025739	0.00802909	0.00843156	72.2256	4039.85	1295.06	4242.36	-17.7744	0.0000000E+000	0.0000000E+000	0.0000000E+000	17.7744	0.0000000E+000	0.0000000E+000	0.0000000E+000	-17.7744	0.0000000E+000	0.0000000E+000	0.0000000E+000	-72.2256	0.0000000E+000	0.0000000E+000	0.0000000E+000	72.2256	0.320572	17.7744	-1.33426e-07
251.206	44.3381	136.228	143.262	-71.9716	1122.78	0.459501	5.68171e-05	4.65074	4.20528	1	39	0.0128178	8.94709e-05	0	-2.37687e-05	0.510344	0.270447	9.8132	2.49453e-05	2.54986e-05	1.39374e-05	2.88153e-05	3.50831e-05	1.40992e-05	1.25375	0.455634	14.8326	8.29019e-07	4.85057e-07	1.57789e-07	2.95328e-07	2.33126e-07	2.65144e-07	0.0021603	0.0066375	0.00698021	71.9716	4205.28	1368.69	4422.41	-18.0284	0.0000000E+000	0.0000000E+000	0.0000000E+000	18.0284	0.0000000E+000	0.0000000E+000	0.0000000E+000	-18.0284	0.0000000E+000	0.0000000E+000	0.0000000E+000	-71.9716	0.0000000E+000	0.0000000E+000	0.0000000E+000	71.9716	0.325468	18.0284	-7.31518e-08
199.553	54.688	163.541	172.443	-71.5101	1123.89	0.459528	-0.000253691	4.87678	4.38629	1	39	0.0127834	7.4131e-05	0	-2.37566e-05	0.646766	0.405849	9.96354	3.30391e-05	1.92878e-05	3.72033e-05	3.6046e-05	1.83615e-05	2.8736e-05	1.23279	0.606938	17.6592	6.32146e-07	3.14782e-07	2.50311e-07	2.93624e-07	2.15132e-07	1.8496e-07	0.00183908	0.00549967	0.00579902	71.5101	4386.29	1466.77	4625.04	-18.4899	0.0000000E+000	0.0000000E+000	0.0000000E+000	18.4899	0.0000000E+000	0.0000000E+000	0.0000000E+000	-18.4899	0.0000000E+000	0.0000000E+000	0.0000000E+000	-71.5101	0.0000000E+000	0.0000000E+000	0.0000000E+000	71.5101	0.334399	18.4899	1.21103e-08
158.529	67.195	195.687	206.903	-71.0486	1125	0.459538	-0.000184731	5.13037	4.58926	1	39	0.0127449	6.15987e-05	0	-2.37198e-05	0.481036	0.273907	10.0455	2.61264e-05	3.16177e-05	1.88236e-05	2.74569e-05	1.57369e-05	1.71986e-05	1.50983	0.557966	21.4848	5.33142e-07	4.33459e-07	2.84987e-07	2.78689e-07	3.17627e-07	2.55223e-07	0.00156966	0.00457121	0.00483319	71.0486	4589.26	1575.86	4852.28	-18.9514	0.0000000E+000	0.0000000E+000	0.0000000E+000	18.9514	0.0000000E+000	0.0000000E+000	0.0000000E+000	-18.9514	0.0000000E+000	0.0000000E+000	0.0000000E+000	-71.0486	0.0000000E+000	0.0000000E+000	0.0000000E+000	71.0486	0.34338	18.9514	3.67989e-08
125.927	84.5319	235.784	250.479	-70.2765	1126.35	0.45954	-9.30614e-05	5.36029	4.74979	1	40	0.013058	5.21322e-05	0	-2.37723e-05	0.689777	0.574598	15.3405	4.50541e-05	3.01334e-05	2.53537e-05	3.24234e-05	3.96496e-05	2.89564e-05	1.09364	0.190376	5.05169	4.34744e-07	2.4681e-07	5.03606e-08	2.52236e-07	5.96055e-08	4.00677e-08	0.00134734	0.00375813	0.00399235	70.2765	4749.79	1702.87	5045.81	-19.7235	0.0000000E+000	0.0000000E+000	0.0000000E+000	19.7235	0.0000000E+000	0.0000000E+000	0.0000000E+000	-19.7235	0.0000000E+000	0.0000000E+000	0.0000000E+000	-70.2765	0.0000000E+000	0.0000000E+000	0.0000000E+000	70.2765	0.358514	19.7235	-5.24919e-08
99.9682	105.01	281.762	300.694	-69.5601	1127.44	0.459539	-8.67657e-05	5.65036	4.96126	1	40	0.0129292	4.29979e-05	0	-2.37613e-05	0.96771	0.442883	15.924	4.43977e-05	6.44835e-05	3.73751e-05	5.24707e-05	4.72816e-05	3.64436e-05	1.02937	0.182435	6.27909	3.12967e-07	1.77831e-07	5.10376e-08	2.25862e-07	4.57595e-08	6.775e-08	0.0011614	0.00311626	0.00332564	69.5601	4961.25	1849.01	5294.61	-20.4399	0.0000000E+000	0.0000000E+000	0.0000000E+000	20.4399	0.0000000E+000	0.0000000E+000	0.0000000E+000	-20.4399	0.0000000E+000	0.0000000E+000	0.0000000E+000	-69.5601	0.0000000E+000	0.0000000E+000	0.0000000E+000	69.5601	0.37269	20.4399	1.10047e-08
79.4157	130.771	336.865	361.357	-68.7837	1128.51	0.459521	-5.30513e-05	5.94919	5.17006	1	40	0.012874	3.56268e-05	0	-2.37597e-05	0.969805	0.429252	15.9765	6.67952e-05	5.09307e-05	4.88447e-05	2.18596e-05	3.66688e-05	5.30012e-05	0.865697	0.155881	7.5352	2.42284e-07	1.37428e-07	5.69721e-08	8.32981e-08	4.70533e-08	5.36568e-08	0.00100147	0.00257978	0.00276734	68.7837	5170.06	2007.02	5545.96	-21.2163	0.0000000E+000	0.0000000E+000	0.0000000E+000	21.2163	0.0000000E+000	0.0000000E+000	0.0000000E+000	-21.2163	0.0000000E+000	0.0000000E+000	0.0000000E+000	-68.7837	0.0000000E+000	0.0000000E+000	0.0000000E+000	68.7837	0.388201	21.2163	1.58464e-09
63.0823	164.399	400.032	432.496	-67.659	1129.59	0.459572	-0.000104275	6.30693	5.39565	1	40	0.012806	2.96095e-05	0	-2.37876e-05	0.640673	0.461133	15.5516	3.076e-05	3.37307e-05	4.19369e-05	1.77287e-05	2.99444e-05	3.15786e-05	1.0167	0.265576	8.94221	2.49438e-07	1.02817e-07	4.94734e-08	1.00133e-07	3.16212e-08	3.56419e-08	0.000878893	0.00213861	0.00231216	67.659	5395.65	2217.42	5833.52	-22.341	0.0000000E+000	0.0000000E+000	0.0000000E+000	22.341	0.0000000E+000	0.0000000E+000	0.0000000E+000	-22.341	0.0000000E+000	0.0000000E+000	0.0000000E+000	-67.659	0.0000000E+000	0.0000000E+000	0.0000000E+000	67.659	0.410965	22.341	-2.79173e-08
50.1122	205.174	474.24	516.72	-66.6049	1130.65	0.459545	-9.73463e-05	6.69697	5.6411	1	40	0.0127853	2.47433e-05	0	-2.38287e-05	0.701253	0.246191	15.2039	2.69277e-05	1.11883e-05	2.91063e-05	3.37868e-05	4.09093e-05	5.17171e-05	1.00851	0.24166	10.3399	1.86803e-07	9.82625e-08	4.77374e-08	8.257e-08	5.89385e-08	5.48132e-08	0.000768443	0.00177618	0.00193528	66.6049	5641.1	2440.55	6146.4	-23.3951	0.0000000E+000	0.0000000E+000	0.0000000E+000	23.3951	0.0000000E+000	0.0000000E+000	0.0000000E+000	-23.3951	0.0000000E+000	0.0000000E+000	0.0000000E+000	-66.6049	0.0000000E+000	0.0000000E+000	0.0000000E+000	66.6049	0.432637	23.3951	-4.11156e-08
39.8089	256.219	558.258	614.248	-65.3467	1131.72	0.459562	-7.45471e-05	7.16151	5.91545	1	40	0.0127174	2.07041e-05	0	-2.38189e-05	0.863509	0.446423	15.7206	3.1795e-05	3.34283e-05	2.49961e-05	7.11755e-05	4.51178e-05	2.17189e-05	1.09508	0.347183	12.6852	1.43509e-07	8.34397e-08	5.96432e-08	1.13075e-07	4.56518e-08	2.30597e-08	0.000679084	0.00147961	0.00162801	65.3467	5915.45	2714.96	6508.73	-24.6533	0.0000000E+000	0.0000000E+000	0.0000000E+000	24.6533	0.0000000E+000	0.0000000E+000	0.0000000E+000	-24.6533	0.0000000E+000	0.0000000E+000	0.0000000E+000	-65.3467	0.0000000E+000	0.0000000E+000	0.0000000E+000	65.3467	0.458961	24.6533	9.75893e-09
31.6296	323.775	659.844	735	-63.8635	1132.76	0.459548	-6.43397e-05	7.6258	6.14602	1	40	0.012764	1.7366e-05	0	-2.38119e-05	0.956506	0.407269	16.2595	2.39535e-05	6.13779e-05	4.60283e-05	4.56205e-05	4.69813e-05	5.37569e-05	1.27959	0.414394	15.4127	1.23355e-07	1.0265e-07	6.81378e-08	8.21191e-08	6.07434e-08	6.63101e-08	0.000599334	0.00122143	0.00136054	63.8635	6146.02	3015.75	6846.04	-26.1365	0.0000000E+000	0.0000000E+000	0.0000000E+000	26.1365	0.0000000E+000	0.0000000E+000	0.0000000E+000	-26.1365	0.0000000E+000	0.0000000E+000	0.0000000E+000	-63.8635	0.0000000E+000	0.0000000E+000	0.0000000E+000	63.8635	0.490684	26.1365	7.00657e-09
25.1206	405.27	769.209	869.44	-62.2168	1133.83	0.459581	-0.000114129	8.23656	6.44697	1	40	0.0127373	1.465e-05	0	-2.37947e-05	0.824681	0.518448	15.8836	3.86737e-05	5.87127e-05	2.80999e-05	5.0225e-05	3.26068e-05	3.33075e-05	1.42021	0.687378	18.1995	1.59893e-07	8.51899e-08	5.13713e-08	5.48814e-08	3.01578e-08	3.54722e-08	0.000536124	0.00101757	0.00115017	62.2168	6446.97	3396.68	7287.03	-27.7832	0.0000000E+000	0.0000000E+000	0.0000000E+000	27.7832	0.0000000E+000	0.0000000E+000	0.0000000E+000	-27.7832	0.0000000E+000	0.0000000E+000	0.0000000E+000	-62.2168	0.0000000E+000	0.0000000E+000	0.0000000E+000	62.2168	0.526866	27.7832	1.72413e-08
19.9553	516.07	896.844	1034.73	-60.0826	1135.12	0.459581	-0.000127187	8.89291	6.68078	1	40	0.0141473	1.36725e-05	0	-2.38502e-05	0.776723	0.437493	14.4514	3.51434e-05	3.09071e-05	4.67371e-05	5.15194e-05	4.0892e-05	5.24036e-05	1.39755	0.614977	19.3904	1.22979e-07	5.03108e-08	2.91736e-08	7.89688e-08	6.36619e-08	6.8096e-08	0.000482012	0.000837657	0.000966439	60.0826	6680.78	3844.31	7707.89	-29.9174	0.0000000E+000	0.0000000E+000	0.0000000E+000	29.9174	0.0000000E+000	0.0000000E+000	0.0000000E+000	-29.9174	0.0000000E+000	0.0000000E+000	0.0000000E+000	-60.0826	0.0000000E+000	0.0000000E+000	0.0000000E+000	60.0826	0.575429	29.9174	-5.55447e-08
15.8469	646.127	1023.06	1210.01	-57.7249	1136.16	0.459542	-9.32487e-05	9.81695	7.01775	1	40	0.0141169	1.16667e-05	0	-2.39268e-05	0.861373	0.235239	14.5549	7.23296e-05	3.16468e-05	5.79333e-05	3.27723e-05	3.7104e-05	4.12335e-05	1.60319	0.347448	23.3566	1.2579e-07	4.61229e-08	8.1244e-08	2.62339e-08	2.77559e-08	4.72152e-08	0.000441305	0.000698749	0.000826438	57.7249	7017.75	4432.16	8300.17	-32.2751	0.0000000E+000	0.0000000E+000	0.0000000E+000	32.2751	0.0000000E+000	0.0000000E+000	0.0000000E+000	-32.2751	0.0000000E+000	0.0000000E+000	0.0000000E+000	-57.7249	0.0000000E+000	0.0000000E+000	0.0000000E+000	57.7249	0.631565	32.2751	-7.65877e-08
12.5873	808.301	1161.45	1415.03	-55.1644	1137.63	0.459536	-6.52136e-05	10.8865	7.33424	1	41	0.0141608	1.00074e-05	0	-2.39012e-05	0.699684	0.430581	12.6704	3.2352e-05	3.20666e-05	2.64281e-05	5.20711e-05	2.70265e-05	5.56929e-05	0.987011	0.130577	3.66977	8.34297e-08	3.97541e-08	2.4239e-08	2.23388e-08	4.81769e-09	8.78388e-09	0.000403683	0.000580053	0.000706697	55.1644	7334.24	5104.2	8935.54	-34.8356	0.0000000E+000	0.0000000E+000	0.0000000E+000	34.8356	0.0000000E+000	0.0000000E+000	0.0000000E+000	-34.8356	0.0000000E+000	0.0000000E+000	0.0000000E+000	-55.1644	0.0000000E+000	0.0000000E+000	0.0000000E+000	55.1644	0.695941	34.8356	2.56671e-08
9.99682	1006.51	1289.9	1636.13	-52.0352	1138.69	0.459532	-7.18424e-05	12.3424	7.67152	1	41	0.0140974	8.61633e-06	0	-2.39624e-05	0.895901	0.574042	18.2359	5.97817e-05	3.75667e-05	6.21355e-05	5.44861e-05	2.52688e-05	4.05552e-05	0.952225	0.159267	5.92191	6.75316e-08	3.71627e-08	9.84789e-09	2.31275e-08	4.92502e-09	8.88039e-09	0.000375996	0.000481862	0.000611199	52.0352	7671.52	5986.07	9730.63	-37.9648	0.0000000E+000	0.0000000E+000	0.0000000E+000	37.9648	0.0000000E+000	0.0000000E+000	0.0000000E+000	-37.9648	0.0000000E+000	0.0000000E+000	0.0000000E+000	-52.0352	0.0000000E+000	0.0000000E+000	0.0000000E+000	52.0352	0.780298	37.9648	-6.11988e-08
7.93956	1238.16	1420.1	1884.08	-48.9154	1139.9	0.459516	-6.93684e-05	14.1157	8.01949	1	41	0.0141063	7.4871e-06	0	-2.39147e-05	0.7374	0.401193	12.6282	3.47094e-05	4.04939e-05	2.19459e-05	3.34073e-05	3.59443e-05	5.72837e-05	1.02094	0.172615	4.79215	6.17722e-08	3.51279e-08	6.6082e-09	1.83669e-08	1.0233e-08	1.19434e-08	0.000348803	0.000400058	0.000530764	48.9154	8019.5	6992.05	10639.6	-41.0846	0.0000000E+000	0.0000000E+000	0.0000000E+000	41.0846	0.0000000E+000	0.0000000E+000	0.0000000E+000	-41.0846	0.0000000E+000	0.0000000E+000	0.0000000E+000	-48.9154	0.0000000E+000	0.0000000E+000	0.0000000E+000	48.9154	0.871881	41.0846	4.76957e-08
6.31058	1504.54	1523.67	2141.31	-45.3619	1141.28	0.459541	-7.46293e-05	16.5524	8.38074	1	41	0.0140927	6.58133e-06	0	-2.4019e-05	0.669832	0.432584	12.3594	1.84921e-05	3.2387e-05	2.89244e-05	5.46746e-05	2.97757e-05	3.5223e-05	1.01389	0.178484	5.39081	5.30035e-08	3.16912e-08	5.42648e-09	2.17847e-08	6.16905e-09	8.83618e-09	0.000328129	0.000332301	0.000467004	45.3619	8380.74	8275.52	11778	-44.6381	0.0000000E+000	0.0000000E+000	0.0000000E+000	44.6381	0.0000000E+000	0.0000000E+000	0.0000000E+000	-44.6381	0.0000000E+000	0.0000000E+000	0.0000000E+000	-45.3619	0.0000000E+000	0.0000000E+000	0.0000000E+000	45.3619	0.987445	44.6381	-1.04304e-07
5.01283	1798.65	1598.94	2406.6	-41.6361	1142.9	0.459548	-7.484e-05	19.8566	8.76516	1	41	0.0140907	5.85502e-06	0	-2.40299e-05	0.579985	0.259388	10.0956	2.59594e-05	3.96945e-05	2.69906e-05	4.2339e-05	1.98571e-05	2.5126e-05	0.964809	0.115995	5.08561	4.52283e-08	2.89022e-08	3.35636e-09	1.46392e-08	3.81737e-09	4.20853e-09	0.000310554	0.000276072	0.000415523	41.6361	8765.16	9859.93	13192.7	-48.3639	0.0000000E+000	0.0000000E+000	0.0000000E+000	48.3639	0.0000000E+000	0.0000000E+000	0.0000000E+000	-48.3639	0.0000000E+000	0.0000000E+000	0.0000000E+000	-41.6361	0.0000000E+000	0.0000000E+000	0.0000000E+000	41.6361	1.1249	48.3639	-1.09178e-08
3.9819	2121.44	1631.02	2675.95	-37.554	1144.82	0.459522	-7.15418e-05	24.5059	9.10396	1	41	0.0141026	5.27013e-06	0	-2.41259e-05	0.385195	0.276396	8.83699	2.10447e-05	2.59908e-05	1.70683e-05	1.82323e-05	2.57606e-05	1.59514e-05	0.959423	0.154532	4.97001	4.36697e-08	2.19026e-08	3.36478e-09	9.89598e-09	5.108e-09	3.50479e-09	0.000296261	0.000227772	0.000373699	37.554	9103.96	11841.4	14936.6	-52.446	0.0000000E+000	0.0000000E+000	0.0000000E+000	52.446	0.0000000E+000	0.0000000E+000	0.0000000E+000	-52.446	0.0000000E+000	0.0000000E+000	0.0000000E+000	-37.554	0.0000000E+000	0.0000000E+000	0.0000000E+000	37.554	1.30069	52.446	-9.60008e-08
3.16296	2431.85	1628.59	2926.81	-33.8098	1147.13	0.459531	-7.21046e-05	30.8969	9.56642	1	41	0.0141015	4.81805e-06	0	-2.41378e-05	0.451492	0.293971	7.8538	2.06306e-05	2.07974e-05	2.75276e-05	2.80571e-05	2.16094e-05	2.79696e-05	0.86846	0.141587	4.82995	3.54854e-08	1.76022e-08	5.02703e-09	9.12062e-09	4.72562e-09	4.09779e-09	0.000283889	0.000190118	0.000341669	33.8098	9566.42	14284.8	17192.2	-56.1902	0.0000000E+000	0.0000000E+000	0.0000000E+000	56.1902	0.0000000E+000	0.0000000E+000	0.0000000E+000	-56.1902	0.0000000E+000	0.0000000E+000	0.0000000E+000	-33.8098	0.0000000E+000	0.0000000E+000	0.0000000E+000	33.8098	1.49323	56.1902	-1.18996e-08
2.51085	2743.75	1565.63	3159.01	-29.7098	1149.93	0.459538	-7.4631e-05	40.4866	9.94458	1	41	0.0140919	4.46086e-06	0	-2.41835e-05	0.334519	0.245917	6.78869	2.15382e-05	1.16622e-05	2.05285e-05	1.31422e-05	1.3075e-05	2.20992e-05	0.927314	0.160716	4.67083	3.52848e-08	1.68089e-08	5.15031e-09	1.05409e-08	2.94887e-09	4.11807e-09	0.000274942	0.000156887	0.000316555	29.7098	9944.58	17427.8	20065.4	-60.2902	0.0000000E+000	0.0000000E+000	0.0000000E+000	60.2902	0.0000000E+000	0.0000000E+000	0.0000000E+000	-60.2902	0.0000000E+000	0.0000000E+000	0.0000000E+000	-29.7098	0.0000000E+000	0.0000000E+000	0.0000000E+000	29.7098	1.75249	60.2902	-4.5681e-08
1.99553	3021.62	1487.67	3367.98	-26.213	1153.36	0.459527	-7.38481e-05	53.6111	10.4599	1	41	0.0140997	4.18639e-06	0	-2.43326e-05	0.328315	0.1399	5.95151	1.2924e-05	1.42407e-05	1.66957e-05	2.32414e-05	9.85229e-06	2.07586e-05	0.856578	0.113146	4.51878	3.08556e-08	1.57538e-08	3.48578e-09	6.21357e-09	2.88506e-09	4.24118e-09	0.000266378	0.000131149	0.000296913	26.213	10459.9	21245.2	23680.5	-63.787	0.0000000E+000	0.0000000E+000	0.0000000E+000	63.787	0.0000000E+000	0.0000000E+000	0.0000000E+000	-63.787	0.0000000E+000	0.0000000E+000	0.0000000E+000	-26.213	0.0000000E+000	0.0000000E+000	0.0000000E+000	26.213	2.03111	63.787	-1.49151e-07
1.58533	3270.12	1376.75	3548.11	-22.8316	1157.57	0.459533	-7.9583e-05	72.9199	10.979	1	41	0.0140873	3.97036e-06	0	-2.43166e-05	0.270608	0.127527	5.34103	1.47461e-05	1.77911e-05	9.13354e-06	1.57944e-05	1.13348e-05	1.40293e-05	0.872787	0.0736493	4.40567	3.02324e-08	1.50501e-08	1.68572e-09	6.17172e-09	2.62896e-09	2.63092e-09	0.000259758	0.00010936	0.00028184	22.8316	10979	26077.7	28294.6	-67.1684	0.0000000E+000	0.0000000E+000	0.0000000E+000	67.1684	0.0000000E+000	0.0000000E+000	0.0000000E+000	-67.1684	0.0000000E+000	0.0000000E+000	0.0000000E+000	-22.8316	0.0000000E+000	0.0000000E+000	0.0000000E+000	22.8316	2.37524	67.1684	1.59731e-08
1.25825	3489.96	1256.89	3709.39	-19.8062	1164.42	0.459529	-7.94315e-05	100.637	11.5543	1	42	0.0140977	3.80055e-06	0	-2.43757e-05	0.226431	0.162128	5.04367	1.43932e-05	1.58439e-05	1.11294e-05	6.10169e-06	1.41744e-05	1.15806e-05	0.841832	0.0248906	1.40185	2.84095e-08	1.39239e-08	6.34099e-10	4.64184e-09	6.03694e-10	3.01106e-10	0.000253639	9.13463e-05	0.000269586	19.8062	11554.3	32082.4	34099.6	-70.1938	0.0000000E+000	0.0000000E+000	0.0000000E+000	70.1938	0.0000000E+000	0.0000000E+000	0.0000000E+000	-70.1938	0.0000000E+000	0.0000000E+000	0.0000000E+000	-19.8062	0.0000000E+000	0.0000000E+000	0.0000000E+000	19.8062	2.77667	70.1938	-5.90586e-08
1.00006	3674.4	1126.22	3843.12	-17.0405	1170.88	0.459544	-7.94898e-05	141.309	12.1352	1	42	0.0140871	3.66553e-06	0	-2.46697e-05	0.252089	0.155452	4.34245	9.39531e-06	1.14871e-05	7.69466e-06	1.32685e-05	1.75309e-05	1.80442e-05	0.835839	0.0611013	1.34809	2.7433e-08	1.30005e-08	6.28399e-10	4.00975e-09	3.27893e-10	4.72533e-10	0.000248782	7.62525e-05	0.000260205	17.0405	12135.2	39592.4	41410.4	-72.9595	0.0000000E+000	0.0000000E+000	0.0000000E+000	72.9595	0.0000000E+000	0.0000000E+000	0.0000000E+000	-72.9595	0.0000000E+000	0.0000000E+000	0.0000000E+000	-17.0405	0.0000000E+000	0.0000000E+000	0.0000000E+000	17.0405	3.2626	72.9595	-2.93946e-07
0.79456	3830	1004.25	3959.47	-14.6925	1178.89	0.459533	-7.97286e-05	199.459	12.831	1	42	0.0140886	3.55821e-06	0	-2.4876e-05	0.165965	0.109202	3.7388	6.86045e-06	1.20352e-05	8.61696e-06	6.65669e-06	6.40843e-06	9.2693e-06	0.812068	0.05254	1.39285	2.59853e-08	1.2056e-08	6.48059e-10	3.62086e-09	3.84867e-10	6.37689e-10	0.000244301	6.40571e-05	0.000252559	14.6925	12831	48934.9	50589.1	-75.3075	0.0000000E+000	0.0000000E+000	0.0000000E+000	75.3075	0.0000000E+000	0.0000000E+000	0.0000000E+000	-75.3075	0.0000000E+000	0.0000000E+000	0.0000000E+000	-14.6925	0.0000000E+000	0.0000000E+000	0.0000000E+000	14.6925	3.8138	75.3075	-2.06349e-07
0.630906	3957.95	882.497	4055.14	-12.5695	1188.89	0.459545	-8.36435e-05	285.853	13.5381	1	42	0.0140804	3.47223e-06	0	-2.47531e-05	0.20938	0.0877379	3.32621	7.03166e-06	9.38226e-06	1.00311e-05	1.47006e-05	8.23983e-06	1.59292e-05	0.823662	0.0477551	1.47888	2.56207e-08	1.21919e-08	4.26465e-10	3.46685e-09	2.35274e-10	3.24529e-10	0.00024069	5.36661e-05	0.0002466	12.5695	13538.1	60717.5	62208.5	-77.4305	0.0000000E+000	0.0000000E+000	0.0000000E+000	77.4305	0.0000000E+000	0.0000000E+000	0.0000000E+000	-77.4305	0.0000000E+000	0.0000000E+000	0.0000000E+000	-12.5695	0.0000000E+000	0.0000000E+000	0.0000000E+000	12.5695	4.48495	77.4305	1.22863e-07
0.500946	4067.43	775.951	4140.78	-10.8007	1201.4	0.459547	-8.34154e-05	409.444	14.378	1	42	0.014085	3.40152e-06	0	-2.53192e-05	0.1657	0.0792523	3.01672	6.66915e-06	1.05793e-05	8.65207e-06	1.08945e-05	5.97151e-06	1.03731e-05	0.833537	0.0355743	1.51671	2.55489e-08	1.18444e-08	5.75056e-10	3.17218e-09	4.25497e-10	3.62921e-10	0.000237222	4.52554e-05	0.0002415	10.8007	14378	75367.6	76726.9	-79.1993	0.0000000E+000	0.0000000E+000	0.0000000E+000	79.1993	0.0000000E+000	0.0000000E+000	0.0000000E+000	-79.1993	0.0000000E+000	0.0000000E+000	0.0000000E+000	-10.8007	0.0000000E+000	0.0000000E+000	0.0000000E+000	10.8007	5.24186	79.1993	-5.66054e-07
0.398211	4160.42	671.821	4214.31	-9.17289	1217.05	0.459537	-8.46443e-05	594.913	15.1184	1	42	0.0140912	3.34366e-06	0	-2.6048e-05	0.140562	0.0850718	2.59904	7.57342e-06	6.20734e-06	8.54367e-06	1.06178e-05	6.60609e-06	4.77059e-06	0.832174	0.0380538	1.57494	2.51733e-08	1.13906e-08	4.50568e-10	3.1377e-09	3.8643e-10	4.2666e-10	0.000234252	3.78268e-05	0.000237287	9.17289	15118.4	93624.7	94837.5	-80.8271	0.0000000E+000	0.0000000E+000	0.0000000E+000	80.8271	0.0000000E+000	0.0000000E+000	0.0000000E+000	-80.8271	0.0000000E+000	0.0000000E+000	0.0000000E+000	-9.17289	0.0000000E+000	0.0000000E+000	0.0000000E+000	9.17289	6.19275	80.8271	-7.2882e-07
0.316193	4234.4	582.374	4274.26	-7.831	1236.67	0.459523	-8.90124e-05	864.302	16.0453	1	42	0.0140869	3.29576e-06	0	-2.62445e-05	0.16957	0.0911235	2.41571	1.1198e-05	1.23797e-05	5.74096e-06	1.23354e-05	3.02047e-06	6.18879e-06	0.84168	0.0329219	1.51284	2.52755e-08	1.10176e-08	2.39624e-10	3.00118e-09	2.54438e-10	2.85167e-10	0.000231777	3.18773e-05	0.000233959	7.831	16045.3	116664	117763	-82.169	0.0000000E+000	0.0000000E+000	0.0000000E+000	82.169	0.0000000E+000	0.0000000E+000	0.0000000E+000	-82.169	0.0000000E+000	0.0000000E+000	0.0000000E+000	-7.831	0.0000000E+000	0.0000000E+000	0.0000000E+000	7.831	7.27092	82.169	-1.96492e-07
0.251222	4296.83	502.212	4326.08	-6.66646	1261.29	0.459529	-8.50269e-05	1261.47	17.0005	1	42	0.0140879	3.25649e-06	0	-2.62431e-05	0.140363	0.0624711	2.11354	3.39919e-06	8.40072e-06	5.23973e-06	8.70043e-06	5.88193e-06	1.16397e-05	0.834229	0.0262231	1.56696	2.46823e-08	1.0992e-08	1.1914e-10	2.77088e-09	3.33815e-10	1.99866e-10	0.000229593	2.68348e-05	0.000231156	6.66646	17000.5	145453	146443	-83.3335	0.0000000E+000	0.0000000E+000	0.0000000E+000	83.3335	0.0000000E+000	0.0000000E+000	0.0000000E+000	-83.3335	0.0000000E+000	0.0000000E+000	0.0000000E+000	-6.66646	0.0000000E+000	0.0000000E+000	0.0000000E+000	6.66646	8.55581	83.3335	1.36277e-09
0.199573	4350.68	427.329	4371.61	-5.60967	1292.2	0.459521	-8.49019e-05	1866.19	17.8318	1	42	0.0140883	3.22269e-06	0	-2.68146e-05	0.146122	0.0735697	1.85379	5.6269e-06	1.30345e-05	4.96262e-06	1.00286e-05	5.6333e-06	3.4157e-06	0.850299	0.0339125	1.56551	2.51468e-08	1.04985e-08	3.69982e-10	2.7766e-09	5.20304e-10	2.18072e-10	0.000227653	2.23604e-05	0.000228749	5.60967	17831.9	181548	182421	-84.3903	0.0000000E+000	0.0000000E+000	0.0000000E+000	84.3903	0.0000000E+000	0.0000000E+000	0.0000000E+000	-84.3903	0.0000000E+000	0.0000000E+000	0.0000000E+000	-5.60967	0.0000000E+000	0.0000000E+000	0.0000000E+000	5.60967	10.1811	84.3903	-5.71424e-07
0.158419	4395.1	363.917	4410.15	-4.73333	1331.06	0.45954	-8.22579e-05	2760.65	18.798	1	42	0.0140916	3.19527e-06	0	-2.82887e-05	0.120026	0.059165	1.69639	5.76522e-06	5.93501e-06	2.85288e-06	1.18408e-05	5.02706e-06	5.32877e-06	0.862617	0.0231074	1.56614	2.52158e-08	1.08141e-08	2.15008e-10	2.59928e-09	2.09034e-10	2.20951e-10	0.000225977	1.8711e-05	0.00022675	4.73333	18798	227027	227804	-85.2667	0.0000000E+000	0.0000000E+000	0.0000000E+000	85.2667	0.0000000E+000	0.0000000E+000	0.0000000E+000	-85.2667	0.0000000E+000	0.0000000E+000	0.0000000E+000	-4.73333	0.0000000E+000	0.0000000E+000	0.0000000E+000	4.73333	12.0772	85.2667	-1.47411e-06
0.125939	4431.71	306.833	4442.32	-3.9606	1379.85	0.459529	-8.48866e-05	4118.69	19.6492	1	42	0.0140898	3.17171e-06	0	-3.03733e-05	0.119984	0.068239	1.48362	2.81777e-06	8.92769e-06	3.84146e-06	9.48855e-06	4.22473e-06	7.85345e-06	0.873712	0.0301363	1.53431	2.55577e-08	1.03988e-08	4.08811e-10	2.47911e-09	3.80861e-10	2.51413e-10	0.00022457	1.55483e-05	0.000225108	3.9606	19649.2	283801	284480	-86.0394	0.0000000E+000	0.0000000E+000	0.0000000E+000	86.0394	0.0000000E+000	0.0000000E+000	0.0000000E+000	-86.0394	0.0000000E+000	0.0000000E+000	0.0000000E+000	-3.9606	0.0000000E+000	0.0000000E+000	0.0000000E+000	3.9606	14.4434	86.0394	-2.08465e-06
0.0999518	4461.8	258.597	4469.29	-3.31703	1441.26	0.45952	-8.63244e-05	6157.53	20.6146	1	42	0.014085	3.15151e-06	0	-3.23416e-05	0.117174	0.0414315	1.37717	6.33752e-06	7.21539e-06	2.76209e-06	1.0049e-05	5.28605e-06	4.50217e-06	0.875255	0.0275151	1.50824	2.5489e-08	1.01846e-08	2.29338e-10	2.67117e-09	3.45449e-10	2.26418e-10	0.000223374	1.29463e-05	0.000223749	3.31703	20614.6	355683	356280	-86.683	0.0000000E+000	0.0000000E+000	0.0000000E+000	86.683	0.0000000E+000	0.0000000E+000	0.0000000E+000	-86.683	0.0000000E+000	0.0000000E+000	0.0000000E+000	-3.31703	0.0000000E+000	0.0000000E+000	0.0000000E+000	3.31703	17.2539	86.683	-1.96832e-06