File: Python/Data/RDE/240223-OCV-EIS-Fe2Fe3_5mM-HCl1M-2000RPM-Ag_AgCl_BLF8-GC-RDE-AllPreviousVariations_02_CV_C15.mpt
EC-Lab ASCII FILE
Nb header lines : 61

Cyclic Voltammetry

Run on channel : 15 (SN 19485)
User :
Electrode connection : standard
Potential control : Ewe
Ewe ctrl range : min = -1.00 V, max = 1.00 V
Ewe,I filtering : 50 kHz
Safety Limits :
	Do not start on E overload
Channel : Floating
Acquisition started on : 02/23/2024 12:36:41.987
Loaded Setting File :  C:\Data\mathias\RDE-RPM-variation\240222-CV-EIS-Fe2Fe3_5mM-HCl1M-0RPM-Ag_AgCl_BLF8-GC-RDE-DefaultSettings.mps
Saved on :
	File : 240223-OCV-EIS-Fe2Fe3_5mM-HCl1M-2000RPM-Ag_AgCl_BLF8-GC-RDE-AllPreviousVariations_02_CV_C15.mpr
	Directory : C:\Data\mathias\RDE-RPM-variation\
	Host : 192.168.0.1
Device : VMP-300 (SN 0826)
Address : USB
EC-Lab for windows v11.52 (software)
Internet server v11.52 (firmware)
Command interpretor v11.52 (firmware)
Electrode material :
Initial state :
Electrolyte :
Comments :
Cable : special
Reference electrode : SCE Saturated Calomel Electrode (0.241 V)
Electrode surface area : 0.001 cm²
Characteristic mass : 0.001 g
Equivalent Weight : 0.000 g/eq.
Density : 0.000 g/cm3
Volume (V) : 0.001 cm³
Record EIS quality indicators
Cycle Definition : Charge/Discharge alternance
Ei (V)              0.000
vs.                 Eoc
dE/dt               20.000
dE/dt unit          mV/s
E1 (V)              1.000
vs.                 Ref
Step percent        50
N                   10
E range min (V)     -1.000
E range max (V)     1.000
I Range             Auto
I Range min         Unset
I Range max         Unset
I Range init        Unset
Bandwidth           8
E2 (V)              0.000
vs.                 Ref
nc cycles           2
Reverse Scan        1
Ef (V)              0.000
vs.                 Eoc

mode	ox/red	error	control changes	counter inc.	time/s	control/V	Ewe/V	<I>/mA	cycle number	(Q-Qo)/C	I Range	step time/s	P/W
2	1	0	1	0	56.6322	0.460391	0.460343	4.57048e-05	1	0.0000000E+000	44	0.000000000000000E+000	2.10399e-08
2	1	0	1	0	57.1533	0.470811	0.470855	0.00458375	1	1.2647e-06	42	0.506	2.15828e-06
2	1	0	1	0	57.6531	0.480806	0.480845	0.00870126	1	4.58724e-06	42	1.0058	4.18396e-06
2	1	0	1	0	58.1828	0.491401	0.491461	0.0130979	1	1.03878e-05	41	1.5355	6.43711e-06
2	1	0	1	0	58.6826	0.501396	0.501434	0.0176652	1	1.81244e-05	41	2.0353	8.85792e-06
2	1	0	1	0	59.1823	0.511391	0.511432	0.0225454	1	2.82123e-05	41	2.535	1.15305e-05
2	1	0	1	0	59.6821	0.521387	0.521425	0.0279362	1	4.0869e-05	41	3.0348	1.45666e-05
2	1	0	1	0	60.1819	0.531382	0.531431	0.0338806	1	5.63517e-05	41	3.5346	1.80052e-05
2	1	0	1	0	60.6816	0.541377	0.541393	0.0404614	1	7.49567e-05	41	4.0343	2.19055e-05
2	1	0	1	0	61.1814	0.551372	0.551405	0.0477531	1	9.70288e-05	41	4.5341	2.63313e-05
2	1	0	1	0	61.6812	0.561369	0.561405	0.0557977	1	0.000122945	41	5.0339	3.13251e-05
2	1	0	1	0	62.1809	0.571363	0.571388	0.0646752	1	0.000153086	41	5.5336	3.69546e-05
2	1	0	1	0	62.6807	0.581358	0.581397	0.0743199	1	0.000187856	41	6.0334	4.32094e-05
2	1	0	1	0	63.1804	0.591353	0.591391	0.0847258	1	0.000227617	41	6.5331	5.01061e-05
2	1	0	1	0	63.6802	0.601349	0.601405	0.0958041	1	0.000272764	41	7.0329	5.76171e-05
2	1	0	1	0	64.18	0.611344	0.611394	0.107553	1	0.000323617	41	7.5327	6.57572e-05
2	1	0	1	0	64.7097	0.621939	0.621999	0.120504	1	0.000384066	40	8.0624	7.49534e-05
2	1	0	1	0	65.2095	0.631934	0.631987	0.133175	1	0.000447521	40	8.5622	8.4165e-05
2	1	0	1	0	65.7092	0.641929	0.641984	0.146074	1	0.000517326	40	9.0619	9.37774e-05
2	1	0	1	0	66.209	0.651925	0.651972	0.159113	1	0.000593648	40	9.5617	0.000103737
2	1	0	1	0	66.7088	0.66192	0.661945	0.172456	1	0.000676592	40	10.0615	0.000114156
2	1	0	1	0	67.2085	0.671915	0.671948	0.186165	1	0.000766261	40	10.5612	0.000125093
2	1	0	1	0	67.7083	0.68191	0.681928	0.199649	1	0.000862742	40	11.061	0.000136146
2	1	0	1	0	68.208	0.691906	0.691932	0.213763	1	0.000966033	40	11.5607	0.000147909
2	1	0	1	0	68.7078	0.701901	0.701925	0.227684	1	0.00107641	40	12.0605	0.000159817
2	1	0	1	0	69.2076	0.711896	0.71191	0.242188	1	0.0011939	40	12.5603	0.000172417
2	1	0	1	0	69.7073	0.721891	0.721906	0.256857	1	0.0013186	40	13.06	0.000185427
2	1	0	1	0	70.2071	0.731887	0.73193	0.272333	1	0.00145093	40	13.5598	0.000199328
2	1	0	1	0	70.7068	0.74188	0.741903	0.28739	1	0.00159073	40	14.0595	0.000213216
2	1	0	1	0	71.2066	0.751877	0.7519	0.303176	1	0.00173844	40	14.5593	0.000227958
2	1	0	1	0	71.7064	0.761872	0.761876	0.318296	1	0.00189395	40	15.0591	0.000242502
2	1	0	1	0	72.2061	0.771868	0.771873	0.334843	1	0.00205729	40	15.5588	0.000258456
2	1	0	1	0	72.7059	0.781863	0.781868	0.349743	1	0.0022286	40	16.0586	0.000273453
2	1	0	1	0	73.2057	0.791858	0.791867	0.36617	1	0.0024075	40	16.5584	0.000289958
2	1	0	1	0	73.7054	0.801853	0.801872	0.379735	1	0.00259422	40	17.0581	0.000304499
2	1	0	1	0	74.2052	0.811848	0.811861	0.395292	1	0.00278835	40	17.5579	0.000320922
2	1	0	1	0	74.705	0.821845	0.821833	0.410297	1	0.00298976	40	18.0577	0.000337195
2	1	0	1	0	75.2047	0.831839	0.831821	0.422499	1	0.00319801	40	18.5574	0.000351444
2	1	0	1	0	75.7045	0.841834	0.841834	0.43679	1	0.00341286	40	19.0572	0.000367704
2	1	0	1	0	76.2042	0.851829	0.851843	0.448156	1	0.00363388	40	19.5569	0.000381759
2	1	0	1	0	76.704	0.861825	0.861824	0.457035	1	0.00386077	40	20.0567	0.000393884
2	1	0	1	0	77.2038	0.87182	0.871822	0.469166	1	0.00409293	40	20.5565	0.000409029
2	1	0	1	0	77.7035	0.881815	0.881811	0.479147	1	0.00433004	40	21.0562	0.000422517
2	1	0	1	0	78.2033	0.89181	0.891809	0.489499	1	0.00457198	40	21.556	0.00043654
2	1	0	1	0	78.703	0.901804	0.901804	0.496851	1	0.00481823	40	22.0557	0.000448062
2	1	0	1	0	79.2028	0.911801	0.911794	0.503776	1	0.00506855	40	22.5555	0.00045934
2	1	0	1	0	79.7026	0.921796	0.921789	0.510719	1	0.00532249	40	23.0553	0.000470776
2	1	0	1	0	80.2023	0.931791	0.931796	0.517968	1	0.00557993	40	23.555	0.00048264
2	1	0	1	0	80.7021	0.941787	0.941781	0.525435	1	0.0058405	40	24.0548	0.000494845
2	1	0	1	0	81.2019	0.951782	0.951786	0.525065	1	0.00610366	40	24.5546	0.000499749
2	1	0	1	0	81.7016	0.961777	0.961795	0.534083	1	0.00636907	40	25.0543	0.000513678
2	1	0	1	0	82.2014	0.971773	0.971751	0.539192	1	0.00663739	40	25.5541	0.000523961
2	1	0	1	0	82.7012	0.981769	0.981732	0.542517	1	0.0069078	40	26.0539	0.000532607
2	1	0	1	0	83.2009	0.991763	0.991753	0.547415	1	0.00717982	40	26.5536	0.0005429
2	1	0	1	0	83.676	0.998711	0.998692	0.54766	1	0.0074406	40	27.0287	0.000546944
2	1	0	1	0	84.1758	0.988714	0.988698	0.542764	1	0.00771317	40	27.5285	0.00053663
2	1	0	1	0	84.6756	0.978719	0.97871	0.538148	1	0.00798359	40	28.0283	0.000526691
2	1	0	1	0	85.1753	0.968724	0.968705	0.533958	1	0.00825203	40	28.528	0.000517247
2	1	0	1	0	85.6751	0.958729	0.958709	0.529409	1	0.00851745	40	29.0278	0.00050755
2	1	0	1	0	86.1749	0.948733	0.948725	0.522006	1	0.00878039	40	29.5276	0.000495241
2	1	0	1	0	86.6746	0.938738	0.938742	0.518328	1	0.00904035	40	30.0273	0.000486577
2	1	0	1	0	87.1744	0.928743	0.928729	0.511892	1	0.00929748	40	30.5271	0.000475408
2	1	0	1	0	87.6742	0.918746	0.918734	0.504067	1	0.00955133	40	31.0269	0.000463104
2	1	0	1	0	88.1739	0.908752	0.908733	0.496709	1	0.00980117	40	31.5266	0.000451375
2	1	0	1	0	88.6737	0.898757	0.898749	0.487911	1	0.010047	40	32.0264	0.00043851
2	1	0	1	0	89.1734	0.888762	0.888753	0.478137	1	0.0102886	40	32.5261	0.000424945
2	1	0	1	0	89.6732	0.878767	0.878771	0.469469	1	0.0105254	40	33.0259	0.000412556
2	1	0	1	0	90.173	0.868771	0.868755	0.458826	1	0.0107575	40	33.5257	0.000398607
2	1	0	1	0	90.6727	0.858776	0.85877	0.446802	1	0.0109837	40	34.0254	0.000383701
2	1	0	1	0	91.1725	0.848781	0.848774	0.435813	1	0.0112045	40	34.5252	0.000369906
2	1	0	1	0	91.6722	0.838786	0.838793	0.423607	1	0.0114192	40	35.0249	0.000355319
2	1	0	1	0	92.172	0.828791	0.828795	0.409961	1	0.0116274	40	35.5247	0.000339774
2	1	0	1	0	92.6718	0.818795	0.818802	0.39602	1	0.011829	40	36.0245	0.000324262
2	1	0	1	0	93.1715	0.8088	0.808804	0.381317	1	0.0120233	40	36.5242	0.00030841
2	1	0	1	0	93.6713	0.798805	0.798793	0.366824	1	0.0122105	40	37.024	0.000293017
2	1	0	1	0	94.1711	0.788809	0.788812	0.352714	1	0.0123902	40	37.5238	0.000278225
2	1	0	1	0	94.6708	0.778814	0.778822	0.336328	1	0.0125622	40	38.0235	0.000261939
2	1	0	1	0	95.1706	0.768819	0.768844	0.320697	1	0.0127262	40	38.5233	0.000246566
2	1	0	1	0	95.6704	0.758822	0.758832	0.305383	1	0.0128826	40	39.0231	0.000231734
2	1	0	1	0	96.1701	0.748829	0.748833	0.289877	1	0.0130311	40	39.5228	0.00021707
2	1	0	1	0	96.6699	0.738833	0.738839	0.274512	1	0.0131721	40	40.0226	0.00020282
2	1	0	1	0	97.1696	0.728838	0.728848	0.260165	1	0.0133056	40	40.5223	0.000189621
2	1	0	1	0	97.6694	0.718843	0.718837	0.246072	1	0.013432	40	41.0221	0.000176885
2	1	0	1	0	98.1692	0.708848	0.708845	0.23194	1	0.0135514	40	41.5219	0.00016441
2	1	0	1	0	98.6689	0.698852	0.698858	0.218667	1	0.0136638	40	42.0216	0.000152817
2	1	0	1	0	99.1687	0.688857	0.688852	0.205314	1	0.0137697	40	42.5214	0.000141431
2	1	0	1	0	99.6684	0.678863	0.678842	0.192307	1	0.013869	40	43.0211	0.000130546
2	1	0	1	0	100.168	0.668867	0.668852	0.17981	1	0.0139619	40	43.5209	0.000120267
2	1	0	1	0	100.668	0.658871	0.658869	0.167368	1	0.0140486	40	44.0207	0.000110273
2	1	0	1	0	101.168	0.648876	0.648904	0.154888	1	0.014129	40	44.5204	0.000100508
2	1	0	1	0	101.667	0.638881	0.638885	0.142555	1	0.0142033	40	45.0202	9.10765e-05
2	1	0	1	0	102.167	0.628886	0.628906	0.130475	1	0.0142714	40	45.52	8.20565e-05
2	1	0	1	0	102.667	0.61889	0.618916	0.118613	1	0.0143336	40	46.0197	7.34115e-05
2	1	0	1	0	103.167	0.608895	0.608914	0.107014	1	0.0143898	40	46.5195	6.51621e-05
2	1	0	1	0	103.667	0.598899	0.598918	0.0956899	1	0.0144404	40	47.0193	5.73103e-05
2	1	0	1	0	104.166	0.588905	0.588916	0.0850854	1	0.0144855	40	47.519	5.01082e-05
2	1	0	1	0	104.666	0.578909	0.578927	0.0750031	1	0.0145255	40	48.0188	4.34213e-05
2	1	0	1	0	105.166	0.568914	0.568923	0.065591	1	0.0145605	40	48.5185	3.73162e-05
2	1	0	1	0	105.666	0.558919	0.558926	0.0568287	1	0.014591	40	49.0183	3.1763e-05
2	1	0	1	0	106.165	0.548924	0.548926	0.0487425	1	0.0146173	40	49.5181	2.67561e-05
2	1	0	1	0	106.695	0.538329	0.53833	0.0409217	1	0.014641	41	50.0478	2.20293e-05
2	1	0	1	0	107.195	0.528333	0.528336	0.0341953	1	0.0146597	41	50.5476	1.80666e-05
2	1	0	1	0	107.695	0.518338	0.518349	0.0280297	1	0.0146751	41	51.0473	1.45292e-05
2	1	0	1	0	108.194	0.508343	0.508339	0.0224031	1	0.0146876	41	51.5471	1.13884e-05
2	1	0	1	0	108.694	0.498348	0.498368	0.0171453	1	0.0146974	41	52.0469	8.54469e-06
2	1	0	1	0	109.194	0.488352	0.488362	0.0121913	1	0.0147047	41	52.5466	5.95377e-06
2	1	0	1	0	109.694	0.478357	0.478363	0.00750683	1	0.0147096	41	53.0464	3.59099e-06
2	1	0	1	0	110.223	0.467762	0.467753	0.00254984	1	0.0147122	42	53.5761	1.1927e-06
2	0	0	1	0	110.723	0.457767	0.457788	-0.00203756	1	0.0147123	42	0.1999	-9.3277e-07
2	0	0	1	0	111.223	0.447772	0.447792	-0.00674797	1	0.0147101	42	0.6997	-3.02169e-06
2	0	0	1	0	111.753	0.437177	0.437218	-0.0119052	1	0.0147052	41	1.2294	-5.20518e-06
2	0	0	1	0	112.252	0.427181	0.427211	-0.0172913	1	0.0146978	41	1.7292	-7.38706e-06
2	0	0	1	0	112.752	0.417186	0.417206	-0.0232296	1	0.0146877	41	2.2289	-9.69154e-06
2	0	0	1	0	113.252	0.407191	0.407197	-0.0297872	1	0.0146744	41	2.7287	-1.21293e-05
2	0	0	1	0	113.752	0.397195	0.397194	-0.0371371	1	0.0146577	41	3.2285	-1.47506e-05
2	0	0	1	0	114.251	0.3872	0.387234	-0.0453893	1	0.0146371	41	3.7282	-1.75763e-05
2	0	0	1	0	114.751	0.377205	0.377222	-0.0547587	1	0.0146121	41	4.228	-2.06562e-05
2	0	0	1	0	115.251	0.36721	0.367225	-0.0652134	1	0.0145821	41	4.7277	-2.3948e-05
2	0	0	1	0	115.751	0.357215	0.357238	-0.0768815	1	0.0145466	41	5.2275	-2.7465e-05
2	0	0	1	0	116.251	0.34722	0.347242	-0.0899085	1	0.0145049	41	5.7273	-3.122e-05
2	0	0	1	0	116.75	0.337224	0.337258	-0.104131	1	0.0144565	41	6.227	-3.5119e-05
2	0	0	1	0	117.28	0.326629	0.326661	-0.120772	1	0.0143969	40	6.7568	-3.94516e-05
2	0	0	1	0	117.78	0.316634	0.316686	-0.137602	1	0.0143324	40	7.2565	-4.35765e-05
2	0	0	1	0	118.28	0.306639	0.306677	-0.155664	1	0.0142591	40	7.7563	-4.77388e-05
2	0	0	1	0	118.779	0.296644	0.296671	-0.174361	1	0.0141765	40	8.2561	-5.1728e-05
2	0	0	1	0	119.279	0.286648	0.286686	-0.194348	1	0.0140842	40	8.7558	-5.57169e-05
2	0	0	1	0	119.779	0.276653	0.276695	-0.21439	1	0.013982	40	9.2556	-5.93207e-05
2	0	0	1	0	120.279	0.266659	0.266711	-0.235144	1	0.0138695	40	9.7553	-6.27155e-05
2	0	0	1	0	120.778	0.256663	0.256703	-0.255689	1	0.0137467	40	10.2551	-6.56361e-05
2	0	0	1	0	121.278	0.246667	0.246705	-0.276274	1	0.0136136	40	10.7549	-6.81581e-05
2	0	0	1	0	121.778	0.236672	0.236716	-0.297372	1	0.0134702	40	11.2546	-7.03928e-05
2	0	0	1	0	122.278	0.226677	0.226727	-0.316367	1	0.0133167	40	11.7544	-7.17291e-05
2	0	0	1	0	122.777	0.216682	0.216724	-0.335331	1	0.0131538	40	12.2542	-7.26741e-05
2	0	0	1	0	123.277	0.206686	0.206699	-0.35272	1	0.0129818	40	12.7539	-7.29068e-05
2	0	0	1	0	123.777	0.196691	0.196731	-0.369249	1	0.012801	40	13.2537	-7.26426e-05
2	0	0	1	0	124.277	0.186695	0.186751	-0.385495	1	0.0126125	40	13.7535	-7.19915e-05
2	0	0	1	0	124.776	0.176701	0.176751	-0.399825	1	0.012416	40	14.2532	-7.06693e-05
2	0	0	1	0	125.276	0.166705	0.166756	-0.41366	1	0.0122124	40	14.753	-6.89801e-05
2	0	0	1	0	125.776	0.15671	0.156746	-0.426694	1	0.0120023	40	15.2527	-6.68827e-05
2	0	0	1	0	126.276	0.146715	0.146745	-0.437336	1	0.0117861	40	15.7525	-6.4177e-05
2	0	0	1	0	126.776	0.13672	0.136771	-0.448787	1	0.0115643	40	16.2523	-6.13812e-05
2	0	0	1	0	127.275	0.126724	0.126752	-0.456546	1	0.011338	40	16.752	-5.78679e-05
2	0	0	1	0	127.775	0.116729	0.116772	-0.468358	1	0.0111067	40	17.2518	-5.46911e-05
2	0	0	1	0	128.275	0.106734	0.106775	-0.473468	1	0.0108717	40	17.7515	-5.05547e-05
2	0	0	1	0	128.775	0.0967387	0.0968005	-0.480958	1	0.0106328	40	18.2513	-4.6557e-05
2	0	0	1	0	129.274	0.0867434	0.0867903	-0.488985	1	0.0103906	40	18.7511	-4.24391e-05
2	0	0	1	0	129.774	0.0767482	0.0767921	-0.493204	1	0.0101455	40	19.2508	-3.78742e-05
2	0	0	1	0	130.274	0.0667529	0.0668107	-0.498982	1	0.00989767	40	19.7506	-3.33373e-05
2	0	0	1	0	130.774	0.0567577	0.0568175	-0.500665	1	0.00964767	40	20.2504	-2.84465e-05
2	0	0	1	0	131.273	0.0467624	0.0468164	-0.50777	1	0.00939515	40	20.7501	-2.3772e-05
2	0	0	1	0	131.773	0.0367672	0.0368345	-0.510111	1	0.00914077	40	21.2499	-1.87896e-05
2	0	0	1	0	132.273	0.0267701	0.0268282	-0.515099	1	0.00888453	40	21.7497	-1.38192e-05
2	0	0	1	0	132.773	0.0167767	0.016825	-0.517477	1	0.00862651	40	22.2494	-8.70656e-06
2	0	0	1	0	133.272	0.00678144	0.00683291	-0.5199	1	0.00836745	40	22.7492	-3.55243e-06
2	0	0	1	1	133.75	0.00278335	0.00286587	-0.519863	1	0.00811893	40	23.227	-1.48986e-06
2	0	0	1	1	134.25	0.0127786	0.0128289	-0.51536	1	0.00786009	40	23.7268	-6.61148e-06
2	0	0	1	1	134.75	0.0227734	0.0228182	-0.513612	1	0.00760332	40	24.2265	-1.17197e-05
2	0	0	1	1	135.25	0.0327691	0.0328266	-0.509904	1	0.00734768	40	24.7263	-1.67384e-05
2	0	0	1	1	135.749	0.0427643	0.0428043	-0.504326	1	0.00709401	40	25.2261	-2.15873e-05
2	0	0	1	1	136.249	0.0527596	0.0528024	-0.501651	1	0.00684237	40	25.7258	-2.64884e-05
2	0	0	1	1	136.749	0.0627548	0.0628184	-0.496868	1	0.00659324	40	26.2256	-3.12125e-05
2	0	0	1	1	137.249	0.0727501	0.0727932	-0.491654	1	0.00634646	40	26.7254	-3.57891e-05
2	0	0	1	1	137.748	0.0827453	0.0827952	-0.484543	1	0.00610248	40	27.2251	-4.01179e-05
2	0	0	1	1	138.248	0.0927406	0.0927987	-0.479144	1	0.0058616	40	27.7249	-4.4464e-05
2	0	0	1	1	138.748	0.102738	0.102795	-0.470991	1	0.0056241	40	28.2247	-4.84155e-05
2	0	0	1	1	139.248	0.112731	0.112799	-0.4635	1	0.00539016	40	28.7244	-5.22823e-05
2	0	0	1	1	139.747	0.122726	0.122788	-0.454784	1	0.00516063	40	29.2242	-5.5842e-05
2	0	0	1	1	140.247	0.132722	0.132776	-0.445832	1	0.0049356	40	29.7239	-5.91958e-05
2	0	0	1	1	140.747	0.142717	0.142758	-0.435009	1	0.00471572	40	30.2237	-6.2101e-05
2	0	0	1	1	141.247	0.152712	0.152759	-0.423484	1	0.00450101	40	30.7235	-6.4691e-05
2	0	0	1	1	141.746	0.162707	0.162769	-0.410479	1	0.00429279	40	31.2232	-6.68133e-05
2	0	0	1	1	142.246	0.172703	0.172753	-0.396162	1	0.00409106	40	31.723	-6.84383e-05
2	0	0	1	1	142.746	0.182698	0.18274	-0.381369	1	0.0038967	40	32.2227	-6.96914e-05
2	0	0	1	1	143.246	0.192693	0.192736	-0.366294	1	0.00370995	40	32.7225	-7.05982e-05
2	0	0	1	1	143.746	0.202688	0.202738	-0.349128	1	0.00353139	40	33.2223	-7.07814e-05
2	0	0	1	1	144.245	0.212684	0.212711	-0.331694	1	0.00336138	40	33.722	-7.0555e-05
2	0	0	1	1	144.745	0.222679	0.22273	-0.313237	1	0.00320046	40	34.2218	-6.97672e-05
2	0	0	1	1	145.245	0.232674	0.232733	-0.293458	1	0.00304892	40	34.7216	-6.82972e-05
2	0	0	1	1	145.745	0.242669	0.242696	-0.273217	1	0.00290731	40	35.2213	-6.63088e-05
2	0	0	1	1	146.244	0.252665	0.252694	-0.252906	1	0.00277578	40	35.7211	-6.39077e-05
2	0	0	1	1	146.744	0.26266	0.262697	-0.23286	1	0.00265441	40	36.2208	-6.11716e-05
2	0	0	1	1	147.244	0.272655	0.272694	-0.21266	1	0.00254317	40	36.7206	-5.79911e-05
2	0	0	1	1	147.744	0.28265	0.282658	-0.193046	1	0.00244187	40	37.2204	-5.45661e-05
2	0	0	1	1	148.243	0.292645	0.292663	-0.173475	1	0.00235042	40	37.7201	-5.07697e-05
2	0	0	1	1	148.743	0.302641	0.302648	-0.154824	1	0.00226847	40	38.2199	-4.68571e-05
2	0	0	1	1	149.243	0.312636	0.312652	-0.137245	1	0.0021956	40	38.7197	-4.291e-05
2	0	0	1	1	149.743	0.322631	0.322657	-0.120497	1	0.00213132	40	39.2194	-3.88793e-05
2	0	0	1	1	150.242	0.332626	0.332662	-0.105155	1	0.00207507	40	39.7192	-3.4981e-05
2	0	0	1	1	150.742	0.342622	0.342636	-0.0908151	1	0.00202623	40	40.2189	-3.11165e-05
2	0	0	1	1	151.242	0.352617	0.352637	-0.0779577	1	0.00198417	40	40.7187	-2.74907e-05
2	0	0	1	1	151.742	0.362612	0.362626	-0.0661654	1	0.00194827	40	41.2185	-2.39933e-05
2	0	0	1	1	152.241	0.372607	0.372618	-0.0556078	1	0.00191795	40	41.7182	-2.07205e-05
2	0	0	1	1	152.741	0.382603	0.382628	-0.0462341	1	0.0018926	40	42.218	-1.76904e-05
2	0	0	1	1	153.271	0.393198	0.393228	-0.0373556	1	0.00187054	41	42.7477	-1.46893e-05
2	0	0	1	1	153.771	0.403193	0.403235	-0.0299329	1	0.00185379	41	43.2475	-1.207e-05
2	0	0	1	1	154.271	0.413188	0.41324	-0.0233268	1	0.00184054	41	43.7473	-9.63957e-06
2	0	0	1	1	154.77	0.423183	0.42323	-0.0173786	1	0.00183043	41	44.247	-7.35516e-06
2	0	0	1	1	155.27	0.433179	0.43321	-0.0120106	1	0.00182313	41	44.7468	-5.20309e-06
2	0	0	1	1	155.77	0.443172	0.443211	-0.00703178	1	0.00181843	41	45.2465	-3.11656e-06
2	0	0	1	1	156.3	0.453769	0.453815	-0.00201125	1	0.00181606	42	45.7763	-9.12735e-07
2	1	0	1	1	156.769	0.463164	0.463204	0.00224977	2	0.00181613	42	0.2199	1.0421e-06
2	1	0	1	1	157.269	0.47316	0.473217	0.00671662	2	0.00181837	42	0.7196	3.17842e-06
2	1	0	1	1	157.799	0.483755	0.483842	0.0114427	2	0.00182319	41	1.2494	5.53648e-06
2	1	0	1	1	158.299	0.493748	0.49383	0.0161532	2	0.00183013	41	1.7491	7.97693e-06
2	1	0	1	1	158.798	0.503745	0.503818	0.0211581	2	0.00183949	41	2.2489	1.06598e-05
2	1	0	1	1	159.298	0.51374	0.513794	0.0265645	2	0.00185144	41	2.7487	1.36487e-05
2	1	0	1	1	159.798	0.523736	0.523798	0.0324181	2	0.0018662	41	3.2484	1.69805e-05
2	1	0	1	1	160.298	0.533731	0.533786	0.0388424	2	0.00188404	41	3.7482	2.07335e-05
2	1	0	1	1	160.797	0.543726	0.543784	0.045906	2	0.00190524	41	4.248	2.4963e-05
2	1	0	1	1	161.297	0.553721	0.553762	0.0536882	2	0.00193014	41	4.7477	2.97305e-05
2	1	0	1	1	161.797	0.563717	0.563768	0.0621761	2	0.00195911	41	5.2475	3.50529e-05
2	1	0	1	1	162.297	0.573713	0.573769	0.0714132	2	0.00199252	41	5.7473	4.09747e-05
2	1	0	1	1	162.796	0.583707	0.583758	0.0814526	2	0.00203073	41	6.247	4.75486e-05
2	1	0	1	1	163.296	0.593702	0.593741	0.0921677	2	0.00207415	41	6.7468	5.47237e-05
2	1	0	1	1	163.796	0.603698	0.603731	0.103588	2	0.0021231	41	7.2465	6.25396e-05
2	1	0	1	1	164.326	0.614293	0.614354	0.11638	2	0.00218139	40	7.7763	7.14982e-05
2	1	0	1	1	164.826	0.624289	0.624323	0.128857	2	0.00224272	40	8.2761	8.04481e-05
2	1	0	1	1	165.325	0.634283	0.634316	0.141594	2	0.00231033	40	8.7758	8.98155e-05
2	1	0	1	1	165.825	0.644278	0.644303	0.154749	2	0.00238445	40	9.2756	9.9705e-05
2	1	0	1	1	166.325	0.654273	0.654309	0.168064	2	0.00246517	40	9.7753	0.000109966
2	1	0	1	1	166.825	0.664269	0.664311	0.18136	2	0.00255253	40	10.2751	0.000120479
2	1	0	1	1	167.324	0.674264	0.674283	0.194923	2	0.00264669	40	10.7749	0.000131433
2	1	0	1	1	167.824	0.684259	0.684287	0.208485	2	0.00274755	40	11.2746	0.000142663
2	1	0	1	1	168.324	0.694254	0.694268	0.222564	2	0.00285535	40	11.7744	0.000154519
2	1	0	1	1	168.824	0.704249	0.704265	0.236523	2	0.00297013	40	12.2741	0.000166574
2	1	0	1	1	169.323	0.714245	0.714261	0.251048	2	0.00309212	40	12.7739	0.000179314
2	1	0	1	1	169.823	0.72424	0.724248	0.265826	2	0.00322139	40	13.2737	0.000192524
2	1	0	1	1	170.323	0.734235	0.734245	0.280699	2	0.00335804	40	13.7734	0.000206102
2	1	0	1	1	170.823	0.744231	0.744243	0.296017	2	0.00350228	40	14.2732	0.000220308
2	1	0	1	1	171.322	0.754226	0.754247	0.311916	2	0.0036543	40	14.773	0.000235262
2	1	0	1	1	171.822	0.764221	0.764244	0.326944	2	0.00381414	40	15.2727	0.000249865
2	1	0	1	1	172.322	0.774217	0.774235	0.343095	2	0.0039819	40	15.7725	0.000265636
2	1	0	1	1	172.822	0.784213	0.78423	0.358894	2	0.00415722	40	16.2723	0.000281456
2	1	0	1	1	173.321	0.794207	0.79422	0.373758	2	0.00434037	40	16.772	0.000296846
2	1	0	1	1	173.821	0.804202	0.804227	0.388757	2	0.00453055	40	17.2718	0.000312649
2	1	0	1	1	174.321	0.814197	0.814208	0.402775	2	0.00472841	40	17.7715	0.000327943
2	1	0	1	1	174.821	0.824193	0.824187	0.417152	2	0.00493336	40	18.2713	0.000343811
2	1	0	1	1	175.321	0.834188	0.834178	0.429297	2	0.00514505	40	18.7711	0.00035811
2	1	0	1	1	175.82	0.844183	0.844173	0.442032	2	0.00536277	40	19.2708	0.000373151
2	1	0	1	1	176.32	0.854178	0.854152	0.452572	2	0.00558648	40	19.7706	0.000386565
2	1	0	1	1	176.82	0.864174	0.86415	0.463577	2	0.00581564	40	20.2703	0.0004006
2	1	0	1	1	177.32	0.874169	0.87416	0.473573	2	0.00605002	40	20.7701	0.000413979
2	1	0	1	1	177.819	0.884164	0.884162	0.482541	2	0.00628916	40	21.2699	0.000426644
2	1	0	1	1	178.319	0.894159	0.894143	0.492063	2	0.0065326	40	21.7696	0.000439974
2	1	0	1	1	178.819	0.904155	0.904133	0.500019	2	0.00678072	40	22.2694	0.000452083
2	1	0	1	1	179.319	0.91415	0.914138	0.507721	2	0.00703228	40	22.7692	0.000464127
2	1	0	1	1	179.818	0.924145	0.924143	0.513936	2	0.00728757	40	23.2689	0.00047495
2	1	0	1	1	180.318	0.93414	0.934128	0.520416	2	0.00754624	40	23.7687	0.000486136
2	1	0	1	1	180.818	0.944137	0.944117	0.526126	2	0.00780813	40	24.2685	0.000496724
2	1	0	1	1	181.318	0.954131	0.954135	0.53169	2	0.00807246	40	24.7682	0.000507304
2	1	0	1	1	181.817	0.964126	0.964114	0.536768	2	0.00833914	40	25.268	0.000517505
2	1	0	1	1	182.317	0.974121	0.974122	0.540171	2	0.00860784	40	25.7677	0.000526192
2	1	0	1	1	182.817	0.984117	0.984086	0.542941	2	0.00887911	40	26.2675	0.000534301
2	1	0	1	1	183.317	0.994112	0.994103	0.546809	2	0.00915234	40	26.7673	0.000543585
2	1	0	1	1	183.774	0.996711	0.996708	0.545156	2	0.00940353	40	27.2249	0.000543361
2	1	0	1	1	184.274	0.986715	0.986687	0.544335	2	0.00967608	40	27.7247	0.000537088
2	1	0	1	1	184.774	0.97672	0.976695	0.538637	2	0.00994655	40	28.2244	0.000526085
2	1	0	1	1	185.274	0.966725	0.966724	0.534854	2	0.0102152	40	28.7242	0.000517057
2	1	0	1	1	185.773	0.956731	0.956712	0.531019	2	0.010481	40	29.2239	0.000508032
2	1	0	1	1	186.273	0.946734	0.946705	0.524757	2	0.0107444	40	29.7237	0.00049679
2	1	0	1	1	186.773	0.936739	0.936741	0.517652	2	0.0110047	40	30.2235	0.000484906
2	1	0	1	1	187.273	0.926744	0.926763	0.511412	2	0.0112618	40	30.7232	0.000473958
2	1	0	1	1	187.772	0.916749	0.916736	0.504785	2	0.0115157	40	31.223	0.000462755
2	1	0	1	1	188.272	0.906753	0.906767	0.497029	2	0.0117657	40	31.7228	0.000450689
2	1	0	1	1	188.772	0.896758	0.896752	0.488626	2	0.0120116	40	32.2225	0.000438177
2	1	0	1	1	189.272	0.886763	0.886758	0.47892	2	0.012253	40	32.7223	0.000424686
2	1	0	1	1	189.772	0.876767	0.876781	0.46926	2	0.0124897	40	33.2221	0.000411438
2	1	0	1	1	190.271	0.866772	0.866773	0.458637	2	0.0127215	40	33.7218	0.000397534
2	1	0	1	1	190.771	0.856777	0.856772	0.447877	2	0.0129478	40	34.2216	0.000383729
2	1	0	1	1	191.271	0.846782	0.84678	0.435477	2	0.0131686	40	34.7213	0.000368753
2	1	0	1	1	191.771	0.836787	0.836793	0.423611	2	0.0133833	40	35.2211	0.000354475
2	1	0	1	1	192.27	0.826791	0.826787	0.410027	2	0.0135916	40	35.7209	0.000339005
2	1	0	1	1	192.77	0.816796	0.816805	0.39617	2	0.0137931	40	36.2206	0.000323594
2	1	0	1	1	193.27	0.806801	0.806779	0.381965	2	0.0139875	40	36.7204	0.000308161
2	1	0	1	1	193.77	0.796807	0.796803	0.367223	2	0.0141748	40	37.2201	0.000292604
2	1	0	1	1	194.269	0.78681	0.786798	0.352515	2	0.0143545	40	37.7199	0.000277358
2	1	0	1	1	194.769	0.776815	0.776809	0.336683	2	0.0145267	40	38.2197	0.000261538
2	1	0	1	1	195.269	0.76682	0.766828	0.321149	2	0.0146908	40	38.7194	0.000246266
2	1	0	1	1	195.769	0.756825	0.756811	0.305245	2	0.0148473	40	39.2192	0.000231012
2	1	0	1	1	196.268	0.74683	0.74682	0.289938	2	0.014996	40	39.719	0.000216532
2	1	0	1	1	196.768	0.736834	0.736821	0.274882	2	0.015137	40	40.2187	0.000202539
2	1	0	1	1	197.268	0.726839	0.72684	0.260129	2	0.0152707	40	40.7185	0.000189072
2	1	0	1	1	197.768	0.716843	0.716838	0.245289	2	0.015397	40	41.2183	0.000175832
2	1	0	1	1	198.267	0.706848	0.706848	0.231961	2	0.0155163	40	41.718	0.000163962
2	1	0	1	1	198.767	0.696853	0.696852	0.218622	2	0.0156288	40	42.2178	0.000152347
2	1	0	1	1	199.267	0.686858	0.686864	0.2053	2	0.0157346	40	42.7175	0.000141013
2	1	0	1	1	199.767	0.676863	0.676856	0.192336	2	0.0158339	40	43.2173	0.000130184
2	1	0	1	1	200.267	0.666867	0.666872	0.179545	2	0.0159268	40	43.7171	0.000119734
2	1	0	1	1	200.766	0.656872	0.656863	0.166911	2	0.0160132	40	44.2168	0.000109638
2	1	0	1	1	201.266	0.646877	0.646889	0.154351	2	0.0160934	40	44.7166	9.98478e-05
2	1	0	1	1	201.766	0.636883	0.636883	0.142025	2	0.0161673	40	45.2163	9.04532e-05
2	1	0	1	1	202.266	0.626886	0.626898	0.129768	2	0.0162352	40	45.7161	8.13513e-05
2	1	0	1	1	202.765	0.616891	0.6169	0.117793	2	0.016297	40	46.2159	7.26664e-05
2	1	0	1	1	203.265	0.606896	0.606908	0.106041	2	0.0163528	40	46.7156	6.43572e-05
2	1	0	1	1	203.765	0.596901	0.596907	0.0948835	2	0.016403	40	47.2154	5.66366e-05
2	1	0	1	1	204.265	0.586906	0.586914	0.0841777	2	0.0164476	40	47.7152	4.94051e-05
2	1	0	1	1	204.764	0.57691	0.576911	0.0741376	2	0.0164871	40	48.2149	4.27708e-05
2	1	0	1	1	205.264	0.566915	0.566926	0.064754	2	0.0165217	40	48.7147	3.67107e-05
2	1	0	1	1	205.764	0.556919	0.556928	0.0560299	2	0.0165518	40	49.2145	3.12046e-05
2	1	0	1	1	206.264	0.546925	0.546933	0.0479881	2	0.0165777	40	49.7142	2.62463e-05
2	1	0	1	1	206.793	0.53633	0.536341	0.040192	2	0.016601	41	50.244	2.15566e-05
2	1	0	1	1	207.293	0.526334	0.526341	0.0334586	2	0.0166193	41	50.7437	1.76106e-05
2	1	0	1	1	207.793	0.516339	0.516357	0.0273503	2	0.0166344	41	51.2435	1.41225e-05
2	1	0	1	1	208.293	0.506343	0.506342	0.0216983	2	0.0166466	41	51.7433	1.09868e-05
2	1	0	1	1	208.792	0.496349	0.496367	0.0164535	2	0.0166561	41	52.243	8.16698e-06
2	1	0	1	1	209.292	0.486353	0.486373	0.0114593	2	0.016663	41	52.7428	5.5735e-06
2	1	0	1	1	209.792	0.476358	0.476386	0.00671262	2	0.0166675	41	53.2425	3.1978e-06
2	1	0	1	1	210.322	0.465763	0.465794	0.00167252	2	0.0166697	42	53.7723	7.7905e-07
2	0	0	1	1	210.821	0.455768	0.455792	-0.00302643	2	0.0166693	42	0.2998	-1.37942e-06
2	0	0	1	1	211.321	0.445773	0.445797	-0.00787628	2	0.0166666	42	0.7996	-3.51122e-06
2	0	0	1	1	211.851	0.435178	0.435174	-0.0132496	2	0.016661	41	1.3294	-5.76587e-06
2	0	0	1	1	212.351	0.425182	0.425205	-0.0188088	2	0.016653	41	1.8291	-7.9976e-06
2	0	0	1	1	212.851	0.415187	0.415229	-0.024938	2	0.016642	41	2.3289	-1.0355e-05
2	0	0	1	1	213.35	0.405192	0.40521	-0.0317588	2	0.0166278	41	2.8286	-1.2869e-05
2	0	0	1	1	213.85	0.395197	0.395218	-0.039386	2	0.0166101	41	3.3284	-1.55661e-05
2	0	0	1	1	214.35	0.385201	0.385219	-0.0479752	2	0.0165882	41	3.8282	-1.8481e-05
2	0	0	1	1	214.85	0.375206	0.375233	-0.0576096	2	0.0165619	41	4.3279	-2.1617e-05
2	0	0	1	1	215.349	0.365211	0.365228	-0.0684441	2	0.0165304	41	4.8277	-2.49977e-05
2	0	0	1	1	215.849	0.355216	0.355249	-0.0804655	2	0.0164932	41	5.3275	-2.85853e-05
2	0	0	1	1	216.349	0.345221	0.345277	-0.093833	2	0.0164497	41	5.8272	-3.23984e-05
2	0	0	1	1	216.849	0.335225	0.335264	-0.108376	2	0.0163991	41	6.327	-3.63346e-05
2	0	0	1	1	217.378	0.32463	0.324666	-0.125213	2	0.0163373	40	6.8567	-4.06526e-05
2	0	0	1	1	217.878	0.314635	0.314667	-0.142472	2	0.0162703	40	7.3565	-4.48314e-05
2	0	0	1	1	218.378	0.304639	0.304657	-0.160796	2	0.0161945	40	7.8563	-4.89876e-05
2	0	0	1	1	218.878	0.294645	0.29467	-0.179933	2	0.0161094	40	8.356	-5.30208e-05
2	0	0	1	1	219.377	0.284649	0.284675	-0.199823	2	0.0160144	40	8.8558	-5.68845e-05
2	0	0	1	1	219.877	0.274654	0.274689	-0.220433	2	0.0159093	40	9.3555	-6.05503e-05
2	0	0	1	1	220.377	0.264659	0.264704	-0.241097	2	0.0157939	40	9.8553	-6.38193e-05
2	0	0	1	1	220.877	0.254664	0.254693	-0.261512	2	0.0156682	40	10.3551	-6.66053e-05
2	0	0	1	1	221.376	0.244668	0.244691	-0.282551	2	0.0155322	40	10.8548	-6.91377e-05
2	0	0	1	1	221.876	0.234673	0.234697	-0.302016	2	0.0153859	40	11.3546	-7.08823e-05
2	0	0	1	1	222.376	0.224679	0.224736	-0.321483	2	0.0152301	40	11.8543	-7.22487e-05
2	0	0	1	1	222.876	0.214683	0.214741	-0.340317	2	0.0150646	40	12.3541	-7.308e-05
2	0	0	1	1	223.376	0.204687	0.204734	-0.357439	2	0.0148901	40	12.8539	-7.31801e-05
2	0	0	1	1	223.875	0.194692	0.194734	-0.374714	2	0.0147071	40	13.3536	-7.29696e-05
2	0	0	1	1	224.375	0.184697	0.184742	-0.391253	2	0.0145159	40	13.8534	-7.22811e-05
2	0	0	1	1	224.875	0.174702	0.174742	-0.402786	2	0.014317	40	14.3532	-7.03836e-05
2	0	0	1	1	225.375	0.164706	0.164743	-0.418327	2	0.0141112	40	14.8529	-6.89162e-05
2	0	0	1	1	225.874	0.154711	0.154774	-0.429958	2	0.0138993	40	15.3527	-6.65462e-05
2	0	0	1	1	226.374	0.144715	0.144773	-0.441182	2	0.0136814	40	15.8525	-6.38713e-05
2	0	0	1	1	226.874	0.134721	0.134782	-0.449891	2	0.0134584	40	16.3522	-6.06372e-05
2	0	0	1	1	227.374	0.124725	0.124776	-0.461126	2	0.0132302	40	16.852	-5.75374e-05
2	0	0	1	1	227.873	0.11473	0.114778	-0.469261	2	0.0129978	40	17.3517	-5.38607e-05
2	0	0	1	1	228.373	0.104735	0.1048	-0.476131	2	0.0127612	40	17.8515	-4.98985e-05
2	0	0	1	1	228.873	0.0947396	0.0948083	-0.484624	2	0.0125211	40	18.3513	-4.59464e-05
2	0	0	1	1	229.373	0.0847444	0.0847969	-0.488587	2	0.0122784	40	18.851	-4.14307e-05
2	0	0	1	1	229.872	0.0747491	0.0748057	-0.495382	2	0.0120325	40	19.3508	-3.70574e-05
2	0	0	1	1	230.372	0.0647548	0.0648111	-0.500601	2	0.0117835	40	19.8505	-3.24445e-05
2	0	0	1	1	230.872	0.0547586	0.0548145	-0.502412	2	0.0115324	40	20.3503	-2.75395e-05
2	0	0	1	1	231.372	0.0447634	0.0448227	-0.506198	2	0.0112804	40	20.8501	-2.26892e-05
2	0	0	1	1	231.871	0.0347681	0.0348224	-0.511814	2	0.0110256	40	21.3498	-1.78226e-05
2	0	0	1	1	232.371	0.0247729	0.0248368	-0.515014	2	0.0107686	40	21.8496	-1.27913e-05
2	0	0	1	1	232.871	0.0147776	0.0148309	-0.51688	2	0.0105103	40	22.3494	-7.66579e-06
2	0	0	1	1	233.371	0.0047824	0.00485027	-0.521471	2	0.0102505	40	22.8491	-2.52928e-06
2	0	0	1	0	233.849	0.0047824	0.00484401	-0.517835	2	0.010002	40	23.327	-2.5084e-06
2	0	0	1	0	234.348	0.0147776	0.0148405	-0.516488	2	0.0097441	40	23.8267	-7.66496e-06
2	0	0	1	0	234.848	0.0247729	0.0248241	-0.513377	2	0.00948711	40	24.3265	-1.27441e-05
2	0	0	1	0	235.348	0.0347681	0.0348258	-0.509982	2	0.00923181	40	24.8263	-1.77605e-05
2	0	0	1	0	235.848	0.0447634	0.0448121	-0.505217	2	0.00897862	40	25.326	-2.26398e-05
2	0	0	1	0	236.347	0.0547586	0.0548055	-0.501279	2	0.00872701	40	25.8258	-2.74729e-05
2	0	0	1	0	236.847	0.064753	0.0648106	-0.496883	2	0.00847788	40	26.3255	-3.22033e-05
2	0	0	1	0	237.347	0.0747491	0.0748068	-0.489541	2	0.00823136	40	26.8253	-3.6621e-05
2	0	0	1	0	237.847	0.0847444	0.0848022	-0.485431	2	0.00798753	40	27.3251	-4.11656e-05
2	0	0	1	0	238.346	0.0947396	0.0948081	-0.480113	2	0.00774648	40	27.8248	-4.55186e-05
2	0	0	1	0	238.846	0.104735	0.104801	-0.471606	2	0.00750868	40	28.3246	-4.94247e-05
2	0	0	1	0	239.346	0.11473	0.114776	-0.463742	2	0.00727521	40	28.8244	-5.32266e-05
2	0	0	1	0	239.846	0.124725	0.124788	-0.454886	2	0.00704609	40	29.3241	-5.67642e-05
2	0	0	1	0	240.346	0.134721	0.134776	-0.444496	2	0.00682162	40	29.8239	-5.99074e-05
2	0	0	1	0	240.845	0.144717	0.14477	-0.434227	2	0.0066019	40	30.3237	-6.28632e-05
2	0	0	1	0	241.345	0.154711	0.154776	-0.421646	2	0.00638836	40	30.8234	-6.52607e-05
2	0	0	1	0	241.845	0.164706	0.164745	-0.409203	2	0.00618089	40	31.3232	-6.74141e-05
2	0	0	1	0	242.345	0.174702	0.174741	-0.395042	2	0.0059801	40	31.8229	-6.90298e-05
2	0	0	1	0	242.844	0.184697	0.184733	-0.380054	2	0.00578658	40	32.3227	-7.02086e-05
2	0	0	1	0	243.344	0.194692	0.194717	-0.364359	2	0.00560052	40	32.8225	-7.0947e-05
2	0	0	1	0	243.844	0.204687	0.204712	-0.346905	2	0.00542268	40	33.3222	-7.10156e-05
2	0	0	1	0	244.344	0.214683	0.214711	-0.328556	2	0.00525379	40	33.822	-7.05446e-05
2	0	0	1	0	244.843	0.224677	0.224717	-0.3108	2	0.00509413	40	34.3217	-6.98421e-05
2	0	0	1	0	245.343	0.234673	0.234719	-0.291598	2	0.0049436	40	34.8215	-6.84436e-05
2	0	0	1	0	245.843	0.244668	0.244678	-0.271186	2	0.00480312	40	35.3213	-6.63532e-05
2	0	0	1	0	246.343	0.254664	0.254707	-0.250674	2	0.00467272	40	35.821	-6.38486e-05
2	0	0	1	0	246.842	0.264659	0.264698	-0.230691	2	0.00455246	40	36.3208	-6.10636e-05
2	0	0	1	0	247.342	0.274654	0.274671	-0.210355	2	0.00444237	40	36.8206	-5.77785e-05
2	0	0	1	0	247.842	0.284649	0.284666	-0.190658	2	0.00434224	40	37.3203	-5.42739e-05
2	0	0	1	0	248.342	0.294644	0.294686	-0.171283	2	0.00425188	40	37.8201	-5.04747e-05
2	0	0	1	0	248.842	0.304641	0.304683	-0.152719	2	0.00417097	40	38.3199	-4.6531e-05
2	0	0	1	0	249.341	0.314635	0.314661	-0.135322	2	0.00409911	40	38.8196	-4.25807e-05
2	0	0	1	0	249.841	0.32463	0.32466	-0.118747	2	0.00403575	40	39.3194	-3.85524e-05
2	0	0	1	0	250.341	0.334626	0.334655	-0.103346	2	0.00398037	40	39.8191	-3.45854e-05
2	0	0	1	0	250.841	0.344621	0.34464	-0.0892343	2	0.00393235	40	40.3189	-3.07538e-05
2	0	0	1	0	251.34	0.354616	0.354649	-0.0764705	2	0.00389104	40	40.8187	-2.71201e-05
2	0	0	1	0	251.84	0.364611	0.364629	-0.0648391	2	0.00385584	40	41.3184	-2.36422e-05
2	0	0	1	0	252.34	0.374607	0.374627	-0.0544642	2	0.00382614	40	41.8182	-2.04038e-05
2	0	0	1	0	252.84	0.384601	0.38461	-0.0451369	2	0.00380137	40	42.3179	-1.73601e-05
2	0	0	1	0	253.369	0.395197	0.395247	-0.0363605	2	0.00377986	41	42.8477	-1.43714e-05
2	0	0	1	0	253.869	0.405192	0.40525	-0.0290289	2	0.00376359	41	43.3475	-1.1764e-05
2	0	0	1	0	254.369	0.415187	0.415228	-0.0224557	2	0.00375079	41	43.8472	-9.32423e-06
2	0	0	1	0	254.869	0.425182	0.42523	-0.0165718	2	0.0037411	41	44.347	-7.0468e-06
2	0	0	1	0	255.368	0.435178	0.435238	-0.0111496	2	0.00373423	41	44.8467	-4.85274e-06
2	0	0	1	0	255.868	0.445173	0.4452	-0.00618623	2	0.00372995	41	45.3465	-2.75411e-06
2	0	0	1	0	256.398	0.455768	0.455822	-0.00110267	2	0.00372805	42	45.8763	-5.0262e-07
2	1	0	1	0	256.868	0.465163	0.465188	0.00320029	3	0.00372855	42	0.3198	1.48874e-06
2	1	0	1	0	257.367	0.475159	0.475221	0.00774947	3	0.00373129	42	0.8196	3.68271e-06
2	1	0	1	0	257.897	0.485754	0.485853	0.0126063	3	0.00373669	41	1.3493	6.1248e-06
2	1	0	1	0	258.397	0.495749	0.495825	0.0174138	3	0.00374423	41	1.8491	8.6342e-06
2	1	0	1	0	258.897	0.505744	0.505798	0.0225876	3	0.00375426	41	2.3489	1.14248e-05
2	1	0	1	0	259.396	0.515739	0.515792	0.0281514	3	0.00376696	41	2.8486	1.45203e-05
2	1	0	1	0	259.896	0.525735	0.5258	0.0342002	3	0.00378257	41	3.3484	1.79825e-05
2	1	0	1	0	260.396	0.535728	0.535786	0.0408177	3	0.00380133	41	3.8481	2.18696e-05
2	1	0	1	0	260.896	0.545725	0.545761	0.0480746	3	0.00382357	41	4.3479	2.62372e-05
2	1	0	1	0	261.396	0.55572	0.555765	0.056061	3	0.00384962	41	4.8477	3.11567e-05
2	1	0	1	0	261.895	0.565716	0.565755	0.0648194	3	0.00387984	41	5.3474	3.66719e-05
2	1	0	1	0	262.395	0.575711	0.575748	0.07433	3	0.00391464	41	5.8472	4.27954e-05
2	1	0	1	0	262.895	0.585706	0.585762	0.0845662	3	0.00395438	41	6.347	4.95357e-05
2	1	0	1	0	263.395	0.595701	0.595721	0.0955623	3	0.00399941	41	6.8467	5.69285e-05
2	1	0	1	0	263.894	0.605697	0.60572	0.107163	3	0.00405008	41	7.3465	6.4911e-05
2	1	0	1	0	264.424	0.616292	0.616329	0.120005	3	0.00411029	40	7.8762	7.39623e-05
2	1	0	1	0	264.924	0.626287	0.626323	0.132643	3	0.0041735	40	8.376	8.30773e-05
2	1	0	1	0	265.424	0.636282	0.636318	0.145682	3	0.00424309	40	8.8758	9.26998e-05
2	1	0	1	0	265.923	0.646277	0.646325	0.158787	3	0.00431922	40	9.3755	0.000102628
2	1	0	1	0	266.423	0.656273	0.656301	0.172152	3	0.00440201	40	9.8753	0.000112983
2	1	0	1	0	266.923	0.666269	0.666296	0.185652	3	0.00449152	40	10.3751	0.000123699
2	1	0	1	0	267.423	0.676263	0.676289	0.199238	3	0.0045878	40	10.8748	0.000134742
2	1	0	1	0	267.922	0.686258	0.686285	0.213131	3	0.00469091	40	11.3746	0.000146269
2	1	0	1	0	268.422	0.696254	0.696279	0.227135	3	0.00480099	40	11.8743	0.000158149
2	1	0	1	0	268.922	0.706249	0.706266	0.241172	3	0.00491808	40	12.3741	0.000170331
2	1	0	1	0	269.422	0.716244	0.716285	0.255861	3	0.00504241	40	12.8739	0.000183269
2	1	0	1	0	269.921	0.726239	0.72626	0.270591	3	0.00517401	40	13.3736	0.000196519
2	1	0	1	0	270.421	0.736234	0.736259	0.28552	3	0.00531313	40	13.8734	0.000210217
2	1	0	1	0	270.921	0.746228	0.74625	0.301033	3	0.00545977	40	14.3731	0.000224646
2	1	0	1	0	271.421	0.756225	0.75625	0.316721	3	0.00561421	40	14.8729	0.00023952
2	1	0	1	0	271.921	0.76622	0.766239	0.331995	3	0.00577637	40	15.3727	0.000254388
2	1	0	1	0	272.42	0.776216	0.776236	0.347982	3	0.00594614	40	15.8724	0.000270117
2	1	0	1	0	272.92	0.786211	0.786236	0.362997	3	0.00612399	40	16.3722	0.000285401
2	1	0	1	0	273.42	0.796206	0.796213	0.378525	3	0.00630958	40	16.872	0.000301387
2	1	0	1	0	273.92	0.806201	0.806214	0.393272	3	0.0065024	40	17.3717	0.000317061
2	1	0	1	0	274.419	0.816196	0.816187	0.406074	3	0.00670235	40	17.8715	0.000331432
2	1	0	1	0	274.919	0.826193	0.826197	0.420516	3	0.00690935	40	18.3713	0.000347429
2	1	0	1	0	275.419	0.836187	0.836207	0.432319	3	0.00712269	40	18.871	0.000361508
2	1	0	1	0	275.919	0.846182	0.846191	0.444331	3	0.00734196	40	19.3708	0.000375989
2	1	0	1	0	276.418	0.856178	0.85618	0.455621	3	0.007567	40	19.8705	0.000390093
2	1	0	1	0	276.918	0.866173	0.866188	0.467213	3	0.00779726	40	20.3703	0.000404694
2	1	0	1	0	277.418	0.876168	0.876172	0.475889	3	0.00803285	40	20.8701	0.00041696
2	1	0	1	0	277.918	0.886163	0.886175	0.484674	3	0.008273	40	21.3698	0.000429506
2	1	0	1	0	278.417	0.896158	0.896175	0.494661	3	0.00851791	40	21.8696	0.000443303
2	1	0	1	0	278.917	0.906153	0.906145	0.502927	3	0.00876719	40	22.3693	0.000455725
2	1	0	1	0	279.417	0.916149	0.916148	0.506025	3	0.00901973	40	22.8691	0.000463594
2	1	0	1	0	279.917	0.926144	0.926159	0.516558	3	0.00927578	40	23.3689	0.000478415
2	1	0	1	0	280.416	0.936139	0.936159	0.522419	3	0.00953528	40	23.8686	0.000489067
2	1	0	1	0	280.916	0.946135	0.946132	0.526309	3	0.00979777	40	24.3684	0.000497958
2	1	0	1	0	281.416	0.95613	0.956128	0.53241	3	0.0100633	40	24.8682	0.000509051
2	1	0	1	0	281.916	0.966125	0.966147	0.538567	3	0.0103308	40	25.3679	0.000520335
2	1	0	1	0	282.416	0.97612	0.976117	0.541764	3	0.0106004	40	25.8677	0.000528825
2	1	0	1	0	282.915	0.986117	0.986119	0.546152	3	0.0108719	40	26.3675	0.00053857
2	1	0	1	0	283.415	0.996111	0.996103	0.547946	3	0.0111459	40	26.8672	0.000545811
2	1	0	1	0	283.873	0.994712	0.994722	0.544839	3	0.0113965	40	27.3249	0.000541963
2	1	0	1	0	284.372	0.984716	0.984717	0.543527	3	0.0116687	40	27.8246	0.00053522
2	1	0	1	0	284.872	0.974721	0.974715	0.541634	3	0.0119395	40	28.3244	0.000527939
2	1	0	1	0	285.372	0.964726	0.964751	0.534501	3	0.0122075	40	28.8241	0.000515661
2	1	0	1	0	285.872	0.954731	0.954745	0.527405	3	0.0124726	40	29.3239	0.000503538
2	1	0	1	0	286.372	0.944735	0.944738	0.520849	3	0.0127349	40	29.8237	0.000492066
2	1	0	1	0	286.871	0.93474	0.934753	0.516478	3	0.0129945	40	30.3234	0.000482779
2	1	0	1	0	287.371	0.924745	0.924756	0.509201	3	0.0132514	40	30.8232	0.000470886
2	1	0	1	0	287.871	0.91475	0.914764	0.503171	3	0.0135047	40	31.323	0.000460283
2	1	0	1	0	288.371	0.904754	0.904766	0.496458	3	0.0137541	40	31.8227	0.000449178
2	1	0	1	0	288.87	0.894759	0.894756	0.486421	3	0.0139991	40	32.3225	0.000435228
2	1	0	1	0	289.37	0.884764	0.884791	0.477537	3	0.01424	40	32.8222	0.00042252
2	1	0	1	0	289.87	0.874769	0.874793	0.468622	3	0.0144762	40	33.322	0.000409947
2	1	0	1	0	290.37	0.864773	0.864775	0.457476	3	0.0147074	40	33.8218	0.000395613
2	1	0	1	0	290.869	0.854778	0.854775	0.44609	3	0.0149334	40	34.3215	0.000381307
2	1	0	1	0	291.369	0.844783	0.844812	0.433991	3	0.0151535	40	34.8213	0.000366641
2	1	0	1	0	291.869	0.834788	0.834801	0.421626	3	0.0153674	40	35.3211	0.000351973
2	1	0	1	0	292.369	0.824792	0.824832	0.408887	3	0.0155748	40	35.8208	0.000337263
2	1	0	1	0	292.868	0.814797	0.814813	0.394196	3	0.0157753	40	36.3206	0.000321196
2	1	0	1	0	293.368	0.804802	0.804847	0.379971	3	0.0159689	40	36.8203	0.000305819
2	1	0	1	0	293.868	0.794807	0.794845	0.365477	3	0.0161552	40	37.3201	0.000290498
2	1	0	1	0	294.368	0.784811	0.78483	0.350093	3	0.0163339	40	37.8199	0.000274764
2	1	0	1	0	294.867	0.774816	0.774854	0.334292	3	0.0165047	40	38.3196	0.000259027
2	1	0	1	0	295.367	0.764821	0.764849	0.318557	3	0.0166679	40	38.8194	0.000243648
2	1	0	1	0	295.867	0.754827	0.754858	0.303426	3	0.0168233	40	39.3191	0.000229044
2	1	0	1	0	296.367	0.74483	0.744863	0.287284	3	0.016971	40	39.8189	0.000213987
2	1	0	1	0	296.867	0.734835	0.734871	0.272635	3	0.017111	40	40.3187	0.000200352
2	1	0	1	0	297.366	0.72484	0.724873	0.258319	3	0.0172437	40	40.8184	0.000187249
2	1	0	1	0	297.866	0.714845	0.714885	0.244333	3	0.0173692	40	41.3182	0.00017467
2	1	0	1	0	298.366	0.704849	0.704891	0.230093	3	0.0174877	40	41.818	0.00016219
2	1	0	1	0	298.866	0.694854	0.69489	0.216738	3	0.0175992	40	42.3177	0.000150609
2	1	0	1	0	299.365	0.684859	0.684907	0.203502	3	0.0177041	40	42.8175	0.00013938
2	1	0	1	0	299.865	0.674863	0.674909	0.190319	3	0.0178025	40	43.3173	0.000128448
2	1	0	1	0	300.365	0.664868	0.664917	0.177544	3	0.0178944	40	43.817	0.000118052
2	1	0	1	0	300.865	0.654873	0.654937	0.165168	3	0.0179799	40	44.3168	0.000108175
2	1	0	1	0	301.364	0.644878	0.644934	0.15233	3	0.0180591	40	44.8165	9.82431e-05
2	1	0	1	0	301.864	0.634883	0.634917	0.139875	3	0.0181321	40	45.3163	8.88089e-05
2	1	0	1	0	302.364	0.624887	0.624936	0.127702	3	0.0181989	40	45.8161	7.98054e-05
2	1	0	1	0	302.864	0.614892	0.614935	0.115611	3	0.0182596	40	46.3158	7.1093e-05
2	1	0	1	0	303.363	0.604897	0.60494	0.104017	3	0.0183144	40	46.8156	6.29239e-05
2	1	0	1	0	303.863	0.594903	0.594962	0.0929245	3	0.0183636	40	47.3153	5.52865e-05
2	1	0	1	0	304.363	0.584907	0.58498	0.0823715	3	0.0184073	40	47.8151	4.81857e-05
2	1	0	1	0	304.863	0.574911	0.574967	0.0724152	3	0.0184459	40	48.3149	4.16363e-05
2	1	0	1	0	305.362	0.564916	0.564969	0.0630969	3	0.0184797	40	48.8146	3.56478e-05
2	1	0	1	0	305.862	0.554921	0.554954	0.0544936	3	0.018509	40	49.3144	3.02414e-05
2	1	0	1	0	306.362	0.544926	0.544978	0.0465842	3	0.0185342	40	49.8142	2.53873e-05
2	1	0	1	0	306.892	0.53433	0.534363	0.038915	3	0.0185567	41	50.3439	2.07947e-05
2	1	0	1	0	307.392	0.524335	0.524367	0.0323375	3	0.0185744	41	50.8437	1.69567e-05
2	1	0	1	0	307.891	0.51434	0.514388	0.0262929	3	0.018589	41	51.3434	1.35247e-05
2	1	0	1	0	308.391	0.504345	0.504375	0.0207095	3	0.0186007	41	51.8432	1.04454e-05
2	1	0	1	0	308.891	0.49435	0.494404	0.0155164	3	0.0186096	41	52.343	7.67137e-06
2	1	0	1	0	309.391	0.484354	0.484392	0.0105766	3	0.0186161	41	52.8427	5.12322e-06
2	1	0	1	0	309.89	0.474359	0.4744	0.00582633	3	0.0186201	41	53.3425	2.76401e-06
2	1	0	1	0	310.42	0.463764	0.463785	0.000755563	3	0.0186218	42	53.8722	3.50419e-07
2	0	0	1	0	310.92	0.453769	0.45381	-0.00398017	3	0.018621	42	0.3998	-1.80624e-06
2	0	0	1	0	311.42	0.443774	0.443825	-0.00890341	3	0.0186178	42	0.8996	-3.95155e-06
2	0	0	1	0	311.949	0.433179	0.433237	-0.0143493	3	0.0186117	41	1.4293	-6.21664e-06
2	0	0	1	0	312.449	0.423183	0.423226	-0.0200724	3	0.018603	41	1.9291	-8.49517e-06
2	0	0	1	0	312.949	0.413188	0.413226	-0.0263282	3	0.0185914	41	2.4288	-1.08795e-05
2	0	0	1	0	313.449	0.403193	0.403232	-0.0333383	3	0.0185765	41	2.9286	-1.34431e-05
2	0	0	1	0	313.948	0.393198	0.393235	-0.0411763	3	0.0185579	41	3.4284	-1.6192e-05
2	0	0	1	0	314.448	0.383202	0.383254	-0.0499904	3	0.0185351	41	3.9281	-1.9159e-05
2	0	0	1	0	314.948	0.373207	0.373275	-0.0598815	3	0.0185076	41	4.4279	-2.23523e-05
2	0	0	1	0	315.448	0.363212	0.363283	-0.0709606	3	0.018475	41	4.9276	-2.57788e-05
2	0	0	1	0	315.947	0.353217	0.353282	-0.0832498	3	0.0184364	41	5.4274	-2.94107e-05
2	0	0	1	0	316.447	0.343221	0.3433	-0.0969276	3	0.0183914	41	5.9272	-3.32752e-05
2	0	0	1	0	316.977	0.332626	0.332696	-0.11272	3	0.0183359	40	6.4569	-3.75014e-05
2	0	0	1	0	317.477	0.322631	0.322676	-0.128966	3	0.0182755	40	6.9567	-4.16144e-05
2	0	0	1	0	317.976	0.312636	0.312696	-0.146504	3	0.0182066	40	7.4564	-4.58111e-05
2	0	0	1	0	318.476	0.302641	0.302717	-0.165105	3	0.0181287	40	7.9562	-4.998e-05
2	0	0	1	0	318.976	0.292645	0.292688	-0.184365	3	0.0180414	40	8.456	-5.39615e-05
2	0	0	1	0	319.476	0.28265	0.282701	-0.204558	3	0.0179442	40	8.9557	-5.78288e-05
2	0	0	1	0	319.976	0.272655	0.2727	-0.225123	3	0.0178369	40	9.4555	-6.13911e-05
2	0	0	1	0	320.475	0.26266	0.2627	-0.245503	3	0.0177191	40	9.9553	-6.44938e-05
2	0	0	1	0	320.975	0.252665	0.252715	-0.266549	3	0.0175911	40	10.455	-6.73608e-05
2	0	0	1	0	321.475	0.242669	0.242726	-0.28663	3	0.0174528	40	10.9548	-6.95725e-05
2	0	0	1	0	321.975	0.232674	0.232716	-0.306919	3	0.0173043	40	11.4545	-7.1425e-05
2	0	0	1	0	322.474	0.222679	0.222731	-0.32563	3	0.017146	40	11.9543	-7.25281e-05
2	0	0	1	0	322.974	0.212684	0.212748	-0.344494	3	0.0169785	40	12.4541	-7.32904e-05
2	0	0	1	0	323.474	0.202688	0.202763	-0.360915	3	0.0168021	40	12.9538	-7.31801e-05
2	0	0	1	0	323.974	0.192693	0.192748	-0.378167	3	0.0166169	40	13.4536	-7.28908e-05
2	0	0	1	0	324.473	0.1827	0.18278	-0.393637	3	0.0164241	40	13.9533	-7.1949e-05
2	0	0	1	0	324.973	0.172703	0.172785	-0.407605	3	0.0162239	40	14.4531	-7.04281e-05
2	0	0	1	0	325.473	0.162707	0.162797	-0.420577	3	0.0160169	40	14.9529	-6.84687e-05
2	0	0	1	0	325.973	0.152712	0.152771	-0.432027	3	0.0158035	40	15.4526	-6.60013e-05
2	0	0	1	0	326.472	0.142717	0.142779	-0.444114	3	0.0155842	40	15.9524	-6.34102e-05
2	0	0	1	0	326.972	0.132722	0.132792	-0.453878	3	0.0153596	40	16.4522	-6.02713e-05
2	0	0	1	0	327.472	0.122726	0.122807	-0.462792	3	0.0151304	40	16.9519	-5.68339e-05
2	0	0	1	0	327.972	0.112731	0.112822	-0.470927	3	0.014897	40	17.4517	-5.31307e-05
2	0	0	1	0	328.472	0.102735	0.10282	-0.478105	3	0.0146598	40	17.9515	-4.91587e-05
2	0	0	1	0	328.971	0.0927406	0.0928078	-0.485666	3	0.0144192	40	18.4512	-4.50736e-05
2	0	0	1	0	329.471	0.0827453	0.0828115	-0.490105	3	0.0141752	40	18.951	-4.05863e-05
2	0	0	1	0	329.971	0.0727501	0.07282	-0.495695	3	0.0139285	40	19.4507	-3.60965e-05
2	0	0	1	0	330.471	0.0627548	0.062829	-0.50139	3	0.0136792	40	19.9505	-3.15018e-05
2	0	0	1	0	330.97	0.0527596	0.0528388	-0.505529	3	0.0134275	40	20.4503	-2.67116e-05
2	0	0	1	0	331.47	0.0427643	0.0428275	-0.509247	3	0.013174	40	20.95	-2.18098e-05
2	0	0	1	0	331.97	0.0327691	0.032863	-0.513274	3	0.0129182	40	21.4498	-1.68677e-05
2	0	0	1	0	332.47	0.0227752	0.0228484	-0.515314	3	0.0126607	40	21.9495	-1.17741e-05
2	0	0	1	0	332.969	0.0127786	0.0128671	-0.519015	3	0.0124024	40	22.4493	-6.67824e-06
2	0	0	1	0	333.469	0.00278335	0.00287211	-0.520593	3	0.0121423	40	22.9491	-1.4952e-06
2	0	0	1	1	333.947	0.00678144	0.00685533	-0.517917	3	0.0118937	40	23.4269	-3.55049e-06
2	0	0	1	1	334.447	0.0167767	0.0168515	-0.518262	3	0.0116355	40	23.9267	-8.73351e-06
2	0	0	1	1	334.947	0.0267724	0.0268385	-0.510976	3	0.0113784	40	24.4265	-1.37138e-05
2	0	0	1	1	335.446	0.0367672	0.036821	-0.508343	3	0.0111235	40	24.9262	-1.87177e-05
2	0	0	1	1	335.946	0.0467624	0.046842	-0.504359	3	0.010871	40	25.426	-2.36252e-05
2	0	0	1	1	336.446	0.0567577	0.0568149	-0.501207	3	0.0106199	40	25.9257	-2.84761e-05
2	0	0	1	1	336.946	0.0667529	0.0668269	-0.49631	3	0.0103711	40	26.4255	-3.31669e-05
2	0	0	1	1	337.445	0.0767482	0.0768067	-0.490797	3	0.0101244	40	26.9253	-3.76965e-05
2	0	0	1	1	337.945	0.0867434	0.0867894	-0.484161	3	0.0098811	40	27.425	-4.202e-05
2	0	0	1	1	338.445	0.0967387	0.0967724	-0.477969	3	0.00964097	40	27.9248	-4.62542e-05
2	0	0	1	1	338.945	0.106733	0.106767	-0.471697	3	0.00940406	40	28.4245	-5.03618e-05
2	0	0	1	1	339.444	0.116729	0.116773	-0.461602	3	0.00917112	40	28.9243	-5.39028e-05
2	0	0	1	1	339.944	0.126724	0.126774	-0.452962	3	0.00894233	40	29.4241	-5.7424e-05
2	0	0	1	1	340.444	0.13672	0.136765	-0.441708	3	0.00871885	40	29.9238	-6.04103e-05
2	0	0	1	1	340.944	0.146715	0.146779	-0.432594	3	0.00850026	40	30.4236	-6.34955e-05
2	0	0	1	1	341.443	0.15671	0.156782	-0.419902	3	0.00828704	40	30.9234	-6.58333e-05
2	0	0	1	1	341.943	0.166705	0.166753	-0.404605	3	0.00808077	40	31.4231	-6.74694e-05
2	0	0	1	1	342.443	0.176701	0.176759	-0.392732	3	0.00788119	40	31.9229	-6.94191e-05
2	0	0	1	1	342.943	0.186697	0.186756	-0.376177	3	0.00768899	40	32.4227	-7.02532e-05
2	0	0	1	1	343.442	0.196691	0.196745	-0.361798	3	0.00750462	40	32.9224	-7.11817e-05
2	0	0	1	1	343.942	0.206686	0.206748	-0.344859	3	0.00732822	40	33.4222	-7.12989e-05
2	0	0	1	1	344.442	0.216682	0.216734	-0.326977	3	0.00716067	40	33.9219	-7.08672e-05
2	0	0	1	1	344.942	0.226677	0.226736	-0.306979	3	0.00700227	40	34.4217	-6.96032e-05
2	0	0	1	1	345.442	0.236672	0.236716	-0.287805	3	0.00685362	40	34.9215	-6.81281e-05
2	0	0	1	1	345.941	0.246667	0.246708	-0.267911	3	0.00671482	40	35.4212	-6.60958e-05
2	0	0	1	1	346.441	0.256663	0.256733	-0.247614	3	0.00658596	40	35.921	-6.35707e-05
2	0	0	1	1	346.941	0.266657	0.266713	-0.227453	3	0.00646731	40	36.4207	-6.06647e-05
2	0	0	1	1	347.441	0.276653	0.276713	-0.207011	3	0.00635883	40	36.9205	-5.72826e-05
2	0	0	1	1	347.94	0.286648	0.28669	-0.187339	3	0.00626038	40	37.4203	-5.37083e-05
2	0	0	1	1	348.44	0.296644	0.2967	-0.168011	3	0.00617169	40	37.92	-4.9849e-05
2	0	0	1	1	348.94	0.306639	0.306689	-0.149736	3	0.00609238	40	38.4198	-4.59225e-05
2	0	0	1	1	349.44	0.316634	0.316666	-0.132326	3	0.00602204	40	38.9196	-4.19032e-05
2	0	0	1	1	349.939	0.326629	0.326676	-0.115934	3	0.00596013	40	39.4193	-3.78729e-05
2	0	0	1	1	350.439	0.336625	0.336655	-0.100993	3	0.00590605	40	39.9191	-3.39999e-05
2	0	0	1	1	350.939	0.346621	0.346664	-0.0870484	3	0.0058592	40	40.4189	-3.01766e-05
2	0	0	1	1	351.439	0.356615	0.356629	-0.074414	3	0.00581897	40	40.9186	-2.65382e-05
2	0	0	1	1	351.938	0.36661	0.366651	-0.0630146	3	0.00578474	40	41.4184	-2.31044e-05
2	0	0	1	1	352.438	0.376606	0.376638	-0.0527918	3	0.00575592	40	41.9181	-1.98834e-05
2	0	0	1	1	352.968	0.387201	0.387244	-0.0431136	3	0.00573062	41	42.4479	-1.66955e-05
2	0	0	1	1	353.468	0.397197	0.397228	-0.0350068	3	0.00571117	41	42.9477	-1.39057e-05
2	0	0	1	1	353.967	0.407191	0.407254	-0.0278002	3	0.00569554	41	43.4474	-1.13217e-05
2	0	0	1	1	354.467	0.417186	0.417231	-0.0213671	3	0.00568332	41	43.9472	-8.91501e-06
2	0	0	1	1	354.967	0.427182	0.427233	-0.0155048	3	0.00567417	41	44.4469	-6.62416e-06
2	0	0	1	1	355.467	0.437177	0.437239	-0.0101984	3	0.0056678	41	44.9467	-4.45912e-06
2	0	0	1	1	355.967	0.447172	0.447221	-0.00520948	3	0.00566399	41	45.4465	-2.32979e-06
2	0	0	1	1	356.496	0.457767	0.457834	-0.000175692	3	0.00566259	42	45.9762	-8.04378e-08
2	1	0	1	1	356.623	0.460341	0.460346	0.000997674	3	0.00566264	42	0.0767	4.59276e-07