File: Python/Data/RDE/240223-OCV-EIS-Fe2Fe3_5mM-HCl1M-225RPM-Ag_AgCl_BLF8-GC-RDE-1minRestVSEoc-3ppf-14p1mVAmplitude_04_PEIS_C15.mpt
EC-Lab ASCII FILE
Nb header lines : 67

Potentio Electrochemical Impedance Spectroscopy

Run on channel : 15 (SN 19485)
User :
Electrode connection : standard
Potential control : Ewe
Ewe ctrl range : min = -1.00 V, max = 1.00 V
Ewe,I filtering : 50 kHz
Safety Limits :
	Do not start on E overload
Channel : Floating
Acquisition started on : 02/23/2024 15:54:32.363
Loaded Setting File :  NONE
Saved on :
	File : 240223-OCV-EIS-Fe2Fe3_5mM-HCl1M-225RPM-Ag_AgCl_BLF8-GC-RDE-1minRestVSEoc-3ppf-14p1mVAmplitude_04_PEIS_C15.mpr
	Directory : C:\Data\mathias\RDE-RPM-variation\
	Host : 192.168.0.1
Device : VMP-300 (SN 0826)
Address : USB
EC-Lab for windows v11.52 (software)
Internet server v11.52 (firmware)
Command interpretor v11.52 (firmware)
Electrode material :
Initial state :
Electrolyte :
Comments :
Cable : special
Reference electrode : SCE Saturated Calomel Electrode (0.241 V)
Electrode surface area : 0.001 cm²
Characteristic mass : 0.001 g
Equivalent Weight : 0.000 g/eq.
Density : 0.000 g/cm3
Volume (V) : 0.001 cm³
Record EIS quality indicators
Cycle Definition : Charge/Discharge alternance
Mode                Single sine
E (V)               0.0000
vs.                 Eoc
tE (h:m:s)          0:01:0.0000
record              0
dI                  0.000
unit dI             mA
dt (s)              0.000
fi                  1.000
unit fi             MHz
ff                  100.000
unit ff             mHz
Nd                  10
Points              per decade
spacing             Logarithmic
Va (mV)             14.1
pw                  0.10
Na                  3
corr                0
E range min (V)     -1.000
E range max (V)     1.000
I Range             Auto
Bandwidth           8
nc cycles           0
goto Ns'            0
nr cycles           0
inc. cycle          1

freq/Hz	Re(Z)/Ohm	-Im(Z)/Ohm	|Z|/Ohm	Phase(Z)/deg	time/s	<Ewe>/V	<I>/mA	Cs/µF	Cp/µF	cycle number	I Range	|Ewe|/V	|I|/A	Ns	(Q-Qo)/mA.h	THD Ewe/%	NSD Ewe/%	NSR Ewe/%	|Ewe h2|/V	|Ewe h3|/V	|Ewe h4|/V	|Ewe h5|/V	|Ewe h6|/V	|Ewe h7|/V	THD I/%	NSD I/%	NSR I/%	|I h2|/A	|I h3|/A	|I h4|/A	|I h5|/A	|I h6|/A	|I h7|/A	Re(Y)/Ohm-1	Im(Y)/Ohm-1	|Y|/Ohm-1	Phase(Y)/deg	Re(C)/nF	Im(C)/nF	|C|/nF	Phase(C)/deg	Re(M)	Im(M)	|M|	Phase(M)/deg	Re(Permittivity)	Im(Permittivity)	|Permittivity|	Phase(Permittivity)/deg	Re(Resistivity)/Ohm.cm	Im(Resistivity)/Ohm.cm	|Resistivity|/Ohm.cm	Phase(Resistivity)/deg	Re(Conductivity)/mS/cm	Im(Conductivity)/mS/cm	|Conductivity|/mS/cm	Phase(Conductivity)/deg	Tan(Delta)	Loss Angle(Delta)/deg	dq/mA.h
1.00002e+06	3.51877	4.0845	5.39118	-49.2553	602.04	0.459423	-0.0109373	0.0389649	0.0223657	1	38	0.0111392	0.00206618	0	-7.24994e-06	-1	-1	-1	0	0	0	0	0	0	-1	-1	-1	0	0	0	0	0	0	0.121066	0.140531	0.185488	49.2553	22.3657	19.2679	29.5208	-40.7447	0.0000000E+000	0.0000000E+000	0.0000000E+000	40.7447	0.0000000E+000	0.0000000E+000	0.0000000E+000	-40.7447	0.0000000E+000	0.0000000E+000	0.0000000E+000	-49.2553	0.0000000E+000	0.0000000E+000	0.0000000E+000	49.2553	0.861493	40.7447	-7.24994e-06
794333	3.56161	3.1976	4.78641	-41.9174	603.052	0.459399	-0.00149351	0.0626605	0.0279655	1	38	0.0138708	0.00289796	0	-5.05627e-06	-1	-1	-1	0	0	0	0	0	0	-1	-1	-1	0	0	0	0	0	0	0.155463	0.139574	0.208925	41.9174	27.9655	31.149	41.8608	-48.0826	0.0000000E+000	0.0000000E+000	0.0000000E+000	48.0826	0.0000000E+000	0.0000000E+000	0.0000000E+000	-48.0826	0.0000000E+000	0.0000000E+000	0.0000000E+000	-41.9174	0.0000000E+000	0.0000000E+000	0.0000000E+000	41.9174	1.11384	48.0826	2.19367e-06
630957	3.54585	2.52465	4.35281	-35.451	604.199	0.459438	-0.00113226	0.0999122	0.0336111	1	38	0.0144786	0.00332627	0	-3.50295e-06	-1	-1	-1	0	0	0	0	0	0	-1	-1	-1	0	0	0	0	0	0	0.187146	0.133249	0.229737	35.451	33.6111	47.2065	57.9497	-54.549	0.0000000E+000	0.0000000E+000	0.0000000E+000	54.549	0.0000000E+000	0.0000000E+000	0.0000000E+000	-54.549	0.0000000E+000	0.0000000E+000	0.0000000E+000	-35.451	0.0000000E+000	0.0000000E+000	0.0000000E+000	35.451	1.40449	54.549	1.55332e-06
501206	3.50968	2.0158	4.04739	-29.8711	605.346	0.45941	-0.00187889	0.157527	0.0390753	1	38	0.0145676	0.00359926	0	-3.10905e-06	-1	-1	-1	0	0	0	0	0	0	-1	-1	-1	0	0	0	0	0	0	0.214249	0.123055	0.247073	29.8711	39.0753	68.0334	78.4565	-60.1289	0.0000000E+000	0.0000000E+000	0.0000000E+000	60.1289	0.0000000E+000	0.0000000E+000	0.0000000E+000	-60.1289	0.0000000E+000	0.0000000E+000	0.0000000E+000	-29.8711	0.0000000E+000	0.0000000E+000	0.0000000E+000	29.8711	1.74109	60.1289	3.93895e-07
398103	3.46587	1.63622	3.83268	-25.2717	606.494	0.459409	-0.000888335	0.244334	0.0445306	1	38	0.0145585	0.00379851	0	-8.30868e-06	-1	-1	-1	0	0	0	0	0	0	-1	-1	-1	0	0	0	0	0	0	0.235943	0.111387	0.260914	25.2717	44.5306	94.3258	104.309	-64.7283	0.0000000E+000	0.0000000E+000	0.0000000E+000	64.7283	0.0000000E+000	0.0000000E+000	0.0000000E+000	-64.7283	0.0000000E+000	0.0000000E+000	0.0000000E+000	-25.2717	0.0000000E+000	0.0000000E+000	0.0000000E+000	25.2717	2.11823	64.7283	-5.19963e-06
316230	3.43616	1.35843	3.69493	-21.5705	607.641	0.459403	-0.00124024	0.370494	0.0500774	1	38	0.014548	0.00393728	0	-5.72615e-06	-1	-1	-1	0	0	0	0	0	0	-1	-1	-1	0	0	0	0	0	0	0.251687	0.0995003	0.270641	21.5705	50.0774	126.671	136.211	-68.4295	0.0000000E+000	0.0000000E+000	0.0000000E+000	68.4295	0.0000000E+000	0.0000000E+000	0.0000000E+000	-68.4295	0.0000000E+000	0.0000000E+000	0.0000000E+000	-21.5705	0.0000000E+000	0.0000000E+000	0.0000000E+000	21.5705	2.52951	68.4295	2.58253e-06
251188	3.41183	1.17649	3.60898	-19.0256	608.788	0.459401	-0.00196825	0.538559	0.0572323	1	38	0.0145495	0.00403148	0	-1.65766e-05	-1	-1	-1	0	0	0	0	0	0	-1	-1	-1	0	0	0	0	0	0	0.26195	0.0903274	0.277087	19.0256	57.2323	165.974	175.565	-70.9744	0.0000000E+000	0.0000000E+000	0.0000000E+000	70.9744	0.0000000E+000	0.0000000E+000	0.0000000E+000	-70.9744	0.0000000E+000	0.0000000E+000	0.0000000E+000	-19.0256	0.0000000E+000	0.0000000E+000	0.0000000E+000	19.0256	2.90001	70.9744	-1.08504e-05
199544	3.40184	1.06605	3.56497	-17.3997	609.935	0.459411	-0.00175785	0.748176	0.0669036	1	38	0.0145835	0.00409079	0	-1.80219e-05	-1	-1	-1	0	0	0	0	0	0	-1	-1	-1	0	0	0	0	0	0	0.267672	0.0838817	0.280507	17.3997	66.9036	213.494	223.731	-72.6003	0.0000000E+000	0.0000000E+000	0.0000000E+000	72.6003	0.0000000E+000	0.0000000E+000	0.0000000E+000	-72.6003	0.0000000E+000	0.0000000E+000	0.0000000E+000	-17.3997	0.0000000E+000	0.0000000E+000	0.0000000E+000	17.3997	3.19106	72.6003	-1.4453e-06
158486	3.3986	1.0124	3.54619	-16.5881	611.081	0.45943	-0.00145436	0.991923	0.0808457	1	38	0.0145719	0.00410918	0	-2.95541e-05	-1	-1	-1	0	0	0	0	0	0	-1	-1	-1	0	0	0	0	0	0	0.270257	0.080506	0.281993	16.5881	80.8457	271.398	283.183	-73.4119	0.0000000E+000	0.0000000E+000	0.0000000E+000	73.4119	0.0000000E+000	0.0000000E+000	0.0000000E+000	-73.4119	0.0000000E+000	0.0000000E+000	0.0000000E+000	-16.5881	0.0000000E+000	0.0000000E+000	0.0000000E+000	16.5881	3.35698	73.4119	-1.15322e-05
125909	3.39854	1.00817	3.54492	-16.523	612.229	0.45942	-0.00108942	1.25379	0.101411	1	38	0.0145684	0.00410965	0	-3.28979e-05	-1	-1	-1	0	0	0	0	0	0	-1	-1	-1	0	0	0	0	0	0	0.270445	0.0802273	0.282094	16.523	101.411	341.854	356.579	-73.477	0.0000000E+000	0.0000000E+000	0.0000000E+000	73.477	0.0000000E+000	0.0000000E+000	0.0000000E+000	-73.477	0.0000000E+000	0.0000000E+000	0.0000000E+000	-16.523	0.0000000E+000	0.0000000E+000	0.0000000E+000	16.523	3.37098	73.477	-3.3438e-06
100004	3.41345	1.06333	3.57523	-17.3024	613.376	0.459424	-0.00126444	1.49671	0.132392	1	38	0.0145088	0.00405815	0	-3.85653e-05	0.487685	0.221898	9.00409	3.90014e-05	2.48369e-05	2.4427e-05	2.06659e-05	2.83668e-05	1.9199e-05	0.0681534	0.0465132	0.70225	1.85498e-06	1.2948e-06	8.43519e-07	4.94862e-07	5.00468e-07	6.87736e-07	0.267045	0.0831876	0.279702	17.3024	132.392	425	445.143	-72.6976	0.0000000E+000	0.0000000E+000	0.0000000E+000	72.6976	0.0000000E+000	0.0000000E+000	0.0000000E+000	-72.6976	0.0000000E+000	0.0000000E+000	0.0000000E+000	-17.3024	0.0000000E+000	0.0000000E+000	0.0000000E+000	17.3024	3.21016	72.6976	-5.6674e-06
79433.3	3.44017	1.17157	3.63419	-18.8066	614.524	0.459393	-0.00140595	1.71021	0.177734	1	38	0.014585	0.00401328	0	-4.2042e-05	0.344951	0.293626	9.04716	2.30311e-05	1.83576e-05	1.06367e-05	1.83043e-05	2.73056e-05	1.85272e-05	0.061791	0.0569287	0.703542	1.62218e-06	1.06017e-06	7.58226e-07	4.53899e-07	8.37223e-07	6.72078e-07	0.260474	0.088706	0.275164	18.8066	177.734	521.893	551.328	-71.1934	0.0000000E+000	0.0000000E+000	0.0000000E+000	71.1934	0.0000000E+000	0.0000000E+000	0.0000000E+000	-71.1934	0.0000000E+000	0.0000000E+000	0.0000000E+000	-18.8066	0.0000000E+000	0.0000000E+000	0.0000000E+000	18.8066	2.93637	71.1934	-3.4767e-06
63093.8	3.46313	1.31596	3.70473	-20.8063	615.671	0.459416	-0.00256037	1.91686	0.241859	1	38	0.0146194	0.00394614	0	-3.93296e-05	0.499082	0.179053	8.92942	2.18691e-05	4.42132e-05	2.42386e-05	2.03081e-05	2.16277e-05	2.4138e-05	0.0620848	0.0487091	0.719986	9.36146e-07	1.29401e-06	1.08669e-06	8.92381e-07	6.96435e-07	7.42543e-07	0.252323	0.0958804	0.269925	20.8063	241.859	636.487	680.89	-69.1937	0.0000000E+000	0.0000000E+000	0.0000000E+000	69.1937	0.0000000E+000	0.0000000E+000	0.0000000E+000	-69.1937	0.0000000E+000	0.0000000E+000	0.0000000E+000	-20.8063	0.0000000E+000	0.0000000E+000	0.0000000E+000	20.8063	2.63164	69.1937	2.71237e-06
50122.5	3.50357	1.52378	3.82058	-23.5052	616.818	0.459413	-0.00167035	2.08385	0.331474	1	38	0.0146106	0.00382418	0	-3.68501e-05	0.41762	0.335897	9.15756	6.26486e-06	2.5535e-05	3.1835e-05	2.12914e-05	2.69558e-05	1.3392e-05	0.0668623	0.0369018	0.751813	8.88196e-07	1.83748e-06	5.04338e-07	1.16888e-06	5.65836e-07	5.12582e-07	0.240022	0.104391	0.26174	23.5052	331.474	762.146	831.109	-66.4948	0.0000000E+000	0.0000000E+000	0.0000000E+000	66.4948	0.0000000E+000	0.0000000E+000	0.0000000E+000	-66.4948	0.0000000E+000	0.0000000E+000	0.0000000E+000	-23.5052	0.0000000E+000	0.0000000E+000	0.0000000E+000	23.5052	2.29927	66.4948	2.47953e-06
39814.1	3.5534	1.80375	3.98499	-26.9128	617.965	0.459392	-0.00145623	2.2162	0.45405	1	38	0.0145978	0.0036632	0	-3.50315e-05	0.435682	0.345103	9.09934	2.59629e-05	3.86446e-05	2.07544e-05	1.74263e-05	2.30291e-05	2.10423e-05	0.0575506	0.0900611	0.768211	8.71339e-07	1.13478e-06	6.12865e-07	8.85757e-07	7.65005e-07	5.31445e-07	0.223763	0.113585	0.250941	26.9128	454.05	894.484	1003.13	-63.0872	0.0000000E+000	0.0000000E+000	0.0000000E+000	63.0872	0.0000000E+000	0.0000000E+000	0.0000000E+000	-63.0872	0.0000000E+000	0.0000000E+000	0.0000000E+000	-26.9128	0.0000000E+000	0.0000000E+000	0.0000000E+000	26.9128	1.97001	63.0872	1.81855e-06
31621.1	3.60716	2.17317	4.21121	-31.0673	619.112	0.459425	-0.00230341	2.31605	0.616769	1	38	0.0147202	0.00349547	0	-3.95799e-05	0.47762	0.236461	8.92451	2.15632e-05	3.40473e-05	2.52492e-05	1.98174e-05	3.23917e-05	2.24723e-05	0.0609892	0.0998693	0.804099	6.52991e-07	1.35552e-06	9.38803e-07	6.89028e-07	4.5013e-07	4.7631e-07	0.2034	0.122541	0.237461	31.0673	616.769	1023.75	1195.19	-58.9327	0.0000000E+000	0.0000000E+000	0.0000000E+000	58.9327	0.0000000E+000	0.0000000E+000	0.0000000E+000	-58.9327	0.0000000E+000	0.0000000E+000	0.0000000E+000	-31.0673	0.0000000E+000	0.0000000E+000	0.0000000E+000	31.0673	1.65986	58.9327	-4.54836e-06
25116.9	3.67878	2.61959	4.51616	-35.454	620.258	0.459403	-0.00194594	2.41891	0.813859	1	38	0.0147269	0.00326093	0	-3.93616e-05	0.443853	0.331285	8.90301	3.25005e-05	2.05382e-05	2.37322e-05	1.95777e-05	2.79055e-05	2.06951e-05	0.0561325	0.0917124	0.87455	1.10661e-06	7.88798e-07	6.75328e-07	3.63073e-07	4.40392e-07	6.68596e-07	0.180371	0.128438	0.221427	35.454	813.859	1142.93	1403.09	-54.546	0.0000000E+000	0.0000000E+000	0.0000000E+000	54.546	0.0000000E+000	0.0000000E+000	0.0000000E+000	-54.546	0.0000000E+000	0.0000000E+000	0.0000000E+000	-35.454	0.0000000E+000	0.0000000E+000	0.0000000E+000	35.454	1.40433	54.546	2.18248e-07
19948.8	3.76665	3.20382	4.9449	-40.3837	621.405	0.459433	-0.00226621	2.49021	1.04534	1	38	0.0147925	0.00299146	0	-4.52908e-05	0.514782	0.330825	8.83344	3.25612e-05	3.62819e-05	1.90121e-05	1.31078e-05	1.55526e-05	3.89561e-05	0.0756327	0.0538469	0.931706	1.51214e-06	9.46429e-07	5.10184e-07	3.45112e-07	5.46932e-07	1.02928e-06	0.154042	0.131024	0.202228	40.3837	1045.34	1228.97	1613.41	-49.6163	0.0000000E+000	0.0000000E+000	0.0000000E+000	49.6163	0.0000000E+000	0.0000000E+000	0.0000000E+000	-49.6163	0.0000000E+000	0.0000000E+000	0.0000000E+000	-40.3837	0.0000000E+000	0.0000000E+000	0.0000000E+000	40.3837	1.17567	49.6163	-5.92919e-06
15847.7	3.88379	3.91838	5.51702	-45.2541	622.552	0.459428	-0.0014209	2.56299	1.29286	1	38	0.0148556	0.00269268	0	-4.58399e-05	0.513708	0.379454	8.79692	1.53118e-05	2.61276e-05	3.9635e-05	4.14073e-05	2.64911e-05	1.84853e-05	0.105238	0.128979	1.05425	2.08704e-06	7.5288e-07	5.84468e-07	1.06938e-06	8.95292e-07	5.40859e-07	0.127599	0.128735	0.181257	45.2541	1292.86	1281.45	1820.33	-44.7459	0.0000000E+000	0.0000000E+000	0.0000000E+000	44.7459	0.0000000E+000	0.0000000E+000	0.0000000E+000	-44.7459	0.0000000E+000	0.0000000E+000	0.0000000E+000	-45.2541	0.0000000E+000	0.0000000E+000	0.0000000E+000	45.2541	0.991171	44.7459	-5.49132e-07
12590.9	4.02575	4.79737	6.2627	-49.9981	623.7	0.459441	-0.00232394	2.63487	1.54612	1	38	0.0147929	0.00236206	0	-5.32289e-05	0.426831	0.42197	8.87235	3.96034e-05	1.53963e-05	1.90138e-05	1.68108e-05	1.26469e-05	2.53229e-05	0.166683	0.156159	1.19569	3.46927e-06	8.37944e-07	1.06185e-06	9.46656e-07	3.08044e-07	3.81242e-07	0.102642	0.122315	0.159676	49.9981	1546.12	1297.43	2018.37	-40.0019	0.0000000E+000	0.0000000E+000	0.0000000E+000	40.0019	0.0000000E+000	0.0000000E+000	0.0000000E+000	-40.0019	0.0000000E+000	0.0000000E+000	0.0000000E+000	-49.9981	0.0000000E+000	0.0000000E+000	0.0000000E+000	49.9981	0.839157	40.0019	-7.38893e-06
10002.2	4.22036	5.91288	7.26454	-54.4823	624.846	0.459422	-0.00197577	2.69107	1.78281	1	38	0.0145755	0.00200639	0	-4.88488e-05	0.494095	0.211032	8.99961	3.18051e-05	3.70905e-05	1.61008e-05	3.02803e-05	2.48924e-05	2.7841e-05	0.198209	0.111827	1.40715	3.70221e-06	4.53176e-07	5.51759e-07	1.02748e-06	6.28783e-07	3.38599e-07	0.0799711	0.112042	0.137655	54.4823	1782.81	1272.5	2190.36	-35.5177	0.0000000E+000	0.0000000E+000	0.0000000E+000	35.5177	0.0000000E+000	0.0000000E+000	0.0000000E+000	-35.5177	0.0000000E+000	0.0000000E+000	0.0000000E+000	-54.4823	0.0000000E+000	0.0000000E+000	0.0000000E+000	54.4823	0.713758	35.5177	4.38005e-06
7944	4.44194	7.27056	8.52008	-58.5772	626.023	0.45932	-0.00177096	2.75558	2.0066	1	38	0.0145164	0.00170378	0	-4.51263e-05	0.637116	0.359756	8.935	4.35952e-05	3.59741e-05	4.04816e-05	4.03085e-05	1.81813e-05	3.10511e-05	0.305387	0.137199	1.68305	5.00906e-06	5.84981e-07	5.04739e-07	6.30725e-07	7.09904e-07	5.41252e-07	0.0611906	0.100157	0.11737	58.5772	2006.6	1225.93	2351.46	-31.4228	0.0000000E+000	0.0000000E+000	0.0000000E+000	31.4228	0.0000000E+000	0.0000000E+000	0.0000000E+000	-31.4228	0.0000000E+000	0.0000000E+000	0.0000000E+000	-58.5772	0.0000000E+000	0.0000000E+000	0.0000000E+000	58.5772	0.610948	31.4228	3.72249e-06
6307.74	4.78648	8.9228	10.1255	-61.7894	627.077	0.459325	-0.00306316	2.82778	2.19589	1	38	0.0143346	0.00141568	0	-4.53767e-05	0.505954	0.270077	9.01997	2.86387e-05	1.36941e-05	1.60426e-05	2.19599e-05	2.78748e-05	4.65973e-05	0.471897	0.13172	2.03149	6.42228e-06	1.15282e-06	5.92764e-07	3.91584e-07	6.70242e-07	8.85784e-07	0.0466852	0.087029	0.0987601	61.7894	2195.89	1177.95	2491.89	-28.2106	0.0000000E+000	0.0000000E+000	0.0000000E+000	28.2106	0.0000000E+000	0.0000000E+000	0.0000000E+000	-28.2106	0.0000000E+000	0.0000000E+000	0.0000000E+000	-61.7894	0.0000000E+000	0.0000000E+000	0.0000000E+000	61.7894	0.536433	28.2106	-2.50347e-07
5011.6	5.17326	10.9582	12.118	-64.7286	628.197	0.459299	-0.00195903	2.89803	2.36986	1	38	0.0136064	0.00112283	0	-4.51825e-05	0.437297	0.260726	9.68521	2.42979e-05	1.42597e-05	3.03176e-05	2.53924e-05	1.56245e-05	1.72359e-05	0.61608	0.099371	2.50659	6.69298e-06	1.47191e-06	3.26222e-07	2.90415e-07	5.55943e-07	3.35961e-07	0.0352292	0.0746242	0.0825219	64.7286	2369.86	1118.78	2620.67	-25.2714	0.0000000E+000	0.0000000E+000	0.0000000E+000	25.2714	0.0000000E+000	0.0000000E+000	0.0000000E+000	-25.2714	0.0000000E+000	0.0000000E+000	0.0000000E+000	-64.7286	0.0000000E+000	0.0000000E+000	0.0000000E+000	64.7286	0.472088	25.2714	1.94163e-07
3981.28	5.67988	13.4391	14.5901	-67.0893	629.303	0.459264	-0.00282298	2.97459	2.52378	1	38	0.0129379	0.000886761	0	-4.66477e-05	0.624765	0.29068	10.1873	5.48126e-05	2.08747e-05	2.06145e-05	3.69024e-05	2.14287e-05	2.1717e-05	0.737236	0.165189	3.19471	6.14223e-06	1.87187e-06	4.04325e-07	4.16928e-07	5.76492e-07	6.97404e-07	0.0266822	0.0631327	0.0685396	67.0893	2523.78	1066.64	2739.93	-22.9107	0.0000000E+000	0.0000000E+000	0.0000000E+000	22.9107	0.0000000E+000	0.0000000E+000	0.0000000E+000	-22.9107	0.0000000E+000	0.0000000E+000	0.0000000E+000	-67.0893	0.0000000E+000	0.0000000E+000	0.0000000E+000	67.0893	0.422637	22.9107	-1.46519e-06
3163.04	6.38647	16.4478	17.6442	-68.7795	630.63	0.459291	-0.00223461	3.05919	2.6584	1	38	0.0139539	0.000790847	0	-4.66552e-05	0.518426	0.287486	9.24665	2.00293e-05	3.03666e-05	3.0122e-05	2.61522e-05	2.83889e-05	2.88443e-05	0.791785	0.158405	3.61451	5.3811e-06	2.70545e-06	7.52884e-07	7.82941e-07	3.66009e-07	7.08535e-07	0.0205143	0.0528328	0.0566758	68.7795	2658.39	1032.22	2851.76	-21.2205	0.0000000E+000	0.0000000E+000	0.0000000E+000	21.2205	0.0000000E+000	0.0000000E+000	0.0000000E+000	-21.2205	0.0000000E+000	0.0000000E+000	0.0000000E+000	-68.7795	0.0000000E+000	0.0000000E+000	0.0000000E+000	68.7795	0.388286	21.2205	-7.49763e-09
2512.41	7.26827	20.128	21.4001	-70.1453	631.735	0.459285	-0.0023184	3.14723	2.78418	1	38	0.0135861	0.000634861	0	-4.75348e-05	0.539418	0.437718	9.47934	2.12077e-05	3.94433e-05	4.06758e-05	2.08428e-05	2.28137e-05	1.9637e-05	0.818407	0.145506	4.50906	4.60351e-06	1.97612e-06	4.01601e-07	1.13863e-06	2.94638e-07	3.42704e-07	0.0158708	0.043951	0.0467287	70.1453	2784.18	1005.37	2960.15	-19.8547	0.0000000E+000	0.0000000E+000	0.0000000E+000	19.8547	0.0000000E+000	0.0000000E+000	0.0000000E+000	-19.8547	0.0000000E+000	0.0000000E+000	0.0000000E+000	-70.1453	0.0000000E+000	0.0000000E+000	0.0000000E+000	70.1453	0.361102	19.8547	-8.79558e-07
1995.64	8.29844	24.6303	25.9907	-71.3803	632.841	0.459273	-0.00343184	3.23793	2.90785	1	38	0.0133548	0.000513831	0	-4.85154e-05	0.663943	0.365824	9.81001	4.06774e-05	4.68974e-05	1.41433e-05	3.42527e-05	2.71766e-05	3.77488e-05	0.76849	0.137305	5.54955	3.00665e-06	1.85662e-06	4.96033e-07	1.31859e-06	6.85083e-07	4.74218e-07	0.0122846	0.0364614	0.0384753	71.3803	2907.85	979.711	3068.46	-18.6197	0.0000000E+000	0.0000000E+000	0.0000000E+000	18.6197	0.0000000E+000	0.0000000E+000	0.0000000E+000	-18.6197	0.0000000E+000	0.0000000E+000	0.0000000E+000	-71.3803	0.0000000E+000	0.0000000E+000	0.0000000E+000	71.3803	0.336919	18.6197	-9.80632e-07
1584.49	9.69659	30.0069	31.5347	-72.092	633.948	0.459279	-0.00352122	3.34741	3.03091	1	38	0.0131861	0.000418145	0	-4.9817e-05	0.541718	0.237549	9.86983	3.25678e-05	3.53434e-05	2.75138e-05	2.7249e-05	1.99683e-05	1.64127e-05	0.902946	0.163808	6.8269	2.75371e-06	1.48345e-06	8.15845e-07	1.56723e-06	5.40773e-07	7.21937e-07	0.00975081	0.0301747	0.0317111	72.092	3030.91	979.424	3185.23	-17.908	0.0000000E+000	0.0000000E+000	0.0000000E+000	17.908	0.0000000E+000	0.0000000E+000	0.0000000E+000	-17.908	0.0000000E+000	0.0000000E+000	0.0000000E+000	-72.092	0.0000000E+000	0.0000000E+000	0.0000000E+000	72.092	0.323145	17.908	-1.30163e-06
1258.79	11.4339	36.6667	38.4081	-72.6808	635.307	0.459281	-0.000245667	3.44822	3.14263	1	39	0.0147331	0.000383595	0	-5.04701e-05	0.628291	0.202731	8.34071	5.73851e-05	4.97272e-05	2.41232e-05	2.54308e-05	2.02054e-05	2.25328e-05	1.34028	0.104401	3.29171	4.54099e-06	2.29509e-06	3.80835e-07	4.57663e-07	1.9281e-07	2.59069e-07	0.00775083	0.0248557	0.0260362	72.6808	3142.63	979.975	3291.88	-17.3192	0.0000000E+000	0.0000000E+000	0.0000000E+000	17.3192	0.0000000E+000	0.0000000E+000	0.0000000E+000	-17.3192	0.0000000E+000	0.0000000E+000	0.0000000E+000	-72.6808	0.0000000E+000	0.0000000E+000	0.0000000E+000	72.6808	0.311833	17.3192	-6.53111e-07
999.682	13.6826	44.5726	46.6255	-72.9349	636.414	0.459274	-0.000135148	3.57183	3.26423	1	39	0.0140345	0.000301004	0	-5.0705e-05	0.480076	0.240339	8.85142	3.1736e-05	3.45964e-05	2.81299e-05	2.71846e-05	1.51483e-05	1.2069e-05	1.18849	0.114722	4.28965	2.96705e-06	1.79358e-06	3.70821e-07	6.97438e-07	1.97065e-07	2.12645e-07	0.00629395	0.0205032	0.0214475	72.9349	3264.23	1002.03	3414.56	-17.0651	0.0000000E+000	0.0000000E+000	0.0000000E+000	17.0651	0.0000000E+000	0.0000000E+000	0.0000000E+000	-17.0651	0.0000000E+000	0.0000000E+000	0.0000000E+000	-72.9349	0.0000000E+000	0.0000000E+000	0.0000000E+000	72.9349	0.306974	17.0651	-2.3487e-07
794.239	16.3525	54.0915	56.5092	-73.1793	637.52	0.459297	-0.0004656	3.70459	3.39437	1	39	0.0136071	0.000240795	0	-5.06383e-05	0.430695	0.238264	8.99231	1.72791e-05	2.97372e-05	1.29817e-05	1.64062e-05	2.07673e-05	2.72706e-05	1.16149	0.166972	5.31135	2.19238e-06	1.25204e-06	1.58371e-07	1.10342e-06	2.53506e-07	2.79093e-07	0.0051209	0.0169391	0.0176962	73.1793	3394.37	1026.16	3546.09	-16.8207	0.0000000E+000	0.0000000E+000	0.0000000E+000	16.8207	0.0000000E+000	0.0000000E+000	0.0000000E+000	-16.8207	0.0000000E+000	0.0000000E+000	0.0000000E+000	-73.1793	0.0000000E+000	0.0000000E+000	0.0000000E+000	73.1793	0.302313	16.8207	6.66663e-08
631.01	20.0294	65.6723	68.6588	-73.0388	638.624	0.459307	-0.000289099	3.84062	3.51377	1	39	0.0133491	0.000194427	0	-5.08427e-05	0.442846	0.318131	9.15071	3.22365e-05	1.75323e-05	2.13222e-05	2.7753e-05	1.82335e-05	1.51301e-05	1.12481	0.222772	6.30271	1.55406e-06	9.01122e-07	3.16186e-07	1.0636e-06	3.60537e-07	3.41418e-07	0.00424888	0.0139312	0.0145648	73.0388	3513.77	1071.66	3673.56	-16.9612	0.0000000E+000	0.0000000E+000	0.0000000E+000	16.9612	0.0000000E+000	0.0000000E+000	0.0000000E+000	-16.9612	0.0000000E+000	0.0000000E+000	0.0000000E+000	-73.0388	0.0000000E+000	0.0000000E+000	0.0000000E+000	73.0388	0.30499	16.9612	-2.04395e-07
501.122	24.2098	79.6106	83.2104	-73.0853	639.729	0.459308	0.000164732	3.98938	3.65168	1	39	0.0131873	0.000158481	0	-5.07611e-05	0.574806	0.256288	9.15733	3.3846e-05	4.29597e-05	1.98307e-05	2.68464e-05	2.05759e-05	2.52811e-05	1.09199	0.291059	7.94411	1.30814e-06	5.97422e-07	2.67799e-07	8.32145e-07	1.81752e-07	2.85446e-07	0.00349652	0.0114978	0.0120177	73.0853	3651.68	1110.48	3816.79	-16.9147	0.0000000E+000	0.0000000E+000	0.0000000E+000	16.9147	0.0000000E+000	0.0000000E+000	0.0000000E+000	-16.9147	0.0000000E+000	0.0000000E+000	0.0000000E+000	-73.0853	0.0000000E+000	0.0000000E+000	0.0000000E+000	73.0853	0.304103	16.9147	8.15791e-08
398.089	29.8384	95.9634	100.495	-72.7277	640.838	0.459312	-3.91675e-05	4.16614	3.79887	1	39	0.0130519	0.000129876	0	-5.07916e-05	0.579395	0.333164	9.43236	3.99115e-05	2.99046e-05	1.23985e-05	2.65143e-05	2.66067e-05	3.02666e-05	1.04397	0.33685	9.85876	1.05973e-06	5.40647e-07	2.73989e-07	4.21643e-07	1.71955e-07	2.0631e-07	0.0029545	0.00950198	0.00995071	72.7277	3798.87	1181.2	3978.27	-17.2723	0.0000000E+000	0.0000000E+000	0.0000000E+000	17.2723	0.0000000E+000	0.0000000E+000	0.0000000E+000	-17.2723	0.0000000E+000	0.0000000E+000	0.0000000E+000	-72.7277	0.0000000E+000	0.0000000E+000	0.0000000E+000	72.7277	0.310935	17.2723	-3.05021e-08
316.316	36.6684	116.086	121.74	-72.4701	641.942	0.459311	-1.45656e-05	4.33429	3.94107	1	39	0.012998	0.000106769	0	-5.08829e-05	0.438132	0.240714	9.36751	2.35203e-05	2.51581e-05	1.862e-05	1.261e-05	1.77992e-05	2.4505e-05	0.819569	0.345179	11.531	6.18757e-07	3.2859e-07	2.26617e-07	3.05327e-07	1.89809e-07	2.46758e-07	0.00247415	0.00783277	0.00821424	72.4701	3941.07	1244.87	4133.01	-17.5299	0.0000000E+000	0.0000000E+000	0.0000000E+000	17.5299	0.0000000E+000	0.0000000E+000	0.0000000E+000	-17.5299	0.0000000E+000	0.0000000E+000	0.0000000E+000	-72.4701	0.0000000E+000	0.0000000E+000	0.0000000E+000	72.4701	0.315872	17.5298	-9.12417e-08
251.206	44.9804	139.921	146.973	-72.1789	643.047	0.459347	-0.000244931	4.52801	4.1039	1	39	0.0129528	8.81306e-05	0	-5.10329e-05	0.466895	0.292605	9.46441	1.97463e-05	2.81569e-05	1.58587e-05	2.83765e-05	3.07045e-05	1.73292e-05	1.1413	0.450851	14.4157	6.91204e-07	3.01907e-07	3.37471e-07	4.08313e-07	1.89689e-07	2.58609e-07	0.00208232	0.00647749	0.00680397	72.1789	4103.9	1319.28	4310.74	-17.8211	0.0000000E+000	0.0000000E+000	0.0000000E+000	17.8211	0.0000000E+000	0.0000000E+000	0.0000000E+000	-17.8211	0.0000000E+000	0.0000000E+000	0.0000000E+000	-72.1789	0.0000000E+000	0.0000000E+000	0.0000000E+000	72.1789	0.32147	17.8211	-1.49976e-07
199.553	55.867	168.5	177.52	-71.6568	644.155	0.459321	-3.02228e-05	4.73328	4.26449	1	39	0.012927	7.282e-05	0	-5.09927e-05	0.50728	0.315001	9.67051	2.15065e-05	1.14706e-05	2.67202e-05	3.21624e-05	2.88385e-05	2.49396e-05	1.25892	0.453162	17.5369	5.74307e-07	3.42956e-07	2.51032e-07	2.87466e-07	3.01581e-07	2.97814e-07	0.00177281	0.00534695	0.00563318	71.6568	4264.49	1413.92	4492.77	-18.3432	0.0000000E+000	0.0000000E+000	0.0000000E+000	18.3432	0.0000000E+000	0.0000000E+000	0.0000000E+000	-18.3432	0.0000000E+000	0.0000000E+000	0.0000000E+000	-71.6568	0.0000000E+000	0.0000000E+000	0.0000000E+000	71.6568	0.331556	18.3432	4.01782e-08
158.529	69.3906	201.685	213.288	-71.014	645.265	0.459311	-0.000175971	4.97781	4.45094	1	39	0.0128986	6.04752e-05	0	-5.10054e-05	0.487757	0.293309	9.54643	2.43663e-05	2.97553e-05	1.23919e-05	2.34318e-05	2.92106e-05	2.08218e-05	1.05469	0.73754	20.457	3.35854e-07	2.55746e-07	1.21168e-07	3.09196e-07	2.65632e-07	1.09481e-07	0.00152534	0.00443343	0.00468849	71.014	4450.94	1531.36	4707.01	-18.986	0.0000000E+000	0.0000000E+000	0.0000000E+000	18.986	0.0000000E+000	0.0000000E+000	0.0000000E+000	-18.986	0.0000000E+000	0.0000000E+000	0.0000000E+000	-71.014	0.0000000E+000	0.0000000E+000	0.0000000E+000	71.014	0.344055	18.986	-1.27044e-08
125.927	85.9183	242.925	257.671	-70.5222	646.621	0.459314	-7.18268e-05	5.20272	4.62426	1	40	0.0132021	5.12362e-05	0	-5.10969e-05	0.695696	0.543037	14.4938	2.38333e-05	3.74143e-05	2.90995e-05	4.97279e-05	3.38993e-05	3.6596e-05	1.03976	0.185508	4.80741	4.03066e-07	2.13287e-07	3.23772e-08	2.53739e-07	6.28274e-08	4.22643e-08	0.00129406	0.00365881	0.00388091	70.5222	4624.26	1635.52	4904.97	-19.4778	0.0000000E+000	0.0000000E+000	0.0000000E+000	19.4778	0.0000000E+000	0.0000000E+000	0.0000000E+000	-19.4778	0.0000000E+000	0.0000000E+000	0.0000000E+000	-70.5222	0.0000000E+000	0.0000000E+000	0.0000000E+000	70.5222	0.353683	19.4778	-9.14791e-08
99.9682	107.187	291.245	310.343	-69.7948	647.703	0.45934	-8.32825e-05	5.46638	4.8143	1	40	0.0130993	4.22092e-05	0	-5.10851e-05	1.05269	0.321084	14.5959	8.31718e-05	6.43111e-05	2.91471e-05	3.84877e-05	4.59585e-05	3.98796e-05	1.07338	0.150799	5.97103	3.75141e-07	1.63416e-07	2.56235e-08	1.474e-07	6.66003e-08	4.3521e-08	0.00111291	0.00302395	0.00322224	69.7948	4814.3	1771.81	5129.99	-20.2052	0.0000000E+000	0.0000000E+000	0.0000000E+000	20.2052	0.0000000E+000	0.0000000E+000	0.0000000E+000	-20.2052	0.0000000E+000	0.0000000E+000	0.0000000E+000	-69.7948	0.0000000E+000	0.0000000E+000	0.0000000E+000	69.7948	0.368031	20.2052	1.1789e-08
79.4157	133.654	346.641	371.515	-68.9149	648.774	0.459357	-0.000116848	5.78141	5.03316	1	40	0.0130033	3.50006e-05	0	-5.1121e-05	0.831092	0.577173	14.8339	4.94164e-05	3.45749e-05	4.76966e-05	4.11701e-05	4.32162e-05	2.81954e-05	0.917647	0.289287	7.22921	2.31776e-07	1.55994e-07	6.35467e-08	1.00059e-07	6.2626e-08	5.50498e-08	0.000968344	0.00251146	0.00269168	68.9149	5033.16	1940.63	5394.32	-21.0851	0.0000000E+000	0.0000000E+000	0.0000000E+000	21.0851	0.0000000E+000	0.0000000E+000	0.0000000E+000	-21.0851	0.0000000E+000	0.0000000E+000	0.0000000E+000	-68.9149	0.0000000E+000	0.0000000E+000	0.0000000E+000	68.9149	0.38557	21.0851	-3.59594e-08
63.0823	166.522	413.286	445.572	-68.0544	649.857	0.459333	-6.52895e-05	6.10467	5.25202	1	40	0.0129724	2.9114e-05	0	-5.11381e-05	0.776169	0.326579	14.4546	1.74372e-05	1.69085e-05	3.20736e-05	3.66307e-05	4.36636e-05	5.92263e-05	0.97572	0.205633	8.47048	2.10685e-07	1.16848e-07	4.81269e-08	6.12436e-08	6.84582e-08	8.86677e-08	0.000838756	0.00208168	0.0022443	68.0544	5252.02	2116.16	5662.32	-21.9456	0.0000000E+000	0.0000000E+000	0.0000000E+000	21.9456	0.0000000E+000	0.0000000E+000	0.0000000E+000	-21.9456	0.0000000E+000	0.0000000E+000	0.0000000E+000	-68.0544	0.0000000E+000	0.0000000E+000	0.0000000E+000	68.0544	0.402923	21.9456	-1.70863e-08
50.1122	209.377	488.642	531.611	-66.8054	650.921	0.459296	-2.41615e-05	6.49958	5.49136	1	40	0.0129071	2.42792e-05	0	-5.11733e-05	0.837941	0.337072	14.5391	3.47311e-05	2.07027e-05	6.04351e-05	3.3884e-05	5.38121e-05	3.31567e-05	1.08487	0.214055	10.2313	1.97468e-07	9.22104e-08	6.26695e-08	9.88519e-08	5.18195e-08	3.1387e-08	0.00074087	0.00172903	0.00188108	66.8054	5491.36	2352.98	5974.24	-23.1946	0.0000000E+000	0.0000000E+000	0.0000000E+000	23.1946	0.0000000E+000	0.0000000E+000	0.0000000E+000	-23.1946	0.0000000E+000	0.0000000E+000	0.0000000E+000	-66.8054	0.0000000E+000	0.0000000E+000	0.0000000E+000	66.8054	0.428488	23.1945	-3.51675e-08
39.8089	260.826	579.362	635.367	-65.763	651.991	0.459342	-7.83284e-05	6.90064	5.73774	1	40	0.0129236	2.03404e-05	0	-5.11647e-05	0.885856	0.611879	14.9583	3.95411e-05	4.36374e-05	5.01964e-05	2.74457e-05	4.831e-05	4.43325e-05	1.17192	0.45722	12.2885	1.69039e-07	6.98614e-08	5.43168e-08	9.52103e-08	6.20368e-08	5.7107e-08	0.000646103	0.00143516	0.00157389	65.763	5737.74	2583.1	6292.39	-24.237	0.0000000E+000	0.0000000E+000	0.0000000E+000	24.237	0.0000000E+000	0.0000000E+000	0.0000000E+000	-24.237	0.0000000E+000	0.0000000E+000	0.0000000E+000	-65.763	0.0000000E+000	0.0000000E+000	0.0000000E+000	65.763	0.450195	24.237	8.55339e-09
31.6296	329.556	681.785	757.257	-64.2021	653.031	0.459337	-5.8286e-05	7.38039	5.98257	1	40	0.0129161	1.70564e-05	0	-5.11584e-05	0.817239	0.298419	14.5722	4.05572e-05	3.51004e-05	6.16669e-05	2.3981e-05	3.45838e-05	3.02049e-05	1.12857	0.261057	14.4967	1.43115e-07	4.4041e-08	7.35115e-08	5.36646e-08	4.59518e-08	4.21348e-08	0.000574702	0.00118894	0.00132056	64.2021	5982.57	2891.81	6644.82	-25.7979	0.0000000E+000	0.0000000E+000	0.0000000E+000	25.7979	0.0000000E+000	0.0000000E+000	0.0000000E+000	-25.7979	0.0000000E+000	0.0000000E+000	0.0000000E+000	-64.2021	0.0000000E+000	0.0000000E+000	0.0000000E+000	64.2021	0.483373	25.7979	6.35623e-09
25.1206	415.368	796.038	897.891	-62.4447	654.101	0.459347	-9.15909e-05	7.95896	6.25572	1	40	0.0128951	1.43616e-05	0	-5.11337e-05	0.794595	0.378827	15.137	3.16221e-05	3.94365e-05	4.97083e-05	3.22151e-05	4.24174e-05	3.86477e-05	1.22966	0.372582	17.7438	1.2915e-07	5.05401e-08	4.97386e-08	4.58823e-08	6.16404e-08	3.71515e-08	0.000515213	0.000987386	0.00111372	62.4447	6255.72	3264.2	7056.13	-27.5553	0.0000000E+000	0.0000000E+000	0.0000000E+000	27.5553	0.0000000E+000	0.0000000E+000	0.0000000E+000	-27.5553	0.0000000E+000	0.0000000E+000	0.0000000E+000	-62.4447	0.0000000E+000	0.0000000E+000	0.0000000E+000	62.4447	0.521795	27.5553	2.46823e-08
19.9553	526.824	923.702	1063.38	-60.3021	655.17	0.459329	-5.45049e-05	8.63434	6.51507	1	40	0.0128918	1.21234e-05	0	-5.11789e-05	0.925182	0.510752	14.1661	4.39299e-05	6.39502e-05	3.83471e-05	3.02816e-05	5.82992e-05	2.42197e-05	1.50603	0.577437	20.0305	1.15835e-07	8.9305e-08	5.20286e-08	3.62464e-08	6.2045e-08	5.01527e-08	0.000465899	0.000816879	0.000940401	60.3021	6515.07	3715.8	7500.22	-29.6979	0.0000000E+000	0.0000000E+000	0.0000000E+000	29.6979	0.0000000E+000	0.0000000E+000	0.0000000E+000	-29.6979	0.0000000E+000	0.0000000E+000	0.0000000E+000	-60.3021	0.0000000E+000	0.0000000E+000	0.0000000E+000	60.3021	0.57034	29.6978	-4.51904e-08
15.8469	652.507	1061.08	1245.65	-58.4106	656.211	0.45934	-6.13596e-05	9.46522	6.868	1	40	0.0128828	1.03423e-05	0	-5.11533e-05	0.712054	0.475559	14.6169	4.39592e-05	1.68697e-05	4.06743e-05	2.61723e-05	4.07024e-05	4.12361e-05	1.46374	0.659209	23.9062	9.23416e-08	4.67622e-08	5.74202e-08	3.91668e-08	5.92411e-08	3.60947e-08	0.000420526	0.000683839	0.000802793	58.4106	6868	4223.47	8062.7	-31.5894	0.0000000E+000	0.0000000E+000	0.0000000E+000	31.5894	0.0000000E+000	0.0000000E+000	0.0000000E+000	-31.5894	0.0000000E+000	0.0000000E+000	0.0000000E+000	-58.4106	0.0000000E+000	0.0000000E+000	0.0000000E+000	58.4106	0.614949	31.5894	2.55885e-08
12.5873	825.741	1202.77	1458.94	-55.5292	657.673	0.459332	-5.79974e-05	10.5124	7.14488	1	41	0.0128914	8.8361e-06	0	-5.12714e-05	0.701523	0.386488	13.3104	2.16865e-05	3.03317e-05	3.07583e-05	4.53929e-05	4.38272e-05	3.11844e-05	0.934589	0.10834	3.91092	7.01437e-08	3.09136e-08	1.72735e-08	1.92909e-08	9.05053e-09	9.03699e-09	0.000387943	0.000565077	0.000685428	55.5292	7144.88	4905.19	8666.61	-34.4708	0.0000000E+000	0.0000000E+000	0.0000000E+000	34.4708	0.0000000E+000	0.0000000E+000	0.0000000E+000	-34.4708	0.0000000E+000	0.0000000E+000	0.0000000E+000	-55.5292	0.0000000E+000	0.0000000E+000	0.0000000E+000	55.5292	0.686532	34.4708	-1.1809e-07
9.99682	1026.24	1346.6	1693.08	-52.6891	658.733	0.459309	-6.45182e-05	11.8227	7.47901	1	41	0.0128716	7.60251e-06	0	-5.12311e-05	0.878384	0.51772	18.6159	4.18006e-05	3.85011e-05	3.83066e-05	6.30336e-05	3.78098e-05	3.01893e-05	0.970357	0.229669	6.12846	5.86075e-08	2.43133e-08	6.74e-09	3.41152e-08	6.53104e-09	8.76349e-09	0.00035801	0.00046977	0.00059064	52.6891	7479.01	5699.72	9403.32	-37.3109	0.0000000E+000	0.0000000E+000	0.0000000E+000	37.3109	0.0000000E+000	0.0000000E+000	0.0000000E+000	-37.3109	0.0000000E+000	0.0000000E+000	0.0000000E+000	-52.6891	0.0000000E+000	0.0000000E+000	0.0000000E+000	52.6891	0.762096	37.3109	4.03226e-08
7.93956	1266.72	1479.7	1947.84	-49.4342	659.941	0.459308	-6.30759e-05	13.5472	7.81788	1	41	0.0128593	6.60181e-06	0	-5.13019e-05	0.517076	0.448512	13.3084	3.73059e-05	3.78016e-05	1.32976e-05	1.90633e-05	1.93168e-05	1.08517e-05	0.920014	0.13525	5.23737	5.06717e-08	2.65272e-08	3.43704e-09	1.68332e-08	9.26683e-09	4.2078e-09	0.000333868	0.000390001	0.000513389	49.4342	7817.88	6692.65	10291.3	-40.5658	0.0000000E+000	0.0000000E+000	0.0000000E+000	40.5658	0.0000000E+000	0.0000000E+000	0.0000000E+000	-40.5658	0.0000000E+000	0.0000000E+000	0.0000000E+000	-49.4342	0.0000000E+000	0.0000000E+000	0.0000000E+000	49.4342	0.856069	40.5658	-7.0795e-08
6.31058	1550.26	1597.21	2225.84	-45.8545	661.326	0.459345	-7.22289e-05	15.7903	8.1306	1	41	0.0128827	5.78779e-06	0	-5.13266e-05	0.701821	0.380306	13.317	3.23382e-05	4.22208e-05	3.24481e-05	3.76808e-05	2.37748e-05	3.61602e-05	0.75667	0.17231	5.94664	3.65343e-08	1.87888e-08	5.4784e-09	1.02017e-08	5.47907e-09	5.62438e-09	0.000312907	0.000322383	0.000449268	45.8545	8130.6	7891.62	11330.7	-44.1455	0.0000000E+000	0.0000000E+000	0.0000000E+000	44.1455	0.0000000E+000	0.0000000E+000	0.0000000E+000	-44.1455	0.0000000E+000	0.0000000E+000	0.0000000E+000	-45.8545	0.0000000E+000	0.0000000E+000	0.0000000E+000	45.8545	0.970608	44.1455	-2.47302e-08
5.01283	1854.36	1679.62	2501.95	-42.1692	662.944	0.459337	-6.7643e-05	18.9028	8.519	1	41	0.0128673	5.1429e-06	0	-5.13705e-05	0.459496	0.338871	10.2034	1.57791e-05	3.26235e-05	1.21594e-05	3.02955e-05	1.94477e-05	1.98846e-05	0.886518	0.178909	5.20377	3.77087e-08	2.15078e-08	3.64982e-09	1.17072e-08	4.11793e-09	3.27371e-09	0.000296235	0.000268319	0.000399688	42.1692	8519	9405.31	12689.9	-47.8308	0.0000000E+000	0.0000000E+000	0.0000000E+000	47.8308	0.0000000E+000	0.0000000E+000	0.0000000E+000	-47.8308	0.0000000E+000	0.0000000E+000	0.0000000E+000	-42.1692	0.0000000E+000	0.0000000E+000	0.0000000E+000	42.1692	1.10404	47.8308	-4.3883e-08
3.9819	2190.24	1720.54	2785.22	-38.1514	664.865	0.459334	-7.08383e-05	23.2308	8.86496	1	41	0.012875	4.62263e-06	0	-5.13118e-05	0.501343	0.337348	9.34444	3.20989e-05	1.82986e-05	2.08418e-05	2.3075e-05	2.8151e-05	2.57271e-05	0.911682	0.231633	5.36486	3.49349e-08	1.87233e-08	3.8616e-09	9.92972e-09	6.69554e-09	5.43728e-09	0.000282341	0.000221793	0.000359038	38.1514	8864.96	11285	14350.6	-51.8486	0.0000000E+000	0.0000000E+000	0.0000000E+000	51.8486	0.0000000E+000	0.0000000E+000	0.0000000E+000	-51.8486	0.0000000E+000	0.0000000E+000	0.0000000E+000	-38.1514	0.0000000E+000	0.0000000E+000	0.0000000E+000	38.1514	1.27299	51.8486	5.87056e-08
3.16296	2529.51	1717.39	3057.43	-34.1743	667.174	0.459327	-6.7268e-05	29.2993	9.24452	1	41	0.0128857	4.21454e-06	0	-5.14455e-05	0.454483	0.218166	8.47661	2.98387e-05	1.35758e-05	2.23163e-05	2.87842e-05	2.25581e-05	1.04463e-05	0.922613	0.129233	5.30619	3.41003e-08	1.52398e-08	3.76884e-09	7.72148e-09	4.70791e-09	2.3479e-09	0.000270598	0.000183721	0.000327073	34.1743	9244.52	13616	16457.8	-55.8257	0.0000000E+000	0.0000000E+000	0.0000000E+000	55.8257	0.0000000E+000	0.0000000E+000	0.0000000E+000	-55.8257	0.0000000E+000	0.0000000E+000	0.0000000E+000	-34.1743	0.0000000E+000	0.0000000E+000	0.0000000E+000	34.1743	1.47288	55.8257	-1.3371e-07
2.51085	2851.39	1669.18	3304.02	-30.3443	669.977	0.459342	-7.13912e-05	37.975	9.69207	1	41	0.012879	3.89797e-06	0	-5.15065e-05	0.390618	0.246116	7.12497	1.58469e-05	1.38905e-05	1.99124e-05	1.88699e-05	1.75492e-05	2.78312e-05	0.843145	0.192728	4.91701	2.76178e-08	1.36441e-08	3.20914e-09	7.94912e-09	3.54205e-09	5.35554e-09	0.000261198	0.000152903	0.000302662	30.3443	9692.07	16556.6	19184.8	-59.6557	0.0000000E+000	0.0000000E+000	0.0000000E+000	59.6557	0.0000000E+000	0.0000000E+000	0.0000000E+000	-59.6557	0.0000000E+000	0.0000000E+000	0.0000000E+000	-30.3443	0.0000000E+000	0.0000000E+000	0.0000000E+000	30.3443	1.70826	59.6557	-6.09699e-08
1.99553	3146.68	1580.84	3521.46	-26.6742	673.401	0.459333	-7.10754e-05	50.4515	10.1673	1	41	0.0128695	3.65459e-06	0	-5.15003e-05	0.415137	0.223178	6.31201	1.90131e-05	1.5434e-05	1.69408e-05	2.459e-05	2.48035e-05	1.65615e-05	0.811306	0.110846	4.76644	2.40618e-08	1.36498e-08	3.81167e-09	7.41299e-09	4.34956e-09	2.60205e-09	0.000253751	0.00012748	0.000283973	26.6742	10167.3	20238.1	22648.5	-63.3258	0.0000000E+000	0.0000000E+000	0.0000000E+000	63.3258	0.0000000E+000	0.0000000E+000	0.0000000E+000	-63.3258	0.0000000E+000	0.0000000E+000	0.0000000E+000	-26.6742	0.0000000E+000	0.0000000E+000	0.0000000E+000	26.6742	1.99051	63.3258	6.13836e-09
1.58533	3416.98	1468.38	3719.13	-23.2547	678.926	0.459345	-7.24332e-05	68.3694	10.6576	1	42	0.0128867	3.46497e-06	0	-5.1504e-05	0.311567	0.12337	5.87814	1.30958e-05	1.28015e-05	1.69762e-05	1.50361e-05	1.83301e-05	1.5342e-05	0.784588	0.0213553	1.30078	2.40832e-08	1.15848e-08	7.12993e-10	4.77872e-09	6.79006e-10	6.09573e-10	0.000247036	0.000106159	0.00026888	23.2547	10657.6	24800.6	26993.5	-66.7453	0.0000000E+000	0.0000000E+000	0.0000000E+000	66.7453	0.0000000E+000	0.0000000E+000	0.0000000E+000	-66.7453	0.0000000E+000	0.0000000E+000	0.0000000E+000	-23.2547	0.0000000E+000	0.0000000E+000	0.0000000E+000	23.2547	2.32704	66.7453	-3.65575e-09
1.25825	3642.79	1344.63	3883.03	-20.2602	684.136	0.45934	-7.41892e-05	94.0693	11.2801	1	42	0.0128721	3.31495e-06	0	-5.18318e-05	0.288431	0.197911	5.33595	1.35835e-05	1.67648e-05	1.07485e-05	1.69803e-05	7.24527e-06	1.38533e-05	0.762394	0.0390396	1.30189	2.2633e-08	1.05194e-08	2.91967e-10	3.92141e-09	2.64889e-10	3.76719e-10	0.000241597	8.91789e-05	0.000257531	20.2602	11280.1	30559.3	32574.7	-69.7398	0.0000000E+000	0.0000000E+000	0.0000000E+000	69.7398	0.0000000E+000	0.0000000E+000	0.0000000E+000	-69.7398	0.0000000E+000	0.0000000E+000	0.0000000E+000	-20.2602	0.0000000E+000	0.0000000E+000	0.0000000E+000	20.2602	2.70913	69.7398	-3.27864e-07
1.00006	3833.79	1217	4022.31	-17.6116	690.596	0.459318	-7.45015e-05	130.768	11.9711	1	42	0.0128649	3.19838e-06	0	-5.1695e-05	0.273616	0.190725	4.58429	1.62104e-05	1.76471e-05	1.2454e-05	9.53125e-06	1.52353e-05	8.73874e-06	0.779455	0.0453354	1.33138	2.25243e-08	9.98229e-09	7.12527e-10	3.59156e-09	6.87076e-10	5.35908e-10	0.00023696	7.5221e-05	0.000248613	17.6116	11971.1	37711.1	39565.6	-72.3884	0.0000000E+000	0.0000000E+000	0.0000000E+000	72.3884	0.0000000E+000	0.0000000E+000	0.0000000E+000	-72.3884	0.0000000E+000	0.0000000E+000	0.0000000E+000	-17.6116	0.0000000E+000	0.0000000E+000	0.0000000E+000	17.6116	3.15019	72.3884	1.36874e-07
0.79456	4002.19	1096.11	4149.57	-15.3164	698.611	0.459318	-7.43827e-05	182.743	12.7509	1	42	0.0128778	3.10339e-06	0	-5.21347e-05	0.215863	0.11831	3.98863	9.22554e-06	1.38658e-05	8.4131e-06	9.31449e-06	1.13734e-05	1.16257e-05	0.771367	0.058848	1.30064	2.14925e-08	9.94512e-09	3.34004e-10	3.34679e-09	5.36532e-10	4.54729e-10	0.000232429	6.36569e-05	0.000240989	15.3164	12750.9	46556.9	48271.4	-74.6836	0.0000000E+000	0.0000000E+000	0.0000000E+000	74.6836	0.0000000E+000	0.0000000E+000	0.0000000E+000	-74.6836	0.0000000E+000	0.0000000E+000	0.0000000E+000	-15.3164	0.0000000E+000	0.0000000E+000	0.0000000E+000	15.3164	3.65128	74.6836	-4.39692e-07
0.630906	4138.07	979.37	4252.39	-13.3154	708.608	0.459308	-7.6762e-05	257.578	13.6627	1	42	0.0128703	3.0266e-06	0	-5.2323e-05	0.194579	0.113932	3.48525	8.66301e-06	9.7957e-06	6.01652e-06	1.14814e-05	7.4898e-06	1.12014e-05	0.757793	0.0822421	1.49506	2.08646e-08	8.90446e-09	4.90121e-10	2.97406e-09	6.68391e-10	1.01198e-09	0.00022884	5.41604e-05	0.000235162	13.3154	13662.7	57728.2	59323	-76.6846	0.0000000E+000	0.0000000E+000	0.0000000E+000	76.6846	0.0000000E+000	0.0000000E+000	0.0000000E+000	-76.6846	0.0000000E+000	0.0000000E+000	0.0000000E+000	-13.3154	0.0000000E+000	0.0000000E+000	0.0000000E+000	13.3154	4.22523	76.6846	-1.88394e-07
0.500946	4256.82	876.776	4346.18	-11.6384	721.115	0.459298	-7.86533e-05	362.361	14.747	1	42	0.0128683	2.96084e-06	0	-5.22434e-05	0.186049	0.0984334	3.17091	5.83288e-06	1.1675e-05	6.65954e-06	1.3879e-05	3.96902e-06	7.38449e-06	0.76787	0.0439971	1.39625	2.07531e-08	8.80571e-09	3.29418e-10	2.85256e-09	2.51165e-10	4.11958e-10	0.000225357	4.64166e-05	0.000230087	11.6384	14747	71597.8	73100.7	-78.3616	0.0000000E+000	0.0000000E+000	0.0000000E+000	78.3616	0.0000000E+000	0.0000000E+000	0.0000000E+000	-78.3616	0.0000000E+000	0.0000000E+000	0.0000000E+000	-11.6384	0.0000000E+000	0.0000000E+000	0.0000000E+000	11.6384	4.85509	78.3616	7.96331e-08
0.398211	4362.95	787.444	4433.44	-10.2309	736.765	0.459314	-7.52661e-05	507.56	16.012	1	42	0.0128685	2.9026e-06	0	-5.27282e-05	0.233084	0.111791	2.71113	6.56142e-06	1.37436e-05	1.29902e-05	1.46079e-05	5.89635e-06	1.39953e-05	0.791251	0.0587976	1.44997	2.09595e-08	8.96674e-09	5.58966e-10	2.62138e-09	3.99052e-10	5.39328e-10	0.000221972	4.00625e-05	0.000225559	10.2309	16012	88716.7	90150.1	-79.7691	0.0000000E+000	0.0000000E+000	0.0000000E+000	79.7691	0.0000000E+000	0.0000000E+000	0.0000000E+000	-79.7691	0.0000000E+000	0.0000000E+000	0.0000000E+000	-10.2309	0.0000000E+000	0.0000000E+000	0.0000000E+000	10.2309	5.54065	79.7691	-4.8475e-07
0.316193	4457.18	706.847	4512.88	-9.01127	756.391	0.459332	-7.32835e-05	712.103	17.4697	1	42	0.0128642	2.85054e-06	0	-5.35917e-05	0.142534	0.0737547	2.50049	5.89752e-06	9.40289e-06	6.06239e-06	8.51848e-06	4.98566e-06	6.51248e-06	0.782992	0.0346188	1.44399	2.04851e-08	8.44858e-09	3.92659e-10	2.62139e-09	1.58394e-10	1.87557e-10	0.000218853	3.47071e-05	0.000221588	9.01127	17469.7	110159	111536	-80.9887	0.0000000E+000	0.0000000E+000	0.0000000E+000	80.9887	0.0000000E+000	0.0000000E+000	0.0000000E+000	-80.9887	0.0000000E+000	0.0000000E+000	0.0000000E+000	-9.01127	0.0000000E+000	0.0000000E+000	0.0000000E+000	9.01127	6.30572	80.9887	-8.63488e-07
0.251222	4546.45	633.507	4590.37	-7.93258	781.009	0.459323	-7.38205e-05	1000.03	19.0467	1	42	0.0128676	2.80318e-06	0	-5.41519e-05	0.141027	0.0841705	2.24517	8.74912e-06	6.94008e-06	6.3113e-06	9.56242e-06	4.1562e-06	5.75634e-06	0.784315	0.0587011	1.5012	2.01588e-08	8.42032e-09	2.62829e-10	2.39828e-09	2.52068e-10	1.9902e-10	0.000215763	3.00646e-05	0.000217847	7.93258	19046.7	136691	138012	-82.0674	0.0000000E+000	0.0000000E+000	0.0000000E+000	82.0674	0.0000000E+000	0.0000000E+000	0.0000000E+000	-82.0674	0.0000000E+000	0.0000000E+000	0.0000000E+000	-7.93258	0.0000000E+000	0.0000000E+000	0.0000000E+000	7.93258	7.17663	82.0674	-5.60204e-07
0.199573	4625.55	560.948	4659.44	-6.9146	811.917	0.459337	-7.2555e-05	1421.66	20.605	1	42	0.0128688	2.76187e-06	0	-5.42732e-05	0.134724	0.0663904	1.97892	6.88003e-06	7.89099e-06	4.81787e-06	7.68567e-06	4.62007e-06	7.45177e-06	0.792884	0.0269712	1.49948	2.01811e-08	8.18329e-09	2.82157e-10	2.2428e-09	1.76249e-10	2.49675e-10	0.000213057	2.58378e-05	0.000214618	6.9146	20605	169908	171153	-83.0854	0.0000000E+000	0.0000000E+000	0.0000000E+000	83.0854	0.0000000E+000	0.0000000E+000	0.0000000E+000	-83.0854	0.0000000E+000	0.0000000E+000	0.0000000E+000	-6.9146	0.0000000E+000	0.0000000E+000	0.0000000E+000	6.9146	8.24594	83.0854	-1.21334e-07
0.158419	4695.64	490.26	4721.17	-5.96051	850.772	0.459324	-7.51533e-05	2049.21	22.0974	1	42	0.0128678	2.72555e-06	0	-5.44598e-05	0.128824	0.0720412	1.77506	8.21885e-06	7.23444e-06	2.82959e-06	9.32754e-06	3.70509e-06	5.40366e-06	0.789852	0.0528027	1.50667	1.99708e-08	7.67146e-09	3.77177e-10	2.27867e-09	2.58917e-10	2.60623e-10	0.000210667	2.19952e-05	0.000211812	5.96051	22097.4	211646	212796	-84.0395	0.0000000E+000	0.0000000E+000	0.0000000E+000	84.0395	0.0000000E+000	0.0000000E+000	0.0000000E+000	-84.0395	0.0000000E+000	0.0000000E+000	0.0000000E+000	-5.96051	0.0000000E+000	0.0000000E+000	0.0000000E+000	5.96051	9.57786	84.0395	-1.86608e-07
0.125939	4754.23	423.696	4773.07	-5.09273	899.57	0.459336	-6.92074e-05	2982.68	23.5028	1	42	0.0128659	2.69551e-06	0	-5.52902e-05	0.159264	0.0544556	1.5587	4.09553e-06	1.18335e-05	5.62507e-06	1.33798e-05	4.20175e-06	4.84309e-06	0.782995	0.0526444	1.50546	1.96418e-08	7.42287e-09	2.02474e-10	2.09037e-09	1.84643e-10	2.17407e-10	0.000208682	1.85976e-05	0.000209509	5.09273	23502.8	263721	264766	-84.9073	0.0000000E+000	0.0000000E+000	0.0000000E+000	84.9073	0.0000000E+000	0.0000000E+000	0.0000000E+000	-84.9073	0.0000000E+000	0.0000000E+000	0.0000000E+000	-5.09273	0.0000000E+000	0.0000000E+000	0.0000000E+000	5.09273	11.2209	84.9073	-8.30421e-07
0.0999518	4803.2	361.507	4816.78	-4.30418	960.972	0.459346	-6.73686e-05	4404.67	24.8103	1	42	0.0128631	2.67048e-06	0	-5.70771e-05	0.121817	0.0569473	1.534	3.78269e-06	8.87101e-06	4.89657e-06	9.14765e-06	3.09645e-06	4.52621e-06	0.786917	0.0310235	1.49647	1.95039e-08	7.48956e-09	2.44656e-10	2.2176e-09	1.46452e-10	1.93419e-10	0.000207022	1.55813e-05	0.000207607	4.30418	24810.3	329645	330577	-85.6958	0.0000000E+000	0.0000000E+000	0.0000000E+000	85.6958	0.0000000E+000	0.0000000E+000	0.0000000E+000	-85.6958	0.0000000E+000	0.0000000E+000	0.0000000E+000	-4.30418	0.0000000E+000	0.0000000E+000	0.0000000E+000	4.30418	13.2866	85.6958	-1.78691e-06