File: Python/Data/RDE/240219-CV-EIS-Fe2Fe3_5mM-HCl1M-2000RPM-Ag_AgCl_BLF8-GC-RDE_03_PEIS_C15.mpt
EC-Lab ASCII FILE
Nb header lines : 66

Potentio Electrochemical Impedance Spectroscopy

Run on channel : 15 (SN 19485)
User :
Electrode connection : standard
Potential control : Ewe
Ewe ctrl range : min = -1.00 V, max = 1.00 V
Ewe,I filtering : <None>
Safety Limits :
	Do not start on E overload
Channel : Floating
Acquisition started on : 02/19/2024 17:18:57.744
Loaded Setting File :  C:\Data\mathias\RDE-RPM-variation\240219-CV-EIS-Fe2Fe3_5mM-HCl1M-RPMtest-Ag_AgCl_BLF8-GC-RDE.mps
Saved on :
	File : 240219-CV-EIS-Fe2Fe3_5mM-HCl1M-2000RPM-Ag_AgCl_BLF8-GC-RDE_03_PEIS_C15.mpr
	Directory : C:\Data\mathias\RDE-RPM-variation\
	Host : 192.168.0.1
Device : VMP-300 (SN 0826)
Address : USB
EC-Lab for windows v11.52 (software)
Internet server v11.52 (firmware)
Command interpretor v11.52 (firmware)
Electrode material :
Initial state :
Electrolyte :
Comments :
Cable : special
Electrode surface area : 0.001 cm²
Characteristic mass : 0.001 g
Equivalent Weight : 0.000 g/eq.
Density : 0.000 g/cm3
Volume (V) : 0.001 cm³
Record EIS quality indicators
Cycle Definition : Charge/Discharge alternance
Mode                Single sine
E (V)               0.0000
vs.                 Ref
tE (h:m:s)          0:00:0.0000
record              0
dI                  0.000
unit dI             mA
dt (s)              0.000
fi                  400.000
unit fi             kHz
ff                  100.000
unit ff             mHz
Nd                  10
Points              per decade
spacing             Logarithmic
Va (mV)             7.0
pw                  0.10
Na                  3
corr                0
E range min (V)     -1.000
E range max (V)     1.000
I Range             Auto
Bandwidth           8
nc cycles           2
goto Ns'            0
nr cycles           0
inc. cycle          1

freq/Hz	Re(Z)/Ohm	-Im(Z)/Ohm	|Z|/Ohm	Phase(Z)/deg	time/s	<Ewe>/V	<I>/mA	Cs/µF	Cp/µF	cycle number	I Range	|Ewe|/V	|I|/A	Ns	(Q-Qo)/mA.h	THD Ewe/%	NSD Ewe/%	NSR Ewe/%	|Ewe h2|/V	|Ewe h3|/V	|Ewe h4|/V	|Ewe h5|/V	|Ewe h6|/V	|Ewe h7|/V	THD I/%	NSD I/%	NSR I/%	|I h2|/A	|I h3|/A	|I h4|/A	|I h5|/A	|I h6|/A	|I h7|/A	Re(Y)/Ohm-1	Im(Y)/Ohm-1	|Y|/Ohm-1	Phase(Y)/deg	Re(C)/nF	Im(C)/nF	|C|/nF	Phase(C)/deg	Re(M)	Im(M)	|M|	Phase(M)/deg	Re(Permittivity)	Im(Permittivity)	|Permittivity|	Phase(Permittivity)/deg	Re(Resistivity)/Ohm.cm	Im(Resistivity)/Ohm.cm	|Resistivity|/Ohm.cm	Phase(Resistivity)/deg	Re(Conductivity)/mS/cm	Im(Conductivity)/mS/cm	|Conductivity|/mS/cm	Phase(Conductivity)/deg	Tan(Delta)	Loss Angle(Delta)/deg	dq/mA.h
399996	3.6634	1.31795	3.89326	-19.7868	362.416	-0.000131554	-0.485075	0.301901	0.0345968	1	38	0.00647691	0.00166362	0	-0.000309914	-1	-1	-1	0	0	0	0	0	0	-1	-1	-1	0	0	0	0	0	0	0.241689	0.0869506	0.256854	19.7868	34.5968	96.1659	102.2	-70.2132	0.0000000E+000	0.0000000E+000	0.0000000E+000	70.2132	0.0000000E+000	0.0000000E+000	0.0000000E+000	-70.2132	0.0000000E+000	0.0000000E+000	0.0000000E+000	-19.7868	0.0000000E+000	0.0000000E+000	0.0000000E+000	19.7868	2.77962	70.2132	-0.000309914
200434	3.53957	0.816414	3.63251	-12.9883	365.856	-0.000139401	-0.486246	0.972608	0.0491299	1	38	0.00724422	0.00199428	0	-0.000775449	-1	-1	-1	0	0	0	0	0	0	-1	-1	-1	0	0	0	0	0	0	0.268249	0.0618725	0.275292	12.9883	49.1299	213.003	218.596	-77.0117	0.0000000E+000	0.0000000E+000	0.0000000E+000	77.0117	0.0000000E+000	0.0000000E+000	0.0000000E+000	-77.0117	0.0000000E+000	0.0000000E+000	0.0000000E+000	-12.9883	0.0000000E+000	0.0000000E+000	0.0000000E+000	12.9883	4.33551	77.0117	-0.000156065
100431	3.53527	0.789535	3.62236	-12.5893	369.297	-0.000135748	-0.485982	2.00717	0.0953547	1	38	0.00724301	0.00199953	0	-0.00123261	0.954648	0.3304	16.6176	2.49673e-05	2.77923e-05	3.4255e-05	2.35025e-05	3.05016e-05	1.65725e-05	0.0853929	0.0690757	1.55899	4.88016e-07	6.78075e-07	9.42993e-07	3.35083e-07	4.80476e-07	7.82786e-07	0.269426	0.060171	0.276063	12.5893	95.3547	426.966	437.484	-77.4107	0.0000000E+000	0.0000000E+000	0.0000000E+000	77.4107	0.0000000E+000	0.0000000E+000	0.0000000E+000	-77.4107	0.0000000E+000	0.0000000E+000	0.0000000E+000	-12.5893	0.0000000E+000	0.0000000E+000	0.0000000E+000	12.5893	4.47766	77.4107	-0.000155892
50326.6	3.60479	1.11619	3.77364	-17.2047	372.739	-0.000118952	-0.48464	2.83325	0.247879	1	38	0.00720402	0.00190904	0	-0.00168942	1.0444	0.538346	17.4492	2.72411e-05	1.66731e-05	3.94033e-05	2.07094e-05	3.5399e-05	2.99277e-05	0.0916803	0.0611792	1.62153	6.54313e-07	2.98958e-07	9.73755e-07	9.40522e-07	2.46287e-07	4.40363e-07	0.253139	0.0783821	0.264996	17.2047	247.879	800.536	838.034	-72.7953	0.0000000E+000	0.0000000E+000	0.0000000E+000	72.7953	0.0000000E+000	0.0000000E+000	0.0000000E+000	-72.7953	0.0000000E+000	0.0000000E+000	0.0000000E+000	-17.2047	0.0000000E+000	0.0000000E+000	0.0000000E+000	17.2047	3.22955	72.7953	-0.000152747
25219	3.81651	1.87678	4.25301	-26.1858	376.181	-0.000131479	-0.481024	3.36263	0.654808	1	38	0.00728873	0.00171378	0	-0.00214813	0.987751	0.509227	17.5095	2.71674e-05	3.45788e-05	2.92448e-05	2.42595e-05	2.80702e-05	1.88774e-05	0.109382	0.0529044	1.82432	5.48497e-07	5.77405e-07	1.07497e-06	6.62327e-07	7.05456e-07	7.11025e-07	0.210996	0.103758	0.235128	26.1858	654.808	1331.58	1483.87	-63.8142	0.0000000E+000	0.0000000E+000	0.0000000E+000	63.8142	0.0000000E+000	0.0000000E+000	0.0000000E+000	-63.8142	0.0000000E+000	0.0000000E+000	0.0000000E+000	-26.1858	0.0000000E+000	0.0000000E+000	0.0000000E+000	26.1858	2.03354	63.8142	-0.000152829
12637.3	4.19193	3.29736	5.33337	-38.1886	379.623	-0.000113808	-0.483312	3.81943	1.45992	1	38	0.0072797	0.00136493	0	-0.0025998	0.793144	0.458145	16.3485	1.70417e-05	2.07402e-05	2.23607e-05	2.7366e-05	2.58308e-05	2.06889e-05	0.147555	0.109966	2.24229	8.49055e-07	6.93771e-07	9.48244e-07	3.87894e-07	9.15565e-07	6.183e-07	0.14737	0.115921	0.187499	38.1886	1459.92	1855.99	2361.37	-51.8114	0.0000000E+000	0.0000000E+000	0.0000000E+000	51.8114	0.0000000E+000	0.0000000E+000	0.0000000E+000	-51.8114	0.0000000E+000	0.0000000E+000	0.0000000E+000	-38.1886	0.0000000E+000	0.0000000E+000	0.0000000E+000	38.1886	1.2713	51.8114	-0.000151913
6332.63	4.91637	5.91321	7.69004	-50.2591	383.185	-0.000235979	-0.480258	4.25024	2.51306	1	38	0.00707845	0.00092047	0	-0.00306436	0.877157	0.452108	17.7342	1.33723e-05	2.07373e-05	3.01059e-05	2.57344e-05	2.82625e-05	2.43817e-05	0.245529	0.117309	3.40144	1.11075e-06	9.08634e-07	1.00174e-06	6.95678e-07	6.76454e-07	8.51859e-07	0.0831357	0.0999921	0.130038	50.2591	2513.06	2089.41	3268.19	-39.7409	0.0000000E+000	0.0000000E+000	0.0000000E+000	39.7409	0.0000000E+000	0.0000000E+000	0.0000000E+000	-39.7409	0.0000000E+000	0.0000000E+000	0.0000000E+000	-50.2591	0.0000000E+000	0.0000000E+000	0.0000000E+000	50.2591	0.831422	39.7409	-0.000162568
3171.96	6.47303	10.4926	12.3286	-58.329	386.518	-0.000253352	-0.481862	4.78201	3.46376	1	38	0.00662883	0.000537679	0	-0.00350468	0.824961	0.483949	17.3421	2.04228e-05	1.92358e-05	1.25538e-05	2.15547e-05	1.01692e-05	3.27076e-05	0.411254	0.189909	5.69329	1.69384e-06	8.21987e-07	4.74129e-07	4.18161e-07	5.7585e-07	2.6553e-07	0.0425872	0.0690327	0.0811122	58.329	3463.76	2136.84	4069.85	-31.671	0.0000000E+000	0.0000000E+000	0.0000000E+000	31.671	0.0000000E+000	0.0000000E+000	0.0000000E+000	-31.671	0.0000000E+000	0.0000000E+000	0.0000000E+000	-58.329	0.0000000E+000	0.0000000E+000	0.0000000E+000	58.329	0.616914	31.671	-0.000146569
1589.49	9.54177	18.4172	20.7422	-62.6117	390.057	-0.000237377	-0.480912	5.43675	4.28624	1	38	0.00683679	0.000329608	0	-0.00397454	0.900217	0.425438	16.6418	2.19038e-05	2.66204e-05	2.52143e-05	2.47372e-05	1.83656e-05	2.63617e-05	0.689679	0.28167	9.12241	8.85493e-07	1.38558e-06	5.12126e-07	7.5243e-07	9.60242e-07	5.9448e-07	0.0221779	0.042807	0.048211	62.6117	4286.24	2220.66	4827.34	-27.3883	0.0000000E+000	0.0000000E+000	0.0000000E+000	27.3883	0.0000000E+000	0.0000000E+000	0.0000000E+000	-27.3883	0.0000000E+000	0.0000000E+000	0.0000000E+000	-62.6117	0.0000000E+000	0.0000000E+000	0.0000000E+000	62.6117	0.518091	27.3883	-0.000146979
796.787	15.9995	31.1419	35.0114	-62.8077	393.631	-0.000262877	-0.473283	6.41406	5.07462	1	39	0.00719029	0.00020537	0	-0.00444014	0.817763	0.527085	16.5355	9.56743e-06	1.95674e-05	2.50979e-05	3.08512e-05	2.00532e-05	2.68647e-05	0.661115	0.208663	7.36196	6.56954e-07	8.03557e-07	2.66462e-07	5.19026e-07	4.98353e-07	2.56192e-07	0.0130523	0.0254054	0.0285621	62.8077	5074.62	2607.14	5705.16	-27.1923	0.0000000E+000	0.0000000E+000	0.0000000E+000	27.1923	0.0000000E+000	0.0000000E+000	0.0000000E+000	-27.1923	0.0000000E+000	0.0000000E+000	0.0000000E+000	-62.8077	0.0000000E+000	0.0000000E+000	0.0000000E+000	62.8077	0.513761	27.1923	-0.000173156
399.106	27.9177	50.667	57.8493	-61.145	396.954	-0.000201363	-0.472652	7.87058	6.03754	1	39	0.00676735	0.000116982	0	-0.00487286	0.917357	0.742218	17.7243	1.37649e-05	2.53553e-05	2.58259e-05	2.32724e-05	2.3938e-05	3.12483e-05	0.910901	0.540493	13.1766	4.13452e-07	3.613e-07	1.74788e-07	6.02921e-07	3.09583e-07	3.66696e-07	0.00834226	0.0151401	0.0172863	61.145	6037.54	3326.71	6893.4	-28.855	0.0000000E+000	0.0000000E+000	0.0000000E+000	28.855	0.0000000E+000	0.0000000E+000	0.0000000E+000	-28.855	0.0000000E+000	0.0000000E+000	0.0000000E+000	-61.145	0.0000000E+000	0.0000000E+000	0.0000000E+000	61.145	0.551005	28.855	-0.000144205
199.936	49.3589	78.3448	92.597	-57.7882	400.268	-0.00021581	-0.47297	10.1606	7.27352	1	39	0.00663346	7.1638e-05	0	-0.00530403	0.915685	0.509611	16.2163	1.67999e-05	3.03344e-05	1.48649e-05	2.64107e-05	2.84625e-05	2.08742e-05	1.07087	0.529629	19.4611	2.80882e-07	3.22119e-07	2.43733e-07	3.09603e-07	3.05667e-07	3.0354e-07	0.00575667	0.00913727	0.0107995	57.7882	7273.52	4582.47	8596.69	-32.2118	0.0000000E+000	0.0000000E+000	0.0000000E+000	32.2118	0.0000000E+000	0.0000000E+000	0.0000000E+000	-32.2118	0.0000000E+000	0.0000000E+000	0.0000000E+000	-57.7882	0.0000000E+000	0.0000000E+000	0.0000000E+000	57.7882	0.630021	32.2118	-0.000143951
100.224	85.6195	115.429	143.717	-53.4338	403.583	-0.000226435	-0.471189	13.7572	8.87453	1	39	0.00660049	4.5927e-05	0	-0.00573515	0.970785	0.581164	18.2951	3.07714e-05	2.0637e-05	2.41905e-05	2.00635e-05	2.24993e-05	2.76686e-05	1.83279	1.35844	33.064	3.91607e-07	2.77387e-07	2.13439e-07	3.05995e-07	3.99651e-07	3.22366e-07	0.00414531	0.00558855	0.00695812	53.4338	8874.53	6582.69	11049.4	-36.5662	0.0000000E+000	0.0000000E+000	0.0000000E+000	36.5662	0.0000000E+000	0.0000000E+000	0.0000000E+000	-36.5662	0.0000000E+000	0.0000000E+000	0.0000000E+000	-53.4338	0.0000000E+000	0.0000000E+000	0.0000000E+000	53.4338	0.741751	36.5662	-0.000143344
50.2089	138.2	164.251	214.657	-49.923	406.811	-0.000232102	-0.471452	19.2989	11.2995	1	39	0.00660862	3.07869e-05	0	-0.00615309	0.95324	0.512784	16.9154	2.74442e-05	2.44845e-05	2.60008e-05	1.96659e-05	2.49102e-05	1.87717e-05	2.70652	1.39471	46.9024	4.09012e-07	3.76444e-07	2.55488e-07	3.50371e-07	2.91533e-07	1.72941e-07	0.00299929	0.00356467	0.0046586	49.923	11299.5	9507.32	14767.1	-40.077	0.0000000E+000	0.0000000E+000	0.0000000E+000	40.077	0.0000000E+000	0.0000000E+000	0.0000000E+000	-40.077	0.0000000E+000	0.0000000E+000	0.0000000E+000	-49.923	0.0000000E+000	0.0000000E+000	0.0000000E+000	49.923	0.841393	40.077	-0.00013854
25.1691	211.067	217.871	303.343	-45.9088	410.243	-0.000169357	-0.471817	29.0237	14.9721	1	40	0.00659795	2.17508e-05	0	-0.00659308	1.50349	1.1038	33.6201	2.01359e-05	3.92075e-05	4.49406e-05	5.86227e-05	2.76803e-05	3.88477e-05	0.77083	0.590991	15.0143	1.24535e-07	3.35372e-08	4.88027e-08	6.03401e-08	5.04361e-08	2.52595e-08	0.00229378	0.00236773	0.0032966	45.9088	14972.1	14504.5	20845.8	-44.0912	0.0000000E+000	0.0000000E+000	0.0000000E+000	44.0912	0.0000000E+000	0.0000000E+000	0.0000000E+000	-44.0912	0.0000000E+000	0.0000000E+000	0.0000000E+000	-45.9088	0.0000000E+000	0.0000000E+000	0.0000000E+000	45.9088	0.968768	44.0912	-0.000137973
12.6144	312.028	282.479	420.899	-42.1545	413.522	-0.000205977	-0.470546	44.6652	20.118	1	40	0.00658444	1.56437e-05	0	-0.00701739	1.22977	0.867663	25.0155	2.22437e-05	1.95608e-05	2.92856e-05	2.65196e-05	2.62961e-05	4.4516e-05	1.45094	4.10891	14.8223	1.68515e-07	7.04345e-08	7.05294e-08	3.52198e-08	4.15131e-08	7.40897e-08	0.00176132	0.00159452	0.00237587	42.1545	20118	22222.5	29976.2	-47.8455	0.0000000E+000	0.0000000E+000	0.0000000E+000	47.8455	0.0000000E+000	0.0000000E+000	0.0000000E+000	-47.8455	0.0000000E+000	0.0000000E+000	0.0000000E+000	-42.1545	0.0000000E+000	0.0000000E+000	0.0000000E+000	42.1545	1.10461	47.8455	-0.000150404
6.31569	441.544	394.248	591.94	-41.7612	417.171	-0.000217096	-0.470546	63.919	28.354	1	40	0.00658768	1.1129e-05	0	-0.00748987	1.13235	0.425305	24.3599	1.7758e-05	3.29841e-05	3.53133e-05	1.70921e-05	2.48514e-05	4.029e-05	4.18045	12.2614	19.6085	4.09456e-07	1.4739e-07	8.08131e-08	8.82709e-08	6.15099e-08	2.12032e-08	0.00126014	0.00112516	0.00168936	41.7612	28354	31755.5	42571.8	-48.2388	0.0000000E+000	0.0000000E+000	0.0000000E+000	48.2388	0.0000000E+000	0.0000000E+000	0.0000000E+000	-48.2388	0.0000000E+000	0.0000000E+000	0.0000000E+000	-41.7612	0.0000000E+000	0.0000000E+000	0.0000000E+000	41.7612	1.11997	48.2388	-0.000178941
3.16616	636.575	491.068	803.975	-37.6474	423.015	-0.000218535	-0.470621	102.364	38.1895	1	40	0.0065962	8.20448e-06	0	-0.00824895	0.648397	0.442506	14.9012	1.60894e-05	2.07621e-05	1.28301e-05	1.67887e-05	1.28819e-05	1.66391e-05	5.49436	9.37587	17.0485	2.47686e-07	2.60222e-07	1.95675e-07	1.43773e-07	6.84491e-08	5.42326e-08	0.000984838	0.000759725	0.00124382	37.6474	38189.5	49505.3	62523.7	-52.3526	0.0000000E+000	0.0000000E+000	0.0000000E+000	52.3526	0.0000000E+000	0.0000000E+000	0.0000000E+000	-52.3526	0.0000000E+000	0.0000000E+000	0.0000000E+000	-37.6474	0.0000000E+000	0.0000000E+000	0.0000000E+000	37.6474	1.29631	52.3526	-0.000299982
1.5871	1041.47	691.829	1250.32	-33.5953	433.446	-0.000224274	-0.470229	144.95	44.3786	1	40	0.00659465	5.27438e-06	0	-0.00960682	0.610666	0.396939	10.1119	7.60067e-06	1.81315e-05	1.23358e-05	2.12896e-05	7.14221e-06	2.17925e-05	20.9786	27.1994	24.2246	9.57219e-07	4.53939e-07	1.07864e-07	1.44683e-07	1.00885e-07	1.41125e-07	0.000666204	0.000442546	0.000799797	33.5953	44378.6	66807.2	80203.9	-56.4047	0.0000000E+000	0.0000000E+000	0.0000000E+000	56.4047	0.0000000E+000	0.0000000E+000	0.0000000E+000	-56.4047	0.0000000E+000	0.0000000E+000	0.0000000E+000	-33.5953	0.0000000E+000	0.0000000E+000	0.0000000E+000	33.5953	1.50539	56.4047	-0.000547913
0.79456	1246.87	438.614	1321.77	-19.3805	453.12	-0.000213146	-0.470049	456.679	50.2883	1	40	0.00659334	4.98828e-06	0	-0.0121691	0.319843	0.214003	6.92666	5.7881e-06	6.4704e-06	9.32337e-06	7.4975e-06	7.34903e-06	9.67795e-06	16.0512	18.8159	24.6921	5.27492e-07	2.15909e-07	3.32902e-07	3.08537e-07	1.56185e-07	1.16793e-07	0.000713693	0.000251058	0.000756563	19.3805	50288.3	142957	151544	-70.6195	0.0000000E+000	0.0000000E+000	0.0000000E+000	70.6195	0.0000000E+000	0.0000000E+000	0.0000000E+000	-70.6195	0.0000000E+000	0.0000000E+000	0.0000000E+000	-19.3805	0.0000000E+000	0.0000000E+000	0.0000000E+000	19.3805	2.84275	70.6195	-0.00104305
0.398211	1251.04	288.508	1283.88	-12.9862	491.25	-0.000214738	-0.468431	1385.32	69.9545	1	40	0.00658864	5.13182e-06	0	-0.0171296	0.308216	0.231177	4.97106	9.97677e-06	7.73554e-06	5.84657e-06	5.99713e-06	8.36787e-06	7.14996e-06	19.5177	15.2905	30.2201	4.3418e-07	3.17162e-07	4.73652e-07	2.31065e-07	2.70177e-07	3.18697e-07	0.000758969	0.000175029	0.000778889	12.9862	69954.5	303341	311302	-77.0138	0.0000000E+000	0.0000000E+000	0.0000000E+000	77.0138	0.0000000E+000	0.0000000E+000	0.0000000E+000	-77.0138	0.0000000E+000	0.0000000E+000	0.0000000E+000	-12.9862	0.0000000E+000	0.0000000E+000	0.0000000E+000	12.9862	4.33626	77.0138	-0.00203555
0.199573	1456.38	188.734	1468.56	-7.38388	566.403	-0.000203608	-0.467001	4225.39	69.7887	1	40	0.00658816	4.48614e-06	0	-0.0268778	0.235664	0.136572	3.63208	5.01732e-06	9.89687e-06	4.63757e-06	6.62133e-06	3.35002e-06	4.38555e-06	15.709	11.4803	36.8974	2.59928e-07	3.71401e-07	1.63663e-07	3.71431e-07	1.94867e-07	2.02624e-07	0.000675293	8.75121e-05	0.00068094	7.38388	69788.7	538530	543033	-82.6161	0.0000000E+000	0.0000000E+000	0.0000000E+000	82.6161	0.0000000E+000	0.0000000E+000	0.0000000E+000	-82.6161	0.0000000E+000	0.0000000E+000	0.0000000E+000	-7.38388	0.0000000E+000	0.0000000E+000	0.0000000E+000	7.38388	7.71657	82.6161	-0.004007
0.0999518	1509.11	68.1341	1510.65	-2.58506	715.458	-0.000196405	-0.463202	23370.3	47.5407	1	40	0.00658664	4.36013e-06	0	-0.0460984	0.182545	0.157987	2.57825	5.65775e-06	8.24196e-06	1.94903e-06	4.35944e-06	1.95917e-06	2.38682e-06	13.1268	9.47886	43.2699	1.19629e-07	1.89475e-07	2.47859e-07	1.18626e-07	2.3954e-07	3.59578e-07	0.000661292	2.98563e-05	0.000661966	2.58506	47540.7	1.05299e+06	1.05406e+06	-87.4149	0.0000000E+000	0.0000000E+000	0.0000000E+000	87.4149	0.0000000E+000	0.0000000E+000	0.0000000E+000	-87.4149	0.0000000E+000	0.0000000E+000	0.0000000E+000	-2.58506	0.0000000E+000	0.0000000E+000	0.0000000E+000	2.58506	22.1492	87.4149	-0.00789873
252347	3.56431	0.939235	3.68598	-14.7625	719.994	-0.000103145	-0.461256	0.671501	0.0436002	2	38	0.00721926	0.00195857	0	-0.0466872	-1	-1	-1	0	0	0	0	0	0	-1	-1	-1	0	0	0	0	0	0	0.262343	0.0691302	0.271298	14.7625	43.6002	165.459	171.107	-75.2375	0.0000000E+000	0.0000000E+000	0.0000000E+000	75.2375	0.0000000E+000	0.0000000E+000	0.0000000E+000	-75.2375	0.0000000E+000	0.0000000E+000	0.0000000E+000	-14.7625	0.0000000E+000	0.0000000E+000	0.0000000E+000	14.7625	3.79491	75.2375	-0.000150254
126447	3.51731	0.79674	3.60642	-12.7632	723.436	-0.000130491	-0.462611	1.57977	0.0771035	2	38	0.00723582	0.00200637	0	-0.0471194	-1	-1	-1	0	0	0	0	0	0	-1	-1	-1	0	0	0	0	0	0	0.270432	0.0612582	0.277283	12.7632	77.1036	340.383	349.007	-77.2368	0.0000000E+000	0.0000000E+000	0.0000000E+000	77.2368	0.0000000E+000	0.0000000E+000	0.0000000E+000	-77.2368	0.0000000E+000	0.0000000E+000	0.0000000E+000	-12.7632	0.0000000E+000	0.0000000E+000	0.0000000E+000	12.7632	4.41463	77.2368	-0.000143866
63362.9	3.58181	1.02352	3.72518	-15.9476	726.877	-9.88391e-05	-0.460879	2.45408	0.185262	2	38	0.00725346	0.00194714	0	-0.0475592	0.987473	0.373497	16.2587	2.17292e-05	2.81171e-05	1.45997e-05	3.3778e-05	2.88919e-05	3.33923e-05	0.105296	0.0435134	1.61237	1.2831e-06	7.15807e-07	8.03613e-07	4.5307e-07	4.52736e-07	7.24879e-07	0.258112	0.0737568	0.268443	15.9476	185.262	648.326	674.276	-74.0524	0.0000000E+000	0.0000000E+000	0.0000000E+000	74.0524	0.0000000E+000	0.0000000E+000	0.0000000E+000	-74.0524	0.0000000E+000	0.0000000E+000	0.0000000E+000	-15.9476	0.0000000E+000	0.0000000E+000	0.0000000E+000	15.9476	3.4995	74.0524	-0.00014593
31751	3.74498	1.64964	4.09221	-23.7731	730.319	-0.000146466	-0.463728	3.03861	0.493782	2	38	0.00725674	0.00177331	0	-0.0479971	0.800168	0.585087	15.9749	1.78684e-05	1.5815e-05	1.36092e-05	1.92519e-05	2.47372e-05	2.98211e-05	0.0991052	0.0613892	1.77346	5.14544e-07	6.6962e-07	7.84624e-07	9.29538e-07	4.17751e-07	7.30634e-07	0.223632	0.0985083	0.244367	23.7731	493.782	1120.98	1224.91	-66.2269	0.0000000E+000	0.0000000E+000	0.0000000E+000	66.2269	0.0000000E+000	0.0000000E+000	0.0000000E+000	-66.2269	0.0000000E+000	0.0000000E+000	0.0000000E+000	-23.7731	0.0000000E+000	0.0000000E+000	0.0000000E+000	23.7731	2.27019	66.2269	-0.000143595
15912.6	4.06493	2.87684	4.97995	-35.2879	733.76	-0.000110042	-0.465125	3.47666	1.16023	2	38	0.00731415	0.00146872	0	-0.0484351	0.84747	0.495792	15.8837	1.82786e-05	1.41638e-05	2.46784e-05	1.71145e-05	4.27634e-05	1.66792e-05	0.115864	0.0890528	2.08787	1.18059e-06	5.16935e-07	6.02216e-07	3.41615e-07	5.30427e-07	4.69677e-07	0.163909	0.116002	0.200805	35.2879	1160.23	1639.39	2008.41	-54.7121	0.0000000E+000	0.0000000E+000	0.0000000E+000	54.7121	0.0000000E+000	0.0000000E+000	0.0000000E+000	-54.7121	0.0000000E+000	0.0000000E+000	0.0000000E+000	-35.2879	0.0000000E+000	0.0000000E+000	0.0000000E+000	35.2879	1.41299	54.7121	-0.000147994
7967.67	4.67845	5.14352	6.95296	-47.7109	737.23	-0.000249568	-0.462285	3.88355	2.12525	2	38	0.00732075	0.0010529	0	-0.048876	1.00448	0.378949	16.724	2.82783e-05	2.89105e-05	2.10622e-05	3.48517e-05	2.85007e-05	2.17965e-05	0.240217	0.139679	3.1189	1.36572e-06	9.57988e-07	1.07302e-06	7.21477e-07	8.62449e-07	8.52592e-07	0.0967748	0.106395	0.143824	47.7109	2125.25	1933.09	2872.89	-42.2891	0.0000000E+000	0.0000000E+000	0.0000000E+000	42.2891	0.0000000E+000	0.0000000E+000	0.0000000E+000	-42.2891	0.0000000E+000	0.0000000E+000	0.0000000E+000	-47.7109	0.0000000E+000	0.0000000E+000	0.0000000E+000	47.7109	0.909582	42.2891	-0.000146296
3993.72	5.94492	9.13441	10.8986	-56.9428	740.695	-0.000241366	-0.462888	4.36277	3.06465	2	38	0.00683812	0.000627431	0	-0.0493147	0.902183	0.391677	17.1354	1.49177e-05	1.42459e-05	2.23761e-05	3.45554e-05	2.43519e-05	1.74257e-05	0.492358	0.175358	5.05398	2.44585e-06	5.85023e-07	8.3403e-07	8.99476e-07	5.56672e-07	1.12072e-06	0.05005	0.0769022	0.0917549	56.9428	3064.65	1994.56	3656.55	-33.0572	0.0000000E+000	0.0000000E+000	0.0000000E+000	33.0572	0.0000000E+000	0.0000000E+000	0.0000000E+000	-33.0572	0.0000000E+000	0.0000000E+000	0.0000000E+000	-56.9428	0.0000000E+000	0.0000000E+000	0.0000000E+000	56.9428	0.650827	33.0572	-0.000141205
2001.92	8.57807	16.0425	18.1919	-61.8661	744.236	-0.000253781	-0.463086	4.95568	3.85381	2	38	0.00692509	0.00038067	0	-0.0497671	0.954566	0.507823	17.1178	2.91685e-05	2.17725e-05	2.40673e-05	9.84712e-06	2.85201e-05	3.27904e-05	0.6353	0.31858	8.03525	1.11254e-06	1.08628e-06	7.03159e-07	8.33048e-07	7.94718e-07	7.01832e-07	0.02592	0.0484749	0.0549697	61.8661	3853.81	2060.67	4370.15	-28.1339	0.0000000E+000	0.0000000E+000	0.0000000E+000	28.1339	0.0000000E+000	0.0000000E+000	0.0000000E+000	-28.1339	0.0000000E+000	0.0000000E+000	0.0000000E+000	-61.8661	0.0000000E+000	0.0000000E+000	0.0000000E+000	61.8661	0.534711	28.1339	-0.000169095
1002.75	13.9449	27.5406	30.8698	-63.1451	747.557	-0.000255272	-0.463226	5.76306	4.58704	2	38	0.00671261	0.000217449	0	-0.050192	1.11864	0.448323	16.9173	1.5601e-05	3.04703e-05	2.75627e-05	4.55826e-05	2.2714e-05	2.60583e-05	1.08271	0.397257	14.6561	7.40874e-07	1.29705e-06	9.52838e-07	8.63032e-07	9.65857e-07	5.99641e-07	0.0146335	0.0289005	0.0323941	63.1451	4587.04	2322.6	5141.53	-26.8549	0.0000000E+000	0.0000000E+000	0.0000000E+000	26.8549	0.0000000E+000	0.0000000E+000	0.0000000E+000	-26.8549	0.0000000E+000	0.0000000E+000	0.0000000E+000	-63.1451	0.0000000E+000	0.0000000E+000	0.0000000E+000	63.1451	0.50634	26.8549	-0.000142028
502.588	24.3283	44.8458	51.0197	-61.5207	751.131	-0.000195678	-0.460985	7.06133	5.45574	2	39	0.00682653	0.000133802	0	-0.0506432	1.03586	0.549434	17.6515	1.71737e-05	2.05368e-05	1.96107e-05	4.36376e-05	2.71575e-05	2.84297e-05	0.909437	0.396013	11.1976	3.35039e-07	4.37804e-07	2.68068e-07	8.9538e-07	3.01164e-07	3.00393e-07	0.00934622	0.0172284	0.0196003	61.5207	5455.74	2959.68	6206.84	-28.4793	0.0000000E+000	0.0000000E+000	0.0000000E+000	28.4793	0.0000000E+000	0.0000000E+000	0.0000000E+000	-28.4793	0.0000000E+000	0.0000000E+000	0.0000000E+000	-61.5207	0.0000000E+000	0.0000000E+000	0.0000000E+000	61.5207	0.542488	28.4793	-0.000140915
251.853	43.5882	70.0718	82.5227	-58.1163	754.445	-0.00023514	-0.462534	9.01838	6.50233	2	39	0.00665871	8.06895e-05	0	-0.0510653	1.11861	0.624255	18.1085	1.71005e-05	3.42108e-05	3.14902e-05	1.66089e-05	3.91158e-05	2.51949e-05	1.09507	0.581246	18.7624	2.89671e-07	4.05327e-07	2.97459e-07	2.63313e-07	5.3188e-07	1.67549e-07	0.00640062	0.0102896	0.0121179	58.1163	6502.33	4044.78	7657.71	-31.8837	0.0000000E+000	0.0000000E+000	0.0000000E+000	31.8837	0.0000000E+000	0.0000000E+000	0.0000000E+000	-31.8837	0.0000000E+000	0.0000000E+000	0.0000000E+000	-58.1163	0.0000000E+000	0.0000000E+000	0.0000000E+000	58.1163	0.622051	31.8837	-0.000140536
126.171	75.8061	103.29	128.123	-53.7246	757.763	-0.000250854	-0.461185	12.2124	7.93719	2	39	0.00660535	5.15547e-05	0	-0.0514877	0.882086	0.466521	17.9801	3.00816e-05	2.52987e-05	2.87602e-05	1.82576e-05	8.72677e-06	8.58472e-06	1.71181	0.762897	29.0705	4.82979e-07	2.89318e-07	4.40874e-07	2.69323e-07	1.81497e-07	2.13628e-07	0.00461796	0.00629226	0.007805	53.7246	7937.19	5825.19	9845.4	-36.2754	0.0000000E+000	0.0000000E+000	0.0000000E+000	36.2754	0.0000000E+000	0.0000000E+000	0.0000000E+000	-36.2754	0.0000000E+000	0.0000000E+000	0.0000000E+000	-53.7246	0.0000000E+000	0.0000000E+000	0.0000000E+000	53.7246	0.733912	36.2754	-0.000140268
63.2394	123.402	144.799	190.249	-49.5612	761.033	-0.000236314	-0.461139	17.3807	10.0682	2	39	0.00659542	3.46672e-05	0	-0.0519017	0.838991	0.541072	17.9627	2.96142e-05	1.02361e-05	1.75372e-05	2.33158e-05	1.49871e-05	2.64537e-05	1.92629	1.30369	43.0833	3.73186e-07	1.85172e-07	2.41816e-07	2.82711e-07	1.23379e-07	2.44682e-07	0.00340939	0.00400053	0.00525626	49.5612	10068.2	8580.43	13228.4	-40.4388	0.0000000E+000	0.0000000E+000	0.0000000E+000	40.4388	0.0000000E+000	0.0000000E+000	0.0000000E+000	-40.4388	0.0000000E+000	0.0000000E+000	0.0000000E+000	-49.5612	0.0000000E+000	0.0000000E+000	0.0000000E+000	49.5612	0.852234	40.4388	-0.000137503
31.6723	188.942	192.53	269.753	-45.5389	764.459	-0.000214151	-0.461901	26.1001	13.2955	2	40	0.00662585	2.45626e-05	0	-0.0523338	1.7948	0.813238	34.406	5.25866e-05	3.2976e-05	3.11323e-05	3.53613e-05	5.27488e-05	4.4423e-05	1.11471	1.178	14.5344	1.92987e-07	1.17248e-07	5.13861e-08	8.78375e-08	6.54859e-08	5.82023e-08	0.00259654	0.00264585	0.00370709	45.5389	13295.5	13047.8	18628.3	-44.4611	0.0000000E+000	0.0000000E+000	0.0000000E+000	44.4611	0.0000000E+000	0.0000000E+000	0.0000000E+000	-44.4611	0.0000000E+000	0.0000000E+000	0.0000000E+000	-45.5389	0.0000000E+000	0.0000000E+000	0.0000000E+000	45.5389	0.981365	44.4611	-0.000132727
15.879	273.697	250.444	370.989	-42.4598	767.634	-0.000190514	-0.462412	40.0207	18.2384	2	40	0.00659234	1.77697e-05	0	-0.0527374	1.68535	0.864564	33.0206	3.82993e-05	3.89129e-05	2.58341e-05	4.80236e-05	4.24424e-05	4.75936e-05	0.974455	1.99878	16.5925	1.06314e-07	3.49828e-08	4.21858e-08	7.73071e-08	3.82247e-08	6.74513e-08	0.00198861	0.00181966	0.0026955	42.4598	18238.4	19931.7	27016.9	-47.5402	0.0000000E+000	0.0000000E+000	0.0000000E+000	47.5402	0.0000000E+000	0.0000000E+000	0.0000000E+000	-47.5402	0.0000000E+000	0.0000000E+000	0.0000000E+000	-42.4598	0.0000000E+000	0.0000000E+000	0.0000000E+000	42.4598	1.09285	47.5402	-0.000132529
7.95573	399.498	322.778	513.6	-38.9368	771.071	-0.000188389	-0.461167	61.9777	24.4791	2	40	0.0065991	1.28487e-05	0	-0.0531729	1.32577	0.664549	23.8893	2.69817e-05	4.21927e-05	3.5847e-05	9.37626e-06	3.2199e-05	4.24285e-05	3.39003	10.9277	16.7356	3.61031e-07	1.45668e-07	1.28118e-07	8.07079e-08	6.08462e-08	8.73249e-08	0.00151449	0.00122364	0.00194704	38.9368	24479.1	30297.4	38950.7	-51.0632	0.0000000E+000	0.0000000E+000	0.0000000E+000	51.0632	0.0000000E+000	0.0000000E+000	0.0000000E+000	-51.0632	0.0000000E+000	0.0000000E+000	0.0000000E+000	-38.9368	0.0000000E+000	0.0000000E+000	0.0000000E+000	38.9368	1.23769	51.0632	-0.000152487
3.98597	535.948	427.619	685.637	-38.5855	775.992	-0.000220302	-0.462674	93.3747	36.3207	2	40	0.00658247	9.60052e-06	0	-0.0537975	1.05913	0.432741	17.7627	2.83224e-05	1.27136e-05	3.11519e-05	2.13728e-05	3.53492e-05	1.73679e-05	4.09804	13.1589	16.6054	2.94757e-07	1.85813e-07	1.03168e-07	5.03123e-08	4.77623e-08	3.76665e-08	0.00114008	0.000909638	0.0014585	38.5855	36320.7	45521.9	58236.1	-51.4145	0.0000000E+000	0.0000000E+000	0.0000000E+000	51.4145	0.0000000E+000	0.0000000E+000	0.0000000E+000	-51.4145	0.0000000E+000	0.0000000E+000	0.0000000E+000	-38.5855	0.0000000E+000	0.0000000E+000	0.0000000E+000	38.5855	1.25333	51.4145	-0.0002445
1.99783	857.126	524.05	1004.64	-31.4418	784.521	-0.000207071	-0.460512	152.016	41.3635	2	40	0.00658568	6.55528e-06	0	-0.054885	0.634639	0.293185	11.5644	1.02091e-05	7.51785e-06	1.64166e-05	1.72534e-05	1.92598e-05	2.22371e-05	9.85806	32.2554	20.0631	3.47938e-07	3.26045e-07	2.8969e-07	1.85835e-07	9.83696e-08	1.0945e-07	0.000849234	0.000519224	0.000995385	31.4418	41363.5	67653.3	79296.3	-58.5582	0.0000000E+000	0.0000000E+000	0.0000000E+000	58.5582	0.0000000E+000	0.0000000E+000	0.0000000E+000	-58.5582	0.0000000E+000	0.0000000E+000	0.0000000E+000	-31.4418	0.0000000E+000	0.0000000E+000	0.0000000E+000	31.4418	1.63558	58.5582	-0.000436251
1.00122	1076.15	372.085	1138.66	-19.073	800.387	-0.00018716	-0.460099	427.219	45.6188	2	40	0.00658025	5.77893e-06	0	-0.0569123	0.441222	0.271336	8.06341	1.05618e-05	5.69868e-06	1.26881e-05	9.96912e-06	1.28496e-05	1.10657e-05	18.3284	13.8404	21.3773	7.5866e-07	5.57905e-07	1.75403e-07	1.50964e-07	2.3716e-07	2.21703e-07	0.000830011	0.00028698	0.000878223	19.073	45618.8	131940	139604	-70.9269	0.0000000E+000	0.0000000E+000	0.0000000E+000	70.9269	0.0000000E+000	0.0000000E+000	0.0000000E+000	-70.9269	0.0000000E+000	0.0000000E+000	0.0000000E+000	-19.073	0.0000000E+000	0.0000000E+000	0.0000000E+000	19.073	2.89223	70.9269	-0.000824131
0.501541	1243.07	303.722	1279.64	-13.7302	830.882	-0.000197992	-0.460204	1044.81	58.8594	2	40	0.00658723	5.14773e-06	0	-0.060805	0.254899	0.123938	5.52623	6.1551e-06	8.34173e-06	5.79455e-06	5.37676e-06	5.99233e-06	3.48215e-06	18.1924	17.001	28.0673	4.93219e-07	4.19664e-07	5.05789e-07	1.36217e-07	3.10248e-07	1.95926e-07	0.00075914	0.000185482	0.000781471	13.7302	58859.4	240899	247986	-76.2698	0.0000000E+000	0.0000000E+000	0.0000000E+000	76.2698	0.0000000E+000	0.0000000E+000	0.0000000E+000	-76.2698	0.0000000E+000	0.0000000E+000	0.0000000E+000	-13.7302	0.0000000E+000	0.0000000E+000	0.0000000E+000	13.7302	4.0928	76.2698	-0.00159417
0.251222	1422.04	123.641	1427.4	-4.96916	890.776	-0.000195553	-0.458821	5123.91	38.4444	2	40	0.00658649	4.61432e-06	0	-0.0684408	0.229992	0.119626	3.88037	5.7809e-06	7.6959e-06	4.91974e-06	7.98327e-06	4.86323e-06	4.46106e-06	20.9936	12.0793	32.7429	4.6268e-07	3.47298e-07	2.3724e-07	3.34363e-07	5.00546e-07	1.83191e-07	0.000697941	6.06834e-05	0.000700574	4.96916	38444.4	442162	443831	-85.0308	0.0000000E+000	0.0000000E+000	0.0000000E+000	85.0308	0.0000000E+000	0.0000000E+000	0.0000000E+000	-85.0308	0.0000000E+000	0.0000000E+000	0.0000000E+000	-4.96916	0.0000000E+000	0.0000000E+000	0.0000000E+000	4.96916	11.5013	85.0308	-0.00313567
0.125939	1329.71	70.6171	1331.58	-3.03997	1009.34	-0.000219271	-0.455979	17895.8	50.3311	2	40	0.00658494	4.94521e-06	0	-0.0834893	0.228461	0.0976489	2.77298	3.82477e-06	9.94105e-06	5.13939e-06	4.88027e-06	4.41074e-06	3.8875e-06	16.2859	11.3702	37.8258	3.23357e-07	2.8996e-07	3.60086e-07	2.59511e-07	3.19479e-07	3.45196e-07	0.000749931	3.98268e-05	0.000750987	3.03997	50331.1	947724	949060	-86.96	0.0000000E+000	0.0000000E+000	0.0000000E+000	86.96	0.0000000E+000	0.0000000E+000	0.0000000E+000	-86.96	0.0000000E+000	0.0000000E+000	0.0000000E+000	-3.03997	0.0000000E+000	0.0000000E+000	0.0000000E+000	3.03997	18.8298	86.96	-0.00618281
317705	3.59925	1.09712	3.76275	-16.9522	1074.28	-0.000122606	-0.454903	0.456608	0.0388185	3	38	0.00713214	0.00189546	0	-0.0917044	-1	-1	-1	0	0	0	0	0	0	-1	-1	-1	0	0	0	0	0	0	0.254215	0.0774895	0.265763	16.9522	38.8185	127.35	133.135	-73.0478	0.0000000E+000	0.0000000E+000	0.0000000E+000	73.0478	0.0000000E+000	0.0000000E+000	0.0000000E+000	-73.0478	0.0000000E+000	0.0000000E+000	0.0000000E+000	-16.9522	0.0000000E+000	0.0000000E+000	0.0000000E+000	16.9522	3.28065	73.0478	-0.00014488
159201	3.52912	0.795248	3.61761	-12.6989	1077.72	-0.000118076	-0.455951	1.25711	0.0607483	3	38	0.00723651	0.00200035	0	-0.0921463	-1	-1	-1	0	0	0	0	0	0	-1	-1	-1	0	0	0	0	0	0	0.269664	0.0607657	0.276425	12.6989	60.7482	269.586	276.346	-77.3011	0.0000000E+000	0.0000000E+000	0.0000000E+000	77.3011	0.0000000E+000	0.0000000E+000	0.0000000E+000	-77.3011	0.0000000E+000	0.0000000E+000	0.0000000E+000	-12.6989	0.0000000E+000	0.0000000E+000	0.0000000E+000	12.6989	4.43776	77.3011	-0.000148159
79767.3	3.55225	0.911539	3.66734	-14.3921	1081.17	-0.000117349	-0.457373	2.18887	0.135228	3	38	0.00723636	0.00197319	0	-0.0925718	0.846092	0.2775	16.4694	3.04862e-05	1.62067e-05	2.18994e-05	1.78353e-05	3.03516e-05	1.52884e-05	0.107351	0.0874889	1.64587	8.20721e-07	7.49796e-07	9.51813e-07	1.06301e-06	3.22421e-07	6.05213e-07	0.26412	0.0677755	0.272677	14.3921	135.228	526.982	544.056	-75.6079	0.0000000E+000	0.0000000E+000	0.0000000E+000	75.6079	0.0000000E+000	0.0000000E+000	0.0000000E+000	-75.6079	0.0000000E+000	0.0000000E+000	0.0000000E+000	-14.3921	0.0000000E+000	0.0000000E+000	0.0000000E+000	14.3921	3.89698	75.6079	-0.000142181
39971.8	3.6758	1.40058	3.93359	-20.8582	1084.61	-0.000103033	-0.456381	2.84288	0.36041	3	38	0.00724181	0.00184102	0	-0.0930012	0.798468	0.56882	15.3621	9.54071e-06	2.46102e-05	2.36207e-05	1.74195e-05	2.08183e-05	3.12077e-05	0.102927	0.0641868	1.61736	6.06343e-07	7.83064e-07	1.07397e-06	5.65942e-07	5.37705e-07	3.79885e-07	0.23756	0.090517	0.254221	20.8582	360.41	945.889	1012.23	-69.1418	0.0000000E+000	0.0000000E+000	0.0000000E+000	69.1418	0.0000000E+000	0.0000000E+000	0.0000000E+000	-69.1418	0.0000000E+000	0.0000000E+000	0.0000000E+000	-20.8582	0.0000000E+000	0.0000000E+000	0.0000000E+000	20.8582	2.62448	69.1418	-0.000142788
20032.3	3.9402	2.39884	4.61298	-31.3336	1088.05	-0.000107675	-0.454677	3.31198	0.895628	3	38	0.00726277	0.00157442	0	-0.0934308	0.939914	0.538421	16.3936	3.81014e-05	3.00969e-05	3.01301e-05	2.13647e-05	1.37719e-05	1.99166e-05	0.134969	0.0603296	1.95866	1.26801e-06	5.97627e-07	8.33133e-07	6.48235e-07	8.18308e-07	6.61997e-07	0.185163	0.11273	0.216779	31.3336	895.628	1471.11	1722.3	-58.6664	0.0000000E+000	0.0000000E+000	0.0000000E+000	58.6664	0.0000000E+000	0.0000000E+000	0.0000000E+000	-58.6664	0.0000000E+000	0.0000000E+000	0.0000000E+000	-31.3336	0.0000000E+000	0.0000000E+000	0.0000000E+000	31.3336	1.64254	58.6664	-0.000144904
10039.3	4.43719	4.27594	6.16217	-43.9398	1091.49	-0.000109502	-0.454815	3.70752	1.78517	3	38	0.0072465	0.00117597	0	-0.0938635	1.13467	0.367838	17.1203	2.75416e-05	1.95673e-05	2.74706e-05	4.95331e-05	1.90273e-05	3.44196e-05	0.180373	0.0858186	2.68524	1.3395e-06	6.59866e-07	7.03326e-07	8.76504e-07	6.93624e-07	4.01122e-07	0.116853	0.112607	0.162281	43.9398	1785.17	1852.49	2572.65	-46.0602	0.0000000E+000	0.0000000E+000	0.0000000E+000	46.0602	0.0000000E+000	0.0000000E+000	0.0000000E+000	-46.0602	0.0000000E+000	0.0000000E+000	0.0000000E+000	-43.9398	0.0000000E+000	0.0000000E+000	0.0000000E+000	43.9398	1.03771	46.0602	-0.000146019
5028.39	5.46295	7.59046	9.35195	-54.257	1095.02	-0.000239166	-0.456154	4.16987	2.74698	3	38	0.00705381	0.000754261	0	-0.0942971	0.939726	0.430264	17.3024	2.43048e-05	1.90693e-05	3.59106e-05	1.79506e-05	3.82036e-05	1.09408e-05	0.422764	0.152236	4.08643	2.75023e-06	9.57521e-07	6.05795e-07	6.30491e-07	5.58331e-07	4.88355e-07	0.062463	0.0867889	0.10693	54.257	2746.98	1977.03	3384.46	-35.743	0.0000000E+000	0.0000000E+000	0.0000000E+000	35.743	0.0000000E+000	0.0000000E+000	0.0000000E+000	-35.743	0.0000000E+000	0.0000000E+000	0.0000000E+000	-54.257	0.0000000E+000	0.0000000E+000	0.0000000E+000	54.257	0.719712	35.743	-0.000139454
2519.19	7.47618	13.4021	15.3463	-60.8456	1098.34	-0.000227702	-0.457472	4.71396	3.5952	3	38	0.00641184	0.00041781	0	-0.0947136	0.993036	0.402926	18.3219	2.53333e-05	1.84486e-05	3.53986e-05	1.67532e-05	2.53558e-05	2.41188e-05	0.639385	0.176181	7.67536	1.68777e-06	1.01775e-06	1.14931e-06	6.69125e-07	6.88906e-07	6.55294e-07	0.0317447	0.0569068	0.0651622	60.8456	3595.2	2005.53	4116.75	-29.1544	0.0000000E+000	0.0000000E+000	0.0000000E+000	29.1544	0.0000000E+000	0.0000000E+000	0.0000000E+000	-29.1544	0.0000000E+000	0.0000000E+000	0.0000000E+000	-60.8456	0.0000000E+000	0.0000000E+000	0.0000000E+000	60.8456	0.557836	29.1544	-0.000139585
1262.98	11.7322	23.069	25.881	-63.0435	1101.88	-0.000235904	-0.456919	5.46254	4.34003	3	38	0.00674732	0.000260706	0	-0.0951584	0.873141	0.578054	17.0024	2.14692e-05	3.19539e-05	2.24768e-05	1.77665e-05	1.92094e-05	1.86846e-05	0.686155	0.366121	11.5607	1.0745e-06	4.62759e-07	7.63245e-07	6.57971e-07	6.9399e-07	3.05408e-07	0.0175153	0.0344404	0.0386384	63.0435	4340.03	2207.21	4869.04	-26.9565	0.0000000E+000	0.0000000E+000	0.0000000E+000	26.9565	0.0000000E+000	0.0000000E+000	0.0000000E+000	-26.9565	0.0000000E+000	0.0000000E+000	0.0000000E+000	-63.0435	0.0000000E+000	0.0000000E+000	0.0000000E+000	63.0435	0.50857	26.9565	-0.000139158
632.773	20.3571	38.6366	43.6715	-62.2159	1105.45	-0.000217879	-0.452587	6.50989	5.09537	3	39	0.00697821	0.000159789	0	-0.0956017	0.881276	0.527241	16.6861	2.38843e-05	2.25528e-05	2.5941e-05	2.4433e-05	1.84601e-05	2.91905e-05	0.633493	0.309289	9.1514	5.97346e-07	2.70838e-07	2.71721e-07	5.03579e-07	2.85373e-07	3.4612e-07	0.0106738	0.0202583	0.0228982	62.2159	5095.37	2684.68	5759.37	-27.7841	0.0000000E+000	0.0000000E+000	0.0000000E+000	27.7841	0.0000000E+000	0.0000000E+000	0.0000000E+000	-27.7841	0.0000000E+000	0.0000000E+000	0.0000000E+000	-62.2159	0.0000000E+000	0.0000000E+000	0.0000000E+000	62.2159	0.526886	27.7841	-0.000138381
316.927	36.5482	61.0233	71.1309	-59.0817	1108.77	-0.000209043	-0.454239	8.22935	6.05675	3	39	0.00670038	9.41979e-05	0	-0.0960173	0.940131	0.450197	17.1298	2.9408e-05	2.30523e-05	1.05066e-05	1.70385e-05	3.07815e-05	2.36719e-05	0.973553	0.444595	15.3452	3.95929e-07	2.63687e-07	2.06684e-07	4.67821e-07	4.24765e-07	2.60201e-07	0.00722352	0.0120609	0.0140586	59.0817	6056.75	3627.52	7059.97	-30.9183	0.0000000E+000	0.0000000E+000	0.0000000E+000	30.9183	0.0000000E+000	0.0000000E+000	0.0000000E+000	-30.9183	0.0000000E+000	0.0000000E+000	0.0000000E+000	-59.0817	0.0000000E+000	0.0000000E+000	0.0000000E+000	59.0817	0.598922	30.9183	-0.000138386
158.831	64.2413	91.2747	111.615	-54.8612	1112.09	-0.000202034	-0.455594	10.9783	7.34154	3	39	0.00662414	5.93479e-05	0	-0.0964324	0.843417	0.535646	17.9815	2.68305e-05	2.12789e-05	1.43032e-05	2.27126e-05	2.45351e-05	1.64235e-05	0.933508	0.519048	24.7785	2.63209e-07	2.02333e-07	2.23807e-07	2.62844e-07	1.72854e-07	1.05493e-07	0.00515663	0.00732659	0.00895933	54.8612	7341.54	5167.15	8977.62	-35.1388	0.0000000E+000	0.0000000E+000	0.0000000E+000	35.1388	0.0000000E+000	0.0000000E+000	0.0000000E+000	-35.1388	0.0000000E+000	0.0000000E+000	0.0000000E+000	-54.8612	0.0000000E+000	0.0000000E+000	0.0000000E+000	54.8612	0.703824	35.1388	-0.000138812
79.6177	109.638	127.581	168.218	-49.3255	1115.38	-0.000214598	-0.453672	15.6685	9.01261	3	39	0.00659779	3.92217e-05	0	-0.0968424	0.766583	0.646807	17.2811	2.95026e-05	2.24558e-05	1.35608e-05	1.7334e-05	1.34652e-05	1.50737e-05	2.38395	1.19671	36.5683	4.02937e-07	4.55113e-07	2.00079e-07	3.90966e-07	2.61135e-07	2.71615e-07	0.0038745	0.00450858	0.00594467	49.3255	9012.61	7745.1	11883.3	-40.6745	0.0000000E+000	0.0000000E+000	0.0000000E+000	40.6745	0.0000000E+000	0.0000000E+000	0.0000000E+000	-40.6745	0.0000000E+000	0.0000000E+000	0.0000000E+000	-49.3255	0.0000000E+000	0.0000000E+000	0.0000000E+000	49.3255	0.859362	40.6745	-0.000133766
39.8851	168.461	169.628	239.067	-45.1978	1118.85	-0.000236557	-0.452441	23.524	11.8432	3	40	0.00663696	2.77619e-05	0	-0.0972715	2.07827	0.608428	33.8419	5.76178e-05	6.88431e-05	4.9704e-05	4.16844e-05	4.63115e-05	6.03538e-05	0.784339	0.335861	10.9716	1.15956e-07	1.00431e-07	8.05916e-08	5.86177e-08	5.82827e-08	6.83322e-08	0.00294755	0.00296797	0.00418293	45.1978	11843.2	11761.7	16691.3	-44.8022	0.0000000E+000	0.0000000E+000	0.0000000E+000	44.8022	0.0000000E+000	0.0000000E+000	0.0000000E+000	-44.8022	0.0000000E+000	0.0000000E+000	0.0000000E+000	-45.1978	0.0000000E+000	0.0000000E+000	0.0000000E+000	45.1978	0.993118	44.8022	-0.000133646
19.9808	247.389	219.786	330.919	-41.6186	1122.02	-0.000233276	-0.454515	36.2415	15.9869	3	40	0.00665239	2.01028e-05	0	-0.0976684	1.79785	0.786618	33.5358	3.99304e-05	2.33705e-05	4.69135e-05	5.41691e-05	4.06727e-05	6.25115e-05	1.00436	1.05849	15.8499	1.36635e-07	6.42417e-08	3.63819e-08	5.67572e-08	3.99353e-08	9.7525e-08	0.00225911	0.00200704	0.00302189	41.6186	15986.9	17994.7	24070.5	-48.3814	0.0000000E+000	0.0000000E+000	0.0000000E+000	48.3814	0.0000000E+000	0.0000000E+000	0.0000000E+000	-48.3814	0.0000000E+000	0.0000000E+000	0.0000000E+000	-41.6186	0.0000000E+000	0.0000000E+000	0.0000000E+000	41.6186	1.12559	48.3814	-0.000133351
10.016	360.97	277.288	455.179	-37.5306	1125.29	-0.000231244	-0.450504	57.3051	21.2663	3	40	0.00661363	1.45297e-05	0	-0.0980764	1.68699	0.951619	32.5728	4.48902e-05	2.6565e-05	4.11199e-05	5.51001e-05	2.64437e-05	5.31746e-05	2.12904	7.79866	20.0112	2.05766e-07	9.31125e-08	1.33831e-07	9.38172e-08	6.20946e-08	6.95572e-08	0.00174224	0.00133834	0.00219694	37.5306	21266.3	27684.1	34909.4	-52.4694	0.0000000E+000	0.0000000E+000	0.0000000E+000	52.4694	0.0000000E+000	0.0000000E+000	0.0000000E+000	-52.4694	0.0000000E+000	0.0000000E+000	0.0000000E+000	-37.5306	0.0000000E+000	0.0000000E+000	0.0000000E+000	37.5306	1.30179	52.4694	-0.000132633
5.01766	451.29	382.925	591.857	-40.315	1129.5	-0.000225384	-0.454656	82.8334	34.6736	3	40	0.00659093	1.1136e-05	0	-0.0986002	1.07105	0.527889	18.02	3.0934e-05	2.45606e-05	1.8358e-05	2.67345e-05	3.72013e-05	2.18547e-05	3.28997	6.62211	14.5314	3.05745e-07	1.42328e-07	4.07003e-08	4.14776e-08	6.42808e-08	5.10761e-08	0.00128832	0.00109315	0.0016896	40.315	34673.6	40864.1	53592.3	-49.685	0.0000000E+000	0.0000000E+000	0.0000000E+000	49.685	0.0000000E+000	0.0000000E+000	0.0000000E+000	-49.685	0.0000000E+000	0.0000000E+000	0.0000000E+000	-40.315	0.0000000E+000	0.0000000E+000	0.0000000E+000	40.315	1.17853	49.685	-0.00020218
2.51368	700.374	424.224	818.834	-31.2037	1136.52	-0.000217655	-0.453261	149.251	40.0602	3	40	0.00658592	8.04305e-06	0	-0.0994806	0.714127	0.459916	13.0263	9.04599e-06	2.06669e-05	1.73107e-05	1.97469e-05	5.95768e-06	2.44396e-05	5.76552	14.6147	15.2839	3.16428e-07	1.58589e-07	1.78679e-07	1.30738e-07	1.11786e-07	7.5879e-08	0.00104457	0.000632707	0.00122125	31.2037	40060.2	66137.6	77324.1	-58.7963	0.0000000E+000	0.0000000E+000	0.0000000E+000	58.7963	0.0000000E+000	0.0000000E+000	0.0000000E+000	-58.7963	0.0000000E+000	0.0000000E+000	0.0000000E+000	-31.2037	0.0000000E+000	0.0000000E+000	0.0000000E+000	31.2037	1.65096	58.7963	-0.000351312
1.25968	1003.48	380.994	1073.37	-20.7904	1149.36	-0.000202023	-0.452729	331.622	41.7811	3	40	0.00659517	6.14436e-06	0	-0.101091	0.480645	0.210811	9.01092	7.40065e-06	6.53746e-06	1.72627e-05	1.28403e-05	1.55662e-05	1.04145e-05	13.6567	22.0924	19.2873	5.85476e-07	1.69492e-07	3.39895e-07	1.96241e-07	1.92583e-07	1.69435e-07	0.000870981	0.000330688	0.000931646	20.7904	41781.1	110045	117710	-69.2096	0.0000000E+000	0.0000000E+000	0.0000000E+000	69.2096	0.0000000E+000	0.0000000E+000	0.0000000E+000	-69.2096	0.0000000E+000	0.0000000E+000	0.0000000E+000	-20.7904	0.0000000E+000	0.0000000E+000	0.0000000E+000	20.7904	2.63384	69.2096	-0.000653388
0.631645	1133.09	273.545	1165.64	-13.5724	1173.82	-0.000202266	-0.4527	921.126	50.728	3	40	0.00658817	5.65198e-06	0	-0.10416	0.353935	0.16753	5.96526	1.20339e-05	6.22414e-06	8.61089e-06	3.40568e-06	1.11031e-05	4.49105e-06	19.1256	16.1714	25.0307	5.03175e-07	5.38663e-07	2.26564e-07	5.09123e-07	3.02124e-07	2.07236e-07	0.000833941	0.000201326	0.000857899	13.5724	50728	210127	216164	-76.4276	0.0000000E+000	0.0000000E+000	0.0000000E+000	76.4276	0.0000000E+000	0.0000000E+000	0.0000000E+000	-76.4276	0.0000000E+000	0.0000000E+000	0.0000000E+000	-13.5724	0.0000000E+000	0.0000000E+000	0.0000000E+000	13.5724	4.14224	76.4276	-0.00125391
0.316193	1194.15	142.253	1202.59	-6.79337	1221.59	-0.00021364	-0.451503	3538.4	49.5103	3	40	0.00659054	5.4803e-06	0	-0.110149	0.279102	0.110086	4.39488	5.30543e-06	7.70406e-06	7.80867e-06	6.41019e-06	6.95082e-06	6.409e-06	19.5897	15.4869	29.6702	6.78453e-07	4.63127e-07	2.46776e-07	2.03598e-07	2.68342e-07	4.11897e-07	0.000825702	9.8362e-05	0.00083154	6.79337	49510.3	415615	418553	-83.2066	0.0000000E+000	0.0000000E+000	0.0000000E+000	83.2066	0.0000000E+000	0.0000000E+000	0.0000000E+000	-83.2066	0.0000000E+000	0.0000000E+000	0.0000000E+000	-6.79337	0.0000000E+000	0.0000000E+000	0.0000000E+000	6.79337	8.39452	83.2066	-0.00245915
0.158419	1226.84	129.505	1233.66	-6.02578	1315.97	-0.000214277	-0.449571	7757.61	85.4886	3	40	0.00658647	5.33897e-06	0	-0.121951	0.206865	0.0709537	3.13896	5.39653e-06	5.9315e-06	6.0332e-06	5.92633e-06	4.39884e-06	3.12629e-06	14.956	6.27953	34.4699	3.86141e-07	2.09304e-07	3.64657e-07	3.56628e-07	2.52447e-07	2.08171e-07	0.000806117	8.50931e-05	0.000810596	6.02578	85488.6	809863	814363	-83.9742	0.0000000E+000	0.0000000E+000	0.0000000E+000	83.9742	0.0000000E+000	0.0000000E+000	0.0000000E+000	-83.9742	0.0000000E+000	0.0000000E+000	0.0000000E+000	-6.02578	0.0000000E+000	0.0000000E+000	0.0000000E+000	6.02578	9.47335	83.9742	-0.00485064
0.0999518	1227.39	51.0567	1228.45	-2.38201	1426.17	-0.000211045	-0.447434	31187.2	53.8726	3	40	0.00658569	5.36098e-06	0	-0.135662	0.207218	0.10771	2.57112	4.25615e-06	9.02554e-06	4.04129e-06	4.19952e-06	3.64687e-06	3.36304e-06	12.9652	8.05302	33.108	2.4675e-07	1.95669e-07	1.68909e-07	3.52978e-07	1.85752e-07	3.87387e-07	0.000813331	3.38329e-05	0.000814035	2.38201	53872.7	1.29508e+06	1.2962e+06	-87.618	0.0000000E+000	0.0000000E+000	0.0000000E+000	87.618	0.0000000E+000	0.0000000E+000	0.0000000E+000	-87.618	0.0000000E+000	0.0000000E+000	0.0000000E+000	-2.38201	0.0000000E+000	0.0000000E+000	0.0000000E+000	2.38201	24.0397	87.618	-0.00763041