File: Python/Data/RDE/240223-OCV-EIS-Fe2Fe3_5mM-HCl1M-0RPM-Ag_AgCl_BLF8-GC-RDE-1minRestVSEoc-3ppf-14p1mVAmplitude_02_PEIS_C15.mpt
EC-Lab ASCII FILE
Nb header lines : 67

Potentio Electrochemical Impedance Spectroscopy

Run on channel : 15 (SN 19485)
User :
Electrode connection : standard
Potential control : Ewe
Ewe ctrl range : min = -1.00 V, max = 1.00 V
Ewe,I filtering : 50 kHz
Safety Limits :
	Do not start on E overload
Channel : Floating
Acquisition started on : 02/23/2024 16:29:27.631
Loaded Setting File :  NONE
Saved on :
	File : 240223-OCV-EIS-Fe2Fe3_5mM-HCl1M-0RPM-Ag_AgCl_BLF8-GC-RDE-1minRestVSEoc-3ppf-14p1mVAmplitude_02_PEIS_C15.mpr
	Directory : C:\Data\mathias\RDE-RPM-variation\
	Host : 192.168.0.1
Device : VMP-300 (SN 0826)
Address : USB
EC-Lab for windows v11.52 (software)
Internet server v11.52 (firmware)
Command interpretor v11.52 (firmware)
Electrode material :
Initial state :
Electrolyte :
Comments :
Cable : special
Reference electrode : SCE Saturated Calomel Electrode (0.241 V)
Electrode surface area : 0.001 cm²
Characteristic mass : 0.001 g
Equivalent Weight : 0.000 g/eq.
Density : 0.000 g/cm3
Volume (V) : 0.001 cm³
Record EIS quality indicators
Cycle Definition : Charge/Discharge alternance
Mode                Single sine
E (V)               0.0000
vs.                 Eoc
tE (h:m:s)          0:01:0.0000
record              0
dI                  0.000
unit dI             mA
dt (s)              0.000
fi                  1.000
unit fi             MHz
ff                  100.000
unit ff             mHz
Nd                  10
Points              per decade
spacing             Logarithmic
Va (mV)             14.1
pw                  0.10
Na                  3
corr                0
E range min (V)     -1.000
E range max (V)     1.000
I Range             Auto
Bandwidth           8
nc cycles           0
goto Ns'            0
nr cycles           0
inc. cycle          1

freq/Hz	Re(Z)/Ohm	-Im(Z)/Ohm	|Z|/Ohm	Phase(Z)/deg	time/s	<Ewe>/V	<I>/mA	Cs/µF	Cp/µF	cycle number	I Range	|Ewe|/V	|I|/A	Ns	(Q-Qo)/mA.h	THD Ewe/%	NSD Ewe/%	NSR Ewe/%	|Ewe h2|/V	|Ewe h3|/V	|Ewe h4|/V	|Ewe h5|/V	|Ewe h6|/V	|Ewe h7|/V	THD I/%	NSD I/%	NSR I/%	|I h2|/A	|I h3|/A	|I h4|/A	|I h5|/A	|I h6|/A	|I h7|/A	Re(Y)/Ohm-1	Im(Y)/Ohm-1	|Y|/Ohm-1	Phase(Y)/deg	Re(C)/nF	Im(C)/nF	|C|/nF	Phase(C)/deg	Re(M)	Im(M)	|M|	Phase(M)/deg	Re(Permittivity)	Im(Permittivity)	|Permittivity|	Phase(Permittivity)/deg	Re(Resistivity)/Ohm.cm	Im(Resistivity)/Ohm.cm	|Resistivity|/Ohm.cm	Phase(Resistivity)/deg	Re(Conductivity)/mS/cm	Im(Conductivity)/mS/cm	|Conductivity|/mS/cm	Phase(Conductivity)/deg	Tan(Delta)	Loss Angle(Delta)/deg	dq/mA.h
1.00002e+06	3.50734	4.09176	5.38924	-49.3978	123.187	0.459442	-0.0112166	0.0388958	0.0224216	1	38	0.0111413	0.00206733	0	-3.10571e-06	-1	-1	-1	0	0	0	0	0	0	-1	-1	-1	0	0	0	0	0	0	0.12076	0.140882	0.185555	49.3978	22.4216	19.2192	29.5315	-40.6022	0.0000000E+000	0.0000000E+000	0.0000000E+000	40.6022	0.0000000E+000	0.0000000E+000	0.0000000E+000	-40.6022	0.0000000E+000	0.0000000E+000	0.0000000E+000	-49.3978	0.0000000E+000	0.0000000E+000	0.0000000E+000	49.3978	0.857171	40.6022	-3.10571e-06
794333	3.55592	3.20298	4.78577	-42.0108	124.199	0.45944	-0.00205768	0.0625553	0.02802	1	38	0.0138935	0.00290309	0	-1.40642e-06	-1	-1	-1	0	0	0	0	0	0	-1	-1	-1	0	0	0	0	0	0	0.155256	0.139846	0.208953	42.0108	28.02	31.1075	41.8664	-47.9892	0.0000000E+000	0.0000000E+000	0.0000000E+000	47.9892	0.0000000E+000	0.0000000E+000	0.0000000E+000	-47.9892	0.0000000E+000	0.0000000E+000	0.0000000E+000	-42.0108	0.0000000E+000	0.0000000E+000	0.0000000E+000	42.0108	1.11019	47.9892	1.69929e-06
630957	3.53649	2.50997	4.33667	-35.3646	125.346	0.459431	-0.00162195	0.100497	0.0336648	1	38	0.0144398	0.00332969	0	-3.65121e-06	-1	-1	-1	0	0	0	0	0	0	-1	-1	-1	0	0	0	0	0	0	0.188044	0.133461	0.230592	35.3646	33.6648	47.433	58.1653	-54.6354	0.0000000E+000	0.0000000E+000	0.0000000E+000	54.6354	0.0000000E+000	0.0000000E+000	0.0000000E+000	-54.6354	0.0000000E+000	0.0000000E+000	0.0000000E+000	-35.3646	0.0000000E+000	0.0000000E+000	0.0000000E+000	35.3646	1.40898	54.6354	-2.24478e-06
501206	3.50346	2.00809	4.03815	-29.8201	126.494	0.459391	-0.00151209	0.158132	0.039104	1	38	0.0145343	0.00359925	0	-8.49306e-06	-1	-1	-1	0	0	0	0	0	0	-1	-1	-1	0	0	0	0	0	0	0.214848	0.123145	0.247638	29.8201	39.104	68.2238	78.6359	-60.1799	0.0000000E+000	0.0000000E+000	0.0000000E+000	60.1799	0.0000000E+000	0.0000000E+000	0.0000000E+000	-60.1799	0.0000000E+000	0.0000000E+000	0.0000000E+000	-29.8201	0.0000000E+000	0.0000000E+000	0.0000000E+000	29.8201	1.74468	60.1799	-4.84186e-06
398103	3.46204	1.62725	3.82539	-25.1748	127.641	0.459411	-0.00153815	0.24568	0.0444556	1	38	0.0145783	0.00381093	0	6.19753e-07	-1	-1	-1	0	0	0	0	0	0	-1	-1	-1	0	0	0	0	0	0	0.236581	0.111199	0.261411	25.1748	44.4556	94.5809	104.508	-64.8252	0.0000000E+000	0.0000000E+000	0.0000000E+000	64.8252	0.0000000E+000	0.0000000E+000	0.0000000E+000	-64.8252	0.0000000E+000	0.0000000E+000	0.0000000E+000	-25.1748	0.0000000E+000	0.0000000E+000	0.0000000E+000	25.1748	2.12754	64.8252	9.11282e-06
316230	3.43058	1.35243	3.68754	-21.5158	128.787	0.459432	-0.00175041	0.372135	0.0500563	1	38	0.0145551	0.00394709	0	-5.71497e-06	-1	-1	-1	0	0	0	0	0	0	-1	-1	-1	0	0	0	0	0	0	0.252286	0.0994585	0.271183	21.5158	50.0563	126.973	136.483	-68.4842	0.0000000E+000	0.0000000E+000	0.0000000E+000	68.4842	0.0000000E+000	0.0000000E+000	0.0000000E+000	-68.4842	0.0000000E+000	0.0000000E+000	0.0000000E+000	-21.5158	0.0000000E+000	0.0000000E+000	0.0000000E+000	21.5158	2.5366	68.4842	-6.33473e-06
251188	3.40511	1.17185	3.60111	-18.9906	129.934	0.459399	-0.00202225	0.540694	0.0572558	1	38	0.0145318	0.00403537	0	-8.85815e-06	-1	-1	-1	0	0	0	0	0	0	-1	-1	-1	0	0	0	0	0	0	0.262578	0.0903645	0.277692	18.9906	57.2559	166.372	175.949	-71.0094	0.0000000E+000	0.0000000E+000	0.0000000E+000	71.0094	0.0000000E+000	0.0000000E+000	0.0000000E+000	-71.0094	0.0000000E+000	0.0000000E+000	0.0000000E+000	-18.9906	0.0000000E+000	0.0000000E+000	0.0000000E+000	18.9906	2.90577	71.0094	-3.14317e-06
199544	3.39492	1.05603	3.55537	-17.2789	131.082	0.459429	-0.00278564	0.755279	0.0666327	1	38	0.0145374	0.00408886	0	-1.0263e-05	-1	-1	-1	0	0	0	0	0	0	-1	-1	-1	0	0	0	0	0	0	0.268571	0.083542	0.281265	17.2789	66.6327	214.211	224.335	-72.7211	0.0000000E+000	0.0000000E+000	0.0000000E+000	72.7211	0.0000000E+000	0.0000000E+000	0.0000000E+000	-72.7211	0.0000000E+000	0.0000000E+000	0.0000000E+000	-17.2789	0.0000000E+000	0.0000000E+000	0.0000000E+000	17.2789	3.2148	72.7211	-1.40484e-06
158486	3.39226	1.00213	3.53718	-16.458	132.229	0.459425	-0.00239464	1.00209	0.0804337	1	38	0.0145856	0.00412351	0	-1.37794e-05	-1	-1	-1	0	0	0	0	0	0	-1	-1	-1	0	0	0	0	0	0	0.271127	0.0800957	0.282711	16.458	80.4337	272.272	283.904	-73.542	0.0000000E+000	0.0000000E+000	0.0000000E+000	73.542	0.0000000E+000	0.0000000E+000	0.0000000E+000	-73.542	0.0000000E+000	0.0000000E+000	0.0000000E+000	-16.458	0.0000000E+000	0.0000000E+000	0.0000000E+000	16.458	3.38504	73.542	-3.51644e-06
125909	3.38663	1.00662	3.53307	-16.5537	133.376	0.459407	-0.00259759	1.25573	0.101935	1	38	0.0145405	0.00411554	0	-2.33564e-06	-1	-1	-1	0	0	0	0	0	0	-1	-1	-1	0	0	0	0	0	0	0.271309	0.0806421	0.28304	16.5537	101.935	342.947	357.775	-73.4463	0.0000000E+000	0.0000000E+000	0.0000000E+000	73.4463	0.0000000E+000	0.0000000E+000	0.0000000E+000	-73.4463	0.0000000E+000	0.0000000E+000	0.0000000E+000	-16.5537	0.0000000E+000	0.0000000E+000	0.0000000E+000	16.5537	3.36436	73.4463	1.14438e-05
100004	3.40269	1.05444	3.56232	-17.2173	134.523	0.459414	-0.0018826	1.50933	0.132239	1	38	0.0145763	0.00409181	0	-8.37141e-06	0.542702	0.303747	8.9641	2.77022e-05	3.723e-05	3.2378e-05	2.10419e-05	2.98723e-05	3.17931e-05	0.0738089	0.0324956	0.702422	2.26119e-06	1.17848e-06	8.45543e-07	3.39744e-07	7.23726e-07	9.02536e-07	0.268137	0.083091	0.280716	17.2173	132.239	426.737	446.757	-72.7827	0.0000000E+000	0.0000000E+000	0.0000000E+000	72.7827	0.0000000E+000	0.0000000E+000	0.0000000E+000	-72.7827	0.0000000E+000	0.0000000E+000	0.0000000E+000	-17.2173	0.0000000E+000	0.0000000E+000	0.0000000E+000	17.2173	3.22702	72.7827	-6.03577e-06
79433.3	3.42015	1.15286	3.60922	-18.6279	135.67	0.459425	-0.00252311	1.73796	0.177324	1	38	0.0145852	0.00404108	0	-6.23695e-06	0.469592	0.17377	9.25681	2.80922e-05	1.72376e-05	3.35893e-05	1.6594e-05	3.13515e-05	2.47582e-05	0.059608	0.0214384	0.705177	1.51459e-06	1.02649e-06	8.43054e-07	4.72885e-07	8.36157e-07	2.26237e-07	0.262553	0.0885012	0.277068	18.6279	177.324	526.059	555.142	-71.3721	0.0000000E+000	0.0000000E+000	0.0000000E+000	71.3721	0.0000000E+000	0.0000000E+000	0.0000000E+000	-71.3721	0.0000000E+000	0.0000000E+000	0.0000000E+000	-18.6279	0.0000000E+000	0.0000000E+000	0.0000000E+000	18.6279	2.96666	71.3721	2.13446e-06
63093.8	3.44978	1.30694	3.68905	-20.7491	136.817	0.4594	-0.00218425	1.93009	0.242249	1	38	0.0145834	0.00395316	0	-2.34833e-06	0.51574	0.282343	9.17379	3.02686e-05	2.90681e-05	3.23688e-05	2.26309e-05	2.87779e-05	3.22152e-05	0.058343	0.029967	0.730303	1.0826e-06	1.29227e-06	5.66919e-07	4.11149e-07	1.03883e-06	7.47121e-07	0.253491	0.0960347	0.271073	20.7491	242.249	639.435	683.784	-69.2509	0.0000000E+000	0.0000000E+000	0.0000000E+000	69.2509	0.0000000E+000	0.0000000E+000	0.0000000E+000	-69.2509	0.0000000E+000	0.0000000E+000	0.0000000E+000	-20.7491	0.0000000E+000	0.0000000E+000	0.0000000E+000	20.7491	2.63958	69.2509	3.88862e-06
50122.5	3.48143	1.52329	3.8001	-23.6316	137.965	0.459406	-0.00238161	2.08452	0.33495	1	38	0.0146061	0.00384361	0	-1.06356e-06	0.507689	0.177891	9.2665	1.69044e-05	3.47248e-05	3.28219e-05	2.70194e-05	3.39371e-05	2.74389e-05	0.0638237	0.0258478	0.759454	1.34188e-06	1.1547e-06	6.1556e-07	7.16288e-07	6.66762e-07	1.09076e-06	0.241084	0.105485	0.263151	23.6316	334.95	765.518	835.589	-66.3684	0.0000000E+000	0.0000000E+000	0.0000000E+000	66.3684	0.0000000E+000	0.0000000E+000	0.0000000E+000	-66.3684	0.0000000E+000	0.0000000E+000	0.0000000E+000	-23.6316	0.0000000E+000	0.0000000E+000	0.0000000E+000	23.6316	2.28547	66.3684	1.28476e-06
39814.1	3.53374	1.80976	3.97021	-27.1187	139.112	0.459412	-0.0024263	2.20883	0.458965	1	38	0.0146437	0.00368839	0	-7.52751e-06	0.4034	0.222687	9.01465	2.07947e-05	3.37651e-05	2.02491e-05	1.75642e-05	2.16259e-05	1.43008e-05	0.0561129	0.0576445	0.780727	5.07279e-07	1.1759e-06	2.58619e-07	6.79119e-07	1.02314e-06	8.10634e-07	0.224186	0.114814	0.251876	27.1187	458.965	896.172	1006.86	-62.8812	0.0000000E+000	0.0000000E+000	0.0000000E+000	62.8812	0.0000000E+000	0.0000000E+000	0.0000000E+000	-62.8812	0.0000000E+000	0.0000000E+000	0.0000000E+000	-27.1187	0.0000000E+000	0.0000000E+000	0.0000000E+000	27.1187	1.9526	62.8812	-6.46395e-06
31621.1	3.58304	2.17218	4.19005	-31.2258	140.259	0.459393	-0.00209674	2.31711	0.622728	1	38	0.0146479	0.00349588	0	-1.15337e-06	0.452472	0.170165	9.07961	3.55783e-05	2.59301e-05	2.44891e-05	2.22271e-05	2.46353e-05	2.06129e-05	0.0579312	0.0484317	0.831173	3.40406e-07	1.14397e-06	1.04099e-06	1.01502e-06	4.05649e-07	5.00284e-07	0.204086	0.123725	0.23866	31.2258	622.728	1027.2	1201.22	-58.7742	0.0000000E+000	0.0000000E+000	0.0000000E+000	58.7742	0.0000000E+000	0.0000000E+000	0.0000000E+000	-58.7742	0.0000000E+000	0.0000000E+000	0.0000000E+000	-31.2258	0.0000000E+000	0.0000000E+000	0.0000000E+000	31.2258	1.64952	58.7742	6.37414e-06
25116.9	3.64808	2.63011	4.49733	-35.79	141.406	0.4594	-0.00306868	2.40924	0.823983	1	38	0.0147021	0.00326908	0	-2.90927e-06	0.399251	0.295854	8.99177	1.86143e-05	1.28957e-05	1.95775e-05	2.89418e-05	2.57942e-05	2.39695e-05	0.0729455	0.0531415	0.890078	1.10915e-06	1.19686e-06	1.00535e-06	6.85238e-07	7.58133e-07	7.09354e-07	0.180366	0.130036	0.222354	35.79	823.983	1142.9	1408.96	-54.21	0.0000000E+000	0.0000000E+000	0.0000000E+000	54.21	0.0000000E+000	0.0000000E+000	0.0000000E+000	-54.21	0.0000000E+000	0.0000000E+000	0.0000000E+000	-35.79	0.0000000E+000	0.0000000E+000	0.0000000E+000	35.79	1.38705	54.21	-1.75589e-06
19948.8	3.74461	3.21167	4.93324	-40.6189	142.553	0.459403	-0.00251199	2.48412	1.05286	1	38	0.0147426	0.00298842	0	-9.52173e-06	0.574455	0.217246	8.99381	3.51689e-05	1.19765e-05	5.53128e-05	2.60277e-05	1.88649e-05	3.17745e-05	0.0675086	0.0546529	0.961462	1.09094e-06	6.30042e-07	8.35483e-07	7.35929e-07	4.33953e-07	7.93213e-07	0.153865	0.131967	0.202706	40.6189	1052.86	1227.57	1617.23	-49.3811	0.0000000E+000	0.0000000E+000	0.0000000E+000	49.3811	0.0000000E+000	0.0000000E+000	0.0000000E+000	-49.3811	0.0000000E+000	0.0000000E+000	0.0000000E+000	-40.6189	0.0000000E+000	0.0000000E+000	0.0000000E+000	40.6189	1.16594	49.381	-6.61247e-06
15847.7	3.85622	3.92616	5.5032	-45.5149	143.701	0.459408	-0.00162943	2.55791	1.30194	1	38	0.0147959	0.00268861	0	-6.89451e-06	0.406342	0.291181	8.97514	2.92098e-05	1.57898e-05	2.14399e-05	1.57484e-05	2.73691e-05	2.14785e-05	0.103128	0.0322992	1.07688	2.31955e-06	9.42308e-07	2.99056e-07	7.66003e-07	2.82211e-07	6.1213e-07	0.12733	0.12964	0.181712	45.5149	1301.94	1278.75	1824.9	-44.4851	0.0000000E+000	0.0000000E+000	0.0000000E+000	44.4851	0.0000000E+000	0.0000000E+000	0.0000000E+000	-44.4851	0.0000000E+000	0.0000000E+000	0.0000000E+000	-45.5149	0.0000000E+000	0.0000000E+000	0.0000000E+000	45.5149	0.982186	44.4851	2.62722e-06
12590.9	4.00122	4.82544	6.26854	-50.3348	144.848	0.459409	-0.00276336	2.61954	1.55227	1	38	0.0148798	0.00237372	0	-7.5409e-06	0.578592	0.315879	8.77876	3.87609e-05	4.28374e-05	3.97977e-05	2.62902e-05	2.26759e-05	2.51135e-05	0.166114	0.0392198	1.22289	3.33446e-06	1.42773e-06	1.01289e-06	7.12987e-07	3.98418e-07	4.64765e-07	0.101826	0.122802	0.159527	50.3348	1552.27	1287.13	2016.49	-39.6652	0.0000000E+000	0.0000000E+000	0.0000000E+000	39.6652	0.0000000E+000	0.0000000E+000	0.0000000E+000	-39.6652	0.0000000E+000	0.0000000E+000	0.0000000E+000	-50.3348	0.0000000E+000	0.0000000E+000	0.0000000E+000	50.3348	0.829192	39.6653	-6.4639e-07
10002.2	4.19755	5.92795	7.26361	-54.6979	145.995	0.459421	-0.00203163	2.68423	1.78782	1	38	0.0144654	0.00199149	0	-6.74057e-06	0.479272	0.235453	9.31179	3.83667e-05	2.21285e-05	2.92373e-05	1.55462e-05	1.80049e-05	2.49275e-05	0.222462	0.0548762	1.45296	4.1108e-06	8.43262e-07	8.19675e-07	8.36843e-07	3.74403e-07	5.36966e-07	0.0795593	0.112357	0.137673	54.6979	1787.82	1265.94	2190.64	-35.3021	0.0000000E+000	0.0000000E+000	0.0000000E+000	35.3021	0.0000000E+000	0.0000000E+000	0.0000000E+000	-35.3021	0.0000000E+000	0.0000000E+000	0.0000000E+000	-54.6979	0.0000000E+000	0.0000000E+000	0.0000000E+000	54.6979	0.708095	35.3021	8.00332e-07
7944	4.437	7.29341	8.53702	-58.6854	147.171	0.459256	-0.00296073	2.74695	2.00493	1	38	0.0145578	0.00170526	0	-9.68014e-06	0.577434	0.269239	8.95881	4.53107e-05	2.70896e-05	2.20222e-05	1.9539e-05	4.396e-05	2.26044e-05	0.32431	0.0404715	1.70664	5.37079e-06	6.54857e-07	3.46837e-07	2.72078e-07	3.139e-07	8.66879e-07	0.0608803	0.100073	0.117137	58.6854	2004.93	1219.71	2346.79	-31.3146	0.0000000E+000	0.0000000E+000	0.0000000E+000	31.3146	0.0000000E+000	0.0000000E+000	0.0000000E+000	-31.3146	0.0000000E+000	0.0000000E+000	0.0000000E+000	-58.6854	0.0000000E+000	0.0000000E+000	0.0000000E+000	58.6854	0.608358	31.3146	-2.93957e-06
6307.74	4.75449	8.97951	10.1606	-62.0996	148.223	0.45932	-0.00193296	2.80992	2.19465	1	38	0.014357	0.00141301	0	-1.14338e-05	0.579021	0.237801	9.39545	4.18029e-05	2.17332e-05	4.06766e-05	3.08439e-05	1.99289e-05	3.18174e-05	0.466915	0.050302	2.06134	6.31024e-06	9.07628e-07	8.04187e-07	7.53756e-07	4.22141e-07	6.78319e-07	0.0460542	0.0869798	0.0984199	62.0996	2194.65	1162.03	2483.3	-27.9004	0.0000000E+000	0.0000000E+000	0.0000000E+000	27.9004	0.0000000E+000	0.0000000E+000	0.0000000E+000	-27.9004	0.0000000E+000	0.0000000E+000	0.0000000E+000	-62.0996	0.0000000E+000	0.0000000E+000	0.0000000E+000	62.0996	0.529482	27.9004	-1.75369e-06
5011.6	5.15737	11.0123	12.1602	-64.905	149.342	0.459287	-0.00323073	2.8838	2.36507	1	38	0.0136155	0.00111968	0	-1.13908e-05	0.618864	0.24104	9.79354	6.26976e-05	2.20984e-05	8.18096e-06	2.50986e-05	9.07794e-06	3.81151e-05	0.640604	0.0673461	2.62673	6.96244e-06	9.60863e-07	7.7576e-07	9.23432e-07	3.23041e-07	5.17873e-07	0.0348778	0.0744732	0.0822357	64.905	2365.07	1107.63	2611.58	-25.095	0.0000000E+000	0.0000000E+000	0.0000000E+000	25.095	0.0000000E+000	0.0000000E+000	0.0000000E+000	-25.095	0.0000000E+000	0.0000000E+000	0.0000000E+000	-64.905	0.0000000E+000	0.0000000E+000	0.0000000E+000	64.905	0.468328	25.095	4.3051e-08
3981.28	5.65741	13.5558	14.689	-67.3472	150.448	0.459319	-0.00296448	2.94898	2.51154	1	38	0.0129666	0.000882741	0	-1.27901e-05	0.552898	0.295181	10.5234	3.47197e-05	1.11327e-05	3.52543e-05	3.33858e-05	3.05896e-05	1.34905e-05	0.781621	0.141063	3.31202	6.36465e-06	2.06204e-06	9.79911e-07	9.24393e-07	5.85725e-07	3.50241e-07	0.0262201	0.0628264	0.0680782	67.3472	2511.54	1048.17	2721.48	-22.6528	0.0000000E+000	0.0000000E+000	0.0000000E+000	22.6528	0.0000000E+000	0.0000000E+000	0.0000000E+000	-22.6528	0.0000000E+000	0.0000000E+000	0.0000000E+000	-67.3472	0.0000000E+000	0.0000000E+000	0.0000000E+000	67.3472	0.417342	22.6528	-1.39937e-06
3163.04	6.34315	16.5631	17.7362	-69.0447	151.775	0.459285	-0.00248597	3.0379	2.64934	1	38	0.0139649	0.000787366	0	-1.40765e-05	0.530806	0.287272	9.50014	4.29162e-05	3.7158e-05	1.76273e-05	2.2554e-05	2.64128e-05	1.85078e-05	0.804462	0.0977295	3.65453	5.58849e-06	2.56147e-06	7.87688e-07	8.69555e-07	6.74297e-07	3.09384e-07	0.0201644	0.0526528	0.0563819	69.0447	2649.34	1014.61	2836.98	-20.9553	0.0000000E+000	0.0000000E+000	0.0000000E+000	20.9553	0.0000000E+000	0.0000000E+000	0.0000000E+000	-20.9553	0.0000000E+000	0.0000000E+000	0.0000000E+000	-69.0447	0.0000000E+000	0.0000000E+000	0.0000000E+000	69.0447	0.382969	20.9553	-1.28633e-06
2512.41	7.23478	20.2668	21.5194	-70.3546	152.881	0.459284	-0.0028807	3.12568	2.77239	1	38	0.0135893	0.000631491	0	-1.55249e-05	0.525578	0.339419	9.69555	1.73856e-05	2.6187e-05	2.67718e-05	4.06606e-05	1.83955e-05	2.57808e-05	0.88585	0.139371	4.57343	4.59177e-06	2.69787e-06	8.53401e-07	1.06822e-06	2.53378e-07	6.60928e-07	0.015623	0.0437648	0.0464697	70.3546	2772.39	989.68	2943.74	-19.6454	0.0000000E+000	0.0000000E+000	0.0000000E+000	19.6454	0.0000000E+000	0.0000000E+000	0.0000000E+000	-19.6454	0.0000000E+000	0.0000000E+000	0.0000000E+000	-70.3546	0.0000000E+000	0.0000000E+000	0.0000000E+000	70.3546	0.356977	19.6454	-1.44839e-06
1995.64	8.29619	24.7139	26.0692	-71.4436	153.987	0.459287	-0.00370182	3.22699	2.90018	1	38	0.0133266	0.000511202	0	-1.6276e-05	0.529228	0.298996	9.96508	2.47854e-05	2.41371e-05	2.31795e-05	3.75245e-05	3.6738e-05	8.11803e-06	0.76289	0.198149	5.74142	2.96514e-06	1.99655e-06	4.53428e-07	1.14947e-06	5.82651e-07	6.1226e-07	0.0122074	0.0363652	0.0383595	71.4436	2900.18	973.56	3059.22	-18.5564	0.0000000E+000	0.0000000E+000	0.0000000E+000	18.5564	0.0000000E+000	0.0000000E+000	0.0000000E+000	-18.5564	0.0000000E+000	0.0000000E+000	0.0000000E+000	-71.4436	0.0000000E+000	0.0000000E+000	0.0000000E+000	71.4436	0.33569	18.5564	-7.51136e-07
1584.49	9.68494	30.1949	31.7101	-72.2165	155.093	0.459315	-0.00327358	3.32657	3.01626	1	38	0.0131694	0.000415308	0	-1.69625e-05	0.512028	0.388105	10.1978	3.58187e-05	2.39025e-05	2.76027e-05	1.26404e-05	1.92986e-05	3.20273e-05	0.896832	0.229541	7.04131	2.63905e-06	1.41215e-06	8.29525e-07	1.59822e-06	7.95975e-07	7.15779e-07	0.0096317	0.0300289	0.0315357	72.2165	3016.26	967.46	3167.62	-17.7835	0.0000000E+000	0.0000000E+000	0.0000000E+000	17.7835	0.0000000E+000	0.0000000E+000	0.0000000E+000	-17.7835	0.0000000E+000	0.0000000E+000	0.0000000E+000	-72.2165	0.0000000E+000	0.0000000E+000	0.0000000E+000	72.2165	0.320748	17.7835	-6.86528e-07
1258.79	11.3982	36.9115	38.6313	-72.8394	156.452	0.459315	-0.00061768	3.42535	3.12716	1	39	0.01473	0.000381296	0	-1.69725e-05	0.578056	0.337696	8.73582	5.94226e-05	4.04955e-05	2.63419e-05	2.60771e-05	2.11019e-05	1.10333e-05	1.33725	0.114558	3.4961	4.493e-06	2.25793e-06	2.96888e-07	6.18401e-07	2.43479e-07	2.83563e-07	0.00763762	0.0247334	0.0258858	72.8394	3127.16	965.66	3272.86	-17.1606	0.0000000E+000	0.0000000E+000	0.0000000E+000	17.1606	0.0000000E+000	0.0000000E+000	0.0000000E+000	-17.1606	0.0000000E+000	0.0000000E+000	0.0000000E+000	-72.8394	0.0000000E+000	0.0000000E+000	0.0000000E+000	72.8394	0.308798	17.1606	-9.93949e-09
999.682	13.5715	44.9442	46.9486	-73.1976	157.559	0.459281	-0.000493555	3.54229	3.24629	1	39	0.0140496	0.000299254	0	-1.69588e-05	0.588065	0.259951	9.19636	3.38823e-05	2.67105e-05	2.9009e-05	2.93587e-05	1.34516e-05	3.35621e-05	1.21973	0.137881	4.47937	3.03263e-06	1.83158e-06	2.48487e-07	7.42359e-07	6.81164e-08	3.48053e-07	0.00615719	0.0203906	0.0212999	73.1976	3246.29	980.26	3391.06	-16.8024	0.0000000E+000	0.0000000E+000	0.0000000E+000	16.8024	0.0000000E+000	0.0000000E+000	0.0000000E+000	-16.8024	0.0000000E+000	0.0000000E+000	0.0000000E+000	-73.1976	0.0000000E+000	0.0000000E+000	0.0000000E+000	73.1976	0.301963	16.8024	1.3646e-08
794.239	16.3037	54.4717	56.8592	-73.3372	158.665	0.4593	-0.000687391	3.67873	3.37627	1	39	0.0136101	0.000239364	0	-1.72826e-05	0.549622	0.35635	9.35333	2.98548e-05	3.61518e-05	3.49856e-05	1.70238e-05	1.75197e-05	3.35679e-05	1.12625	0.141698	5.44654	2.0214e-06	1.27106e-06	4.25776e-07	1.10712e-06	1.91411e-07	1.6483e-07	0.00504296	0.0168488	0.0175873	73.3372	3376.27	1010.54	3524.26	-16.6628	0.0000000E+000	0.0000000E+000	0.0000000E+000	16.6628	0.0000000E+000	0.0000000E+000	0.0000000E+000	-16.6628	0.0000000E+000	0.0000000E+000	0.0000000E+000	-73.3372	0.0000000E+000	0.0000000E+000	0.0000000E+000	73.3372	0.299307	16.6628	-3.23806e-07
631.01	19.8161	66.1224	69.0279	-73.3171	159.77	0.459319	0.000246741	3.81448	3.50012	1	39	0.0133605	0.000193552	0	-1.71018e-05	0.594863	0.246924	9.6019	2.0775e-05	3.50338e-05	2.95012e-05	3.8158e-05	2.17404e-05	3.27798e-05	1.1236	0.214893	6.82277	1.61668e-06	9.55417e-07	3.08019e-07	9.09902e-07	2.18947e-07	3.53045e-07	0.00415881	0.0138771	0.0144869	73.3171	3500.12	1048.95	3653.92	-16.6829	0.0000000E+000	0.0000000E+000	0.0000000E+000	16.6829	0.0000000E+000	0.0000000E+000	0.0000000E+000	-16.6829	0.0000000E+000	0.0000000E+000	0.0000000E+000	-73.3171	0.0000000E+000	0.0000000E+000	0.0000000E+000	73.3171	0.299689	16.6829	1.80812e-07
501.122	24.3098	80.0522	83.662	-73.1078	160.875	0.459304	-7.15967e-05	3.96737	3.6324	1	39	0.0131821	0.000157564	0	-1.72245e-05	0.530931	0.228332	10.0522	2.38236e-05	2.21968e-05	1.7494e-05	2.99946e-05	3.37242e-05	3.13369e-05	1.09456	0.223462	8.89445	1.25094e-06	7.26659e-07	3.56714e-07	6.94974e-07	1.8696e-07	3.61839e-07	0.00347316	0.0114371	0.0119529	73.1078	3632.4	1103.07	3796.19	-16.8922	0.0000000E+000	0.0000000E+000	0.0000000E+000	16.8922	0.0000000E+000	0.0000000E+000	0.0000000E+000	-16.8922	0.0000000E+000	0.0000000E+000	0.0000000E+000	-73.1078	0.0000000E+000	0.0000000E+000	0.0000000E+000	73.1078	0.303674	16.8922	-1.22697e-07
398.089	29.5997	96.7687	101.194	-72.9921	161.983	0.459328	-0.000211009	4.13148	3.77799	1	39	0.0130691	0.000129149	0	-1.72772e-05	0.575004	0.325309	9.88434	1.95907e-05	3.15878e-05	3.17409e-05	3.49689e-05	3.58177e-05	2.3326e-05	1.00869	0.322467	10.4394	1.02352e-06	4.49894e-07	2.32648e-07	4.72974e-07	2.31635e-07	1.61603e-07	0.00289051	0.00944977	0.00988196	72.9921	3777.99	1155.62	3950.78	-17.0079	0.0000000E+000	0.0000000E+000	0.0000000E+000	17.0079	0.0000000E+000	0.0000000E+000	0.0000000E+000	-17.0079	0.0000000E+000	0.0000000E+000	0.0000000E+000	-72.9921	0.0000000E+000	0.0000000E+000	0.0000000E+000	72.9921	0.305881	17.0079	-5.26859e-08
316.316	36.3637	116.57	122.11	-72.6748	163.087	0.459329	-0.000183052	4.31631	3.93353	1	39	0.0129888	0.000106369	0	-1.72932e-05	0.559258	0.293208	10.0323	2.36371e-05	1.62914e-05	1.45144e-05	4.02818e-05	3.83784e-05	2.40896e-05	1.17355	0.360617	12.61	9.06251e-07	4.48691e-07	2.04656e-07	4.91007e-07	2.85036e-07	3.04765e-07	0.00243874	0.00781778	0.00818933	72.6748	3933.53	1227.05	4120.48	-17.3252	0.0000000E+000	0.0000000E+000	0.0000000E+000	17.3252	0.0000000E+000	0.0000000E+000	0.0000000E+000	-17.3252	0.0000000E+000	0.0000000E+000	0.0000000E+000	-72.6748	0.0000000E+000	0.0000000E+000	0.0000000E+000	72.6748	0.311947	17.3252	-1.5948e-08
251.206	45.6023	140.988	148.18	-72.0763	164.192	0.459311	-0.000231884	4.49374	4.06814	1	39	0.0129572	8.74428e-05	0	-1.72581e-05	0.518061	0.318327	10.1136	1.54096e-05	1.63353e-05	4.06659e-05	1.86884e-05	2.32126e-05	2.75344e-05	1.01187	0.476974	15.3158	4.72012e-07	4.18739e-07	3.64008e-07	2.28799e-07	2.30407e-07	3.0091e-07	0.00207687	0.00642104	0.00674857	72.0763	4068.14	1315.83	4275.64	-17.9237	0.0000000E+000	0.0000000E+000	0.0000000E+000	17.9237	0.0000000E+000	0.0000000E+000	0.0000000E+000	-17.9237	0.0000000E+000	0.0000000E+000	0.0000000E+000	-72.0763	0.0000000E+000	0.0000000E+000	0.0000000E+000	72.0763	0.323448	17.9237	3.50157e-08
199.553	55.6423	169.515	178.413	-71.8278	165.301	0.459325	-0.000274939	4.70493	4.24731	1	39	0.0129229	7.24326e-05	0	-1.74547e-05	0.46709	0.343691	10.0373	1.61699e-05	3.28021e-05	1.70323e-05	3.19358e-05	1.61158e-05	2.13671e-05	1.1824	0.618804	18.4349	5.70887e-07	4.21194e-07	1.38903e-07	2.73551e-07	1.85119e-07	2.77659e-07	0.00174804	0.00532541	0.00560496	71.8278	4247.31	1394.16	4470.27	-18.1721	0.0000000E+000	0.0000000E+000	0.0000000E+000	18.1721	0.0000000E+000	0.0000000E+000	0.0000000E+000	-18.1721	0.0000000E+000	0.0000000E+000	0.0000000E+000	-71.8278	0.0000000E+000	0.0000000E+000	0.0000000E+000	71.8278	0.328245	18.1721	-1.96541e-07
158.529	69.4823	203.105	214.661	-71.1142	166.413	0.459312	-0.000268415	4.943	4.42512	1	39	0.0129008	6.00986e-05	0	-1.75522e-05	0.472321	0.274556	9.82876	1.23657e-05	1.24944e-05	2.31939e-05	3.09387e-05	3.46204e-05	2.0689e-05	1.35954	0.636887	22.0467	4.02864e-07	3.91207e-07	2.40332e-07	2.08926e-07	2.98037e-07	2.409e-07	0.00150788	0.00440771	0.0046585	71.1142	4425.12	1513.83	4676.9	-18.8858	0.0000000E+000	0.0000000E+000	0.0000000E+000	18.8858	0.0000000E+000	0.0000000E+000	0.0000000E+000	-18.8858	0.0000000E+000	0.0000000E+000	0.0000000E+000	-71.1142	0.0000000E+000	0.0000000E+000	0.0000000E+000	71.1142	0.3421	18.8858	-9.75544e-08
125.927	85.9305	245.232	259.851	-70.6893	167.768	0.459336	-0.000104871	5.15378	4.59018	1	40	0.0132155	5.08578e-05	0	-1.75458e-05	0.917838	0.655695	15.5519	5.38285e-05	5.99661e-05	3.7884e-05	5.16287e-05	3.88186e-05	4.26142e-05	1.12343	0.200146	5.30209	4.12387e-07	2.24873e-07	5.46333e-08	2.87915e-07	8.45432e-08	7.14781e-08	0.00127262	0.00363184	0.00384836	70.6893	4590.18	1608.42	4863.82	-19.3107	0.0000000E+000	0.0000000E+000	0.0000000E+000	19.3107	0.0000000E+000	0.0000000E+000	0.0000000E+000	-19.3107	0.0000000E+000	0.0000000E+000	0.0000000E+000	-70.6893	0.0000000E+000	0.0000000E+000	0.0000000E+000	70.6893	0.350405	19.3107	6.40877e-09
99.9682	107.472	292.051	311.198	-69.7968	168.849	0.459311	-6.01107e-05	5.45129	4.80113	1	40	0.0130507	4.1937e-05	0	-1.7607e-05	0.894116	0.498975	15.5229	2.65392e-05	6.18249e-05	1.48832e-05	3.10646e-05	6.13636e-05	5.23822e-05	0.985277	0.181934	6.43834	3.08278e-07	2.02024e-07	3.24612e-08	1.52483e-07	5.22095e-08	4.95273e-08	0.00110974	0.00301568	0.00321339	69.7968	4801.13	1766.77	5115.89	-20.2032	0.0000000E+000	0.0000000E+000	0.0000000E+000	20.2032	0.0000000E+000	0.0000000E+000	0.0000000E+000	-20.2032	0.0000000E+000	0.0000000E+000	0.0000000E+000	-69.7968	0.0000000E+000	0.0000000E+000	0.0000000E+000	69.7968	0.367991	20.2032	-6.11761e-08
79.4157	133.745	350.34	375.002	-69.1053	169.92	0.45929	-4.58987e-05	5.72036	4.99273	1	40	0.0130282	3.47417e-05	0	-1.76467e-05	0.866813	0.242646	15.361	3.78062e-05	3.71722e-05	4.27885e-05	4.97345e-05	5.6429e-05	2.9874e-05	0.966027	0.120532	7.59022	2.65643e-07	1.09099e-07	5.1621e-08	1.37296e-07	6.04812e-08	4.04217e-08	0.000951067	0.00249129	0.00266666	69.1053	4992.73	1906.01	5344.17	-20.8947	0.0000000E+000	0.0000000E+000	0.0000000E+000	20.8947	0.0000000E+000	0.0000000E+000	0.0000000E+000	-20.8947	0.0000000E+000	0.0000000E+000	0.0000000E+000	-69.1053	0.0000000E+000	0.0000000E+000	0.0000000E+000	69.1053	0.381757	20.8947	-3.96735e-08
63.0823	168.82	416.708	449.606	-67.9458	171.002	0.459352	-9.68247e-05	6.05454	5.20092	1	40	0.0129735	2.88553e-05	0	-1.76749e-05	0.800532	0.420525	15.5974	3.56631e-05	5.41534e-05	2.7721e-05	4.59488e-05	4.65525e-05	1.43277e-05	0.979989	0.27103	9.19146	1.97954e-07	1.69285e-07	4.00153e-08	7.19395e-08	5.65722e-08	2.17052e-08	0.00083514	0.00206142	0.00222417	67.9458	5200.92	2107.04	5611.52	-22.0542	0.0000000E+000	0.0000000E+000	0.0000000E+000	22.0542	0.0000000E+000	0.0000000E+000	0.0000000E+000	-22.0542	0.0000000E+000	0.0000000E+000	0.0000000E+000	-67.9458	0.0000000E+000	0.0000000E+000	0.0000000E+000	67.9458	0.405128	22.0542	-2.82076e-08
50.1122	209.857	493.875	536.612	-66.9785	172.067	0.459336	-9.0771e-05	6.43071	5.44719	1	40	0.0129416	2.41172e-05	0	-1.76771e-05	0.970541	0.398018	15.2201	5.64014e-05	3.17065e-05	5.01707e-05	6.6451e-05	4.05371e-05	3.32932e-05	0.873554	0.346871	10.705	1.45832e-07	1.11867e-07	6.41933e-08	4.62609e-08	5.21002e-08	2.60293e-08	0.000728789	0.00171513	0.00186354	66.9785	5447.19	2314.61	5918.56	-23.0215	0.0000000E+000	0.0000000E+000	0.0000000E+000	23.0215	0.0000000E+000	0.0000000E+000	0.0000000E+000	-23.0215	0.0000000E+000	0.0000000E+000	0.0000000E+000	-66.9785	0.0000000E+000	0.0000000E+000	0.0000000E+000	66.9785	0.424919	23.0215	-2.23089e-09
39.8089	263.279	582.788	639.498	-65.6886	173.136	0.459354	-6.92013e-05	6.86008	5.69734	1	40	0.0129125	2.01916e-05	0	-1.77346e-05	0.963481	0.41402	15.6061	5.27318e-05	4.04174e-05	2.70897e-05	5.66552e-05	2.35087e-05	6.48306e-05	1.05028	0.387802	13.3262	1.25907e-07	5.77899e-08	4.69436e-08	1.05851e-07	2.92087e-08	8.44831e-08	0.00064378	0.00142506	0.00156373	65.6886	5697.34	2573.82	6251.74	-24.3114	0.0000000E+000	0.0000000E+000	0.0000000E+000	24.3114	0.0000000E+000	0.0000000E+000	0.0000000E+000	-24.3114	0.0000000E+000	0.0000000E+000	0.0000000E+000	-65.6886	0.0000000E+000	0.0000000E+000	0.0000000E+000	65.6886	0.451757	24.3114	-5.74435e-08
31.6296	334.144	687.83	764.698	-64.0898	174.177	0.459328	-8.74184e-05	7.31552	5.91873	1	40	0.0129209	1.68968e-05	0	-1.77803e-05	0.882308	0.417378	15.6001	3.15565e-05	5.06708e-05	4.11332e-05	4.84047e-05	3.05462e-05	4.53173e-05	0.931499	0.402257	15.709	1.2208e-07	2.25991e-08	2.96205e-08	4.74063e-08	4.05564e-08	5.85685e-08	0.000571418	0.00117625	0.00130771	64.0898	5918.73	2875.29	6580.16	-25.9102	0.0000000E+000	0.0000000E+000	0.0000000E+000	25.9102	0.0000000E+000	0.0000000E+000	0.0000000E+000	-25.9102	0.0000000E+000	0.0000000E+000	0.0000000E+000	-64.0898	0.0000000E+000	0.0000000E+000	0.0000000E+000	64.0898	0.485795	25.9102	-4.57678e-08
25.1206	416.356	798.076	900.155	-62.449	175.245	0.459304	-2.64342e-05	7.93863	6.24022	1	40	0.0128712	1.42989e-05	0	-1.78466e-05	0.785368	0.557728	16.0683	3.72042e-05	3.23185e-05	3.55425e-05	4.00422e-05	5.68046e-05	2.72485e-05	1.2452	0.843212	18.8029	1.071e-07	4.0986e-08	5.04495e-08	7.3854e-08	8.14737e-08	4.87139e-08	0.000513843	0.000984941	0.00111092	62.449	6240.22	3255.52	7038.38	-27.551	0.0000000E+000	0.0000000E+000	0.0000000E+000	27.551	0.0000000E+000	0.0000000E+000	0.0000000E+000	-27.551	0.0000000E+000	0.0000000E+000	0.0000000E+000	-62.449	0.0000000E+000	0.0000000E+000	0.0000000E+000	62.449	0.5217	27.551	-6.62576e-08
19.9553	529.86	934.244	1074.04	-60.4401	176.315	0.45933	-8.03403e-05	8.53691	6.45922	1	40	0.0129064	1.20166e-05	0	-1.7847e-05	0.85063	0.388125	15.6572	3.73845e-05	2.90624e-05	5.44039e-05	5.02921e-05	2.9055e-05	3.89107e-05	1.48835	0.669282	22.4418	9.97876e-08	6.28067e-08	8.64314e-08	6.69205e-08	3.66171e-08	4.793e-08	0.000459325	0.000809877	0.000931064	60.4401	6459.22	3663.37	7425.75	-29.5599	0.0000000E+000	0.0000000E+000	0.0000000E+000	29.5599	0.0000000E+000	0.0000000E+000	0.0000000E+000	-29.5599	0.0000000E+000	0.0000000E+000	0.0000000E+000	-60.4401	0.0000000E+000	0.0000000E+000	0.0000000E+000	60.4401	0.567154	29.5599	-4.66187e-10
15.8469	666.123	1062.45	1254	-57.9136	177.355	0.459331	-5.8994e-05	9.45295	6.78561	1	40	0.0128565	1.02523e-05	0	-1.79193e-05	0.937759	0.512383	15.432	5.75185e-05	2.95676e-05	1.25788e-05	4.46883e-05	4.86075e-05	5.17566e-05	1.69332	0.78173	25.7564	5.84836e-08	7.83424e-08	2.81369e-08	7.58562e-08	5.04809e-08	7.13627e-08	0.000423601	0.000675635	0.000797446	57.9136	6785.61	4254.36	8009	-32.0864	0.0000000E+000	0.0000000E+000	0.0000000E+000	32.0864	0.0000000E+000	0.0000000E+000	0.0000000E+000	-32.0864	0.0000000E+000	0.0000000E+000	0.0000000E+000	-57.9136	0.0000000E+000	0.0000000E+000	0.0000000E+000	57.9136	0.626968	32.0864	-7.22695e-08
12.5873	832.843	1214.18	1472.36	-55.5525	178.817	0.459364	-5.76771e-05	10.4137	7.08173	1	41	0.012927	8.77973e-06	0	-1.78571e-05	0.727723	0.391954	13.9623	2.38442e-05	4.43821e-05	4.18898e-05	3.39723e-05	3.10619e-05	3.28829e-05	0.891557	0.108592	4.13231	6.69602e-08	2.80648e-08	1.50777e-08	2.20411e-08	7.58194e-09	5.23721e-09	0.000384178	0.000560082	0.00067918	55.5525	7081.73	4857.58	8587.6	-34.4475	0.0000000E+000	0.0000000E+000	0.0000000E+000	34.4475	0.0000000E+000	0.0000000E+000	0.0000000E+000	-34.4475	0.0000000E+000	0.0000000E+000	0.0000000E+000	-55.5525	0.0000000E+000	0.0000000E+000	0.0000000E+000	55.5525	0.685932	34.4475	6.21946e-08
9.99682	1035.33	1356.37	1706.36	-52.6454	179.877	0.45934	-6.62575e-05	11.7376	7.41649	1	41	0.0128939	7.55643e-06	0	-1.7931e-05	1.01697	0.6706	19.9969	3.97582e-05	5.31237e-05	2.71157e-05	7.23655e-05	3.96221e-05	4.96622e-05	0.933626	0.237598	6.65344	5.25314e-08	3.06663e-08	8.04763e-09	2.95664e-08	8.07832e-09	1.30619e-08	0.000355581	0.000465844	0.000586044	52.6454	7416.5	5661.04	9330.16	-37.3546	0.0000000E+000	0.0000000E+000	0.0000000E+000	37.3546	0.0000000E+000	0.0000000E+000	0.0000000E+000	-37.3546	0.0000000E+000	0.0000000E+000	0.0000000E+000	-52.6454	0.0000000E+000	0.0000000E+000	0.0000000E+000	52.6454	0.763304	37.3546	-7.39198e-08
7.93956	1279.11	1493.68	1966.53	-49.4249	181.086	0.459361	-6.87688e-05	13.4204	7.74253	1	41	0.0129017	6.56066e-06	0	-1.78869e-05	0.720099	0.326334	14.1288	2.38257e-05	2.93145e-05	3.53766e-05	2.37558e-05	3.06435e-05	5.92202e-05	0.943572	0.196242	5.521	5.20489e-08	2.14957e-08	6.27126e-09	2.0233e-08	6.96062e-09	1.16602e-08	0.000330758	0.000386242	0.000508511	49.4249	7742.53	6630.3	10193.5	-40.5751	0.0000000E+000	0.0000000E+000	0.0000000E+000	40.5751	0.0000000E+000	0.0000000E+000	0.0000000E+000	-40.5751	0.0000000E+000	0.0000000E+000	0.0000000E+000	-49.4249	0.0000000E+000	0.0000000E+000	0.0000000E+000	49.4249	0.856349	40.5751	4.4094e-08
6.31058	1556.96	1605.9	2236.74	-45.8865	182.47	0.459325	-6.23571e-05	15.7048	8.09535	1	41	0.0128857	5.7609e-06	0	-1.79514e-05	0.726647	0.404993	14.2966	3.27345e-05	3.92293e-05	3.06153e-05	3.23922e-05	3.42377e-05	3.1622e-05	0.911622	0.195619	6.3525	4.43345e-08	1.81623e-08	7.44647e-09	1.58921e-08	6.13842e-09	5.75232e-09	0.000311203	0.000320985	0.000447078	45.8865	8095.35	7848.65	11275.5	-44.1135	0.0000000E+000	0.0000000E+000	0.0000000E+000	44.1135	0.0000000E+000	0.0000000E+000	0.0000000E+000	-44.1135	0.0000000E+000	0.0000000E+000	0.0000000E+000	-45.8865	0.0000000E+000	0.0000000E+000	0.0000000E+000	45.8865	0.969526	44.1135	-6.4487e-08
5.01283	1872.45	1684.34	2518.54	-41.9726	184.088	0.459327	-6.20643e-05	18.8499	8.43079	1	41	0.0128794	5.11383e-06	0	-1.7962e-05	0.532924	0.416299	11.3899	2.77949e-05	2.59385e-05	2.71841e-05	2.46418e-05	2.21089e-05	2.99273e-05	0.877999	0.183635	5.81186	3.94892e-08	1.54422e-08	6.31757e-09	9.16409e-09	6.01433e-09	4.48002e-09	0.000295197	0.000265541	0.000397056	41.9726	8430.79	9372.36	12606.3	-48.0274	0.0000000E+000	0.0000000E+000	0.0000000E+000	48.0274	0.0000000E+000	0.0000000E+000	0.0000000E+000	-48.0274	0.0000000E+000	0.0000000E+000	0.0000000E+000	-41.9726	0.0000000E+000	0.0000000E+000	0.0000000E+000	41.9726	1.11168	48.0274	-1.05669e-08
3.9819	2201.72	1721.88	2795.08	-38.0275	186.01	0.459327	-5.85148e-05	23.2128	8.80936	1	41	0.0128665	4.60329e-06	0	-1.80788e-05	0.48233	0.377775	10.0158	2.69945e-05	1.93826e-05	1.75612e-05	1.67368e-05	2.84514e-05	2.44675e-05	0.896521	0.195152	5.75634	3.52183e-08	1.71723e-08	3.87518e-09	9.6565e-09	4.46444e-09	3.95286e-09	0.000281823	0.000220402	0.000357772	38.0275	8809.37	11264.3	14300	-51.9725	0.0000000E+000	0.0000000E+000	0.0000000E+000	51.9725	0.0000000E+000	0.0000000E+000	0.0000000E+000	-51.9725	0.0000000E+000	0.0000000E+000	0.0000000E+000	-38.0275	0.0000000E+000	0.0000000E+000	0.0000000E+000	38.0275	1.27868	51.9725	-1.16846e-07
3.16296	2541.42	1716.48	3066.78	-34.0352	188.318	0.459337	-6.35959e-05	29.3148	9.18335	1	41	0.0128772	4.19893e-06	0	-1.80496e-05	0.464175	0.279487	8.80391	1.82911e-05	2.5205e-05	2.27492e-05	2.3852e-05	1.91908e-05	2.44524e-05	0.845407	0.20138	5.51079	3.04372e-08	1.45835e-08	4.19688e-09	6.72174e-09	3.98815e-09	3.93283e-09	0.000270216	0.000182505	0.000326075	34.0352	9183.35	13596.9	16407.6	-55.9648	0.0000000E+000	0.0000000E+000	0.0000000E+000	55.9648	0.0000000E+000	0.0000000E+000	0.0000000E+000	-55.9648	0.0000000E+000	0.0000000E+000	0.0000000E+000	-34.0352	0.0000000E+000	0.0000000E+000	0.0000000E+000	34.0352	1.4806	55.9648	2.92434e-08
2.51085	2868.88	1671.05	3320.07	-30.2197	191.121	0.459338	-6.19057e-05	37.9325	9.60935	1	41	0.012892	3.88304e-06	0	-1.80859e-05	0.397088	0.233491	7.58668	1.08509e-05	1.93642e-05	2.79903e-05	1.72759e-05	2.48423e-05	1.5138e-05	0.834171	0.133401	5.22886	2.70271e-08	1.47992e-08	5.00585e-09	5.12557e-09	4.85991e-09	3.65325e-09	0.000260266	0.000151598	0.000301198	30.2197	9609.35	16497.5	19092.1	-59.7803	0.0000000E+000	0.0000000E+000	0.0000000E+000	59.7803	0.0000000E+000	0.0000000E+000	0.0000000E+000	-59.7803	0.0000000E+000	0.0000000E+000	0.0000000E+000	-30.2197	0.0000000E+000	0.0000000E+000	0.0000000E+000	30.2197	1.71682	59.7803	-3.62999e-08
1.99553	3161.07	1584.01	3535.74	-26.6155	194.545	0.459352	-6.12702e-05	50.3504	10.1055	1	41	0.0128785	3.64237e-06	0	-1.82259e-05	0.429086	0.222312	6.63014	2.00038e-05	2.81353e-05	1.83549e-05	2.75994e-05	1.88416e-05	1.06232e-05	0.884731	0.186461	4.93564	2.703e-08	1.51417e-08	2.93793e-09	4.61307e-09	2.35875e-09	1.65921e-09	0.000252856	0.000126706	0.000282826	26.6155	10105.5	20166.7	22557	-63.3845	0.0000000E+000	0.0000000E+000	0.0000000E+000	63.3845	0.0000000E+000	0.0000000E+000	0.0000000E+000	-63.3845	0.0000000E+000	0.0000000E+000	0.0000000E+000	-26.6155	0.0000000E+000	0.0000000E+000	0.0000000E+000	26.6155	1.99561	63.3846	-1.40034e-07
1.58533	3422.92	1466.61	3723.89	-23.1936	200.069	0.45933	-6.23907e-05	68.452	10.6175	1	42	0.0128695	3.45594e-06	0	-1.83698e-05	0.359465	0.13398	6.17574	1.54731e-05	2.47239e-05	1.26502e-05	1.89446e-05	9.95169e-06	2.13102e-05	0.791337	0.0293426	1.06369	2.42872e-08	1.14534e-08	4.53281e-10	4.99903e-09	9.8981e-10	4.15276e-10	0.000246833	0.00010576	0.000268537	23.1936	10617.5	24780.2	26959.1	-66.8064	0.0000000E+000	0.0000000E+000	0.0000000E+000	66.8064	0.0000000E+000	0.0000000E+000	0.0000000E+000	-66.8064	0.0000000E+000	0.0000000E+000	0.0000000E+000	-23.1936	0.0000000E+000	0.0000000E+000	0.0000000E+000	23.1936	2.33389	66.8064	-1.43907e-07
1.25825	3653.52	1343.58	3892.74	-20.191	205.28	0.459357	-6.20444e-05	94.1431	11.2151	1	42	0.0128714	3.30652e-06	0	-1.82583e-05	0.303266	0.197998	5.61487	1.13942e-05	1.81113e-05	1.36368e-05	1.48431e-05	1.54697e-05	1.61019e-05	0.770763	0.0575537	1.03766	2.26243e-08	1.07921e-08	4.91072e-10	4.41928e-09	6.19869e-10	4.28152e-10	0.000241102	8.86651e-05	0.000256889	20.191	11215.1	30496.7	32493.5	-69.809	0.0000000E+000	0.0000000E+000	0.0000000E+000	69.809	0.0000000E+000	0.0000000E+000	0.0000000E+000	-69.809	0.0000000E+000	0.0000000E+000	0.0000000E+000	-20.191	0.0000000E+000	0.0000000E+000	0.0000000E+000	20.191	2.71924	69.809	1.11547e-07
1.00006	3845.31	1215.7	4032.91	-17.5444	211.739	0.459341	-6.10206e-05	130.908	11.8955	1	42	0.0128668	3.19046e-06	0	-1.86155e-05	0.237141	0.0998414	4.83179	1.16286e-05	1.24972e-05	8.37367e-06	1.39473e-05	1.51725e-05	6.72841e-06	0.774394	0.0624657	0.990326	2.19937e-08	1.0453e-08	3.80243e-10	4.07442e-09	6.15205e-10	3.99157e-10	0.000236426	7.47463e-05	0.00024796	17.5444	11895.5	37626	39461.7	-72.4556	0.0000000E+000	0.0000000E+000	0.0000000E+000	72.4556	0.0000000E+000	0.0000000E+000	0.0000000E+000	-72.4556	0.0000000E+000	0.0000000E+000	0.0000000E+000	-17.5444	0.0000000E+000	0.0000000E+000	0.0000000E+000	17.5444	3.16305	72.4556	-3.57218e-07
0.79456	4008.51	1095.79	4155.58	-15.2892	219.755	0.459328	-6.22177e-05	182.796	12.7103	1	42	0.0128731	3.09779e-06	0	-1.85944e-05	0.216722	0.136572	4.17651	6.14812e-06	1.39639e-05	1.18374e-05	1.35095e-05	9.23661e-06	7.13244e-06	0.765181	0.057401	0.970597	2.11985e-08	9.87181e-09	4.43737e-10	3.70036e-09	4.69301e-10	5.82155e-10	0.000232123	6.34547e-05	0.00024064	15.2892	12710.3	46495.6	48201.6	-74.7108	0.0000000E+000	0.0000000E+000	0.0000000E+000	74.7108	0.0000000E+000	0.0000000E+000	0.0000000E+000	-74.7108	0.0000000E+000	0.0000000E+000	0.0000000E+000	-15.2892	0.0000000E+000	0.0000000E+000	0.0000000E+000	15.2892	3.65809	74.7108	2.11432e-08
0.630906	4141.89	978.273	4255.85	-13.2891	229.753	0.459327	-6.17999e-05	257.867	13.6252	1	42	0.0128631	3.02245e-06	0	-1.86053e-05	0.182529	0.0832223	3.79707	7.88779e-06	1.2081e-05	9.99746e-06	9.6971e-06	8.77997e-06	6.27149e-06	0.752421	0.062447	1.20025	2.06576e-08	8.81814e-09	8.64363e-10	3.28892e-09	3.46248e-10	7.46536e-10	0.000228679	5.40116e-05	0.000234971	13.2891	13625.2	57687.4	59274.7	-76.7109	0.0000000E+000	0.0000000E+000	0.0000000E+000	76.7109	0.0000000E+000	0.0000000E+000	0.0000000E+000	-76.7109	0.0000000E+000	0.0000000E+000	0.0000000E+000	-13.2891	0.0000000E+000	0.0000000E+000	0.0000000E+000	13.2891	4.23388	76.7109	-1.08854e-08
0.500946	4258.92	876.382	4348.15	-11.6278	242.261	0.459325	-6.13075e-05	362.523	14.727	1	42	0.0128637	2.95843e-06	0	-1.91792e-05	0.212846	0.087392	3.38474	9.8431e-06	8.9873e-06	5.82813e-06	1.52687e-05	6.25903e-06	1.1978e-05	0.751292	0.0324668	1.03161	2.02371e-08	8.85517e-09	3.15552e-10	2.3779e-09	3.57764e-10	1.42594e-10	0.000225263	4.63536e-05	0.000229983	11.6278	14727	71568	73067.6	-78.3722	0.0000000E+000	0.0000000E+000	0.0000000E+000	78.3722	0.0000000E+000	0.0000000E+000	0.0000000E+000	-78.3722	0.0000000E+000	0.0000000E+000	0.0000000E+000	-11.6278	0.0000000E+000	0.0000000E+000	0.0000000E+000	11.6278	4.85966	78.3722	-5.7396e-07
0.398211	4359.35	785.705	4429.59	-10.217	257.911	0.459328	-6.1456e-05	508.683	16.0044	1	42	0.0128626	2.90378e-06	0	-1.95248e-05	0.178443	0.105387	2.87343	9.84391e-06	8.05385e-06	9.07647e-06	9.25392e-06	8.85207e-06	7.09264e-06	0.756936	0.0688184	1.11867	2.00563e-08	8.52489e-09	2.3771e-10	2.73669e-09	4.16666e-10	4.22419e-10	0.000222175	4.00435e-05	0.000225754	10.217	16004.4	88797.5	90228.3	-79.783	0.0000000E+000	0.0000000E+000	0.0000000E+000	79.783	0.0000000E+000	0.0000000E+000	0.0000000E+000	-79.783	0.0000000E+000	0.0000000E+000	0.0000000E+000	-10.217	0.0000000E+000	0.0000000E+000	0.0000000E+000	10.217	5.54833	79.783	-3.45573e-07
0.316193	4447.08	707.677	4503.03	-9.04184	277.536	0.459338	-6.22588e-05	711.268	17.5668	1	42	0.0128678	2.85759e-06	0	-1.94357e-05	0.176288	0.0884658	2.62841	3.53121e-06	1.10488e-05	9.0631e-06	1.04471e-05	6.57373e-06	8.3243e-06	0.787483	0.0365881	1.13101	2.06191e-08	8.6989e-09	3.15402e-10	2.24072e-09	4.3819e-10	1.64599e-10	0.000219313	3.49e-05	0.000222073	9.04184	17566.8	110391	111780	-80.9582	0.0000000E+000	0.0000000E+000	0.0000000E+000	80.9582	0.0000000E+000	0.0000000E+000	0.0000000E+000	-80.9582	0.0000000E+000	0.0000000E+000	0.0000000E+000	-9.04184	0.0000000E+000	0.0000000E+000	0.0000000E+000	9.04184	6.28405	80.9582	8.90888e-08
0.251222	4522.12	639.26	4567.08	-8.04619	302.155	0.459351	-5.67097e-05	991.027	19.4162	1	42	0.0128662	2.81716e-06	0	-1.94997e-05	0.146261	0.0649398	2.35644	4.15032e-06	9.07086e-06	5.73032e-06	9.48044e-06	8.17626e-06	3.65289e-06	0.787306	0.0424544	1.14755	2.04208e-08	8.27936e-09	1.61631e-10	2.38628e-09	4.01363e-10	3.12409e-10	0.000216803	3.06479e-05	0.000218958	8.04619	19416.2	137350	138715	-81.9538	0.0000000E+000	0.0000000E+000	0.0000000E+000	81.9538	0.0000000E+000	0.0000000E+000	0.0000000E+000	-81.9538	0.0000000E+000	0.0000000E+000	0.0000000E+000	-8.04619	0.0000000E+000	0.0000000E+000	0.0000000E+000	8.04619	7.07399	81.9538	-6.39738e-08
0.199573	4589.98	582.887	4626.84	-7.23733	333.062	0.45934	-5.82529e-05	1368.15	21.7137	1	42	0.0128636	2.78022e-06	0	-2.02233e-05	0.135267	0.0655704	2.09159	5.16647e-06	8.71212e-06	5.65823e-06	7.97807e-06	2.93973e-06	9.38313e-06	0.781748	0.0714923	1.16207	2.00625e-08	8.05293e-09	4.31913e-10	2.15181e-09	2.52045e-10	3.03186e-10	0.000214408	2.7228e-05	0.00021613	7.23733	21713.7	170985	172359	-82.7627	0.0000000E+000	0.0000000E+000	0.0000000E+000	82.7627	0.0000000E+000	0.0000000E+000	0.0000000E+000	-82.7627	0.0000000E+000	0.0000000E+000	0.0000000E+000	-7.23733	0.0000000E+000	0.0000000E+000	0.0000000E+000	7.23733	7.87455	82.7627	-7.23663e-07
0.158419	4650.77	533.234	4681.24	-6.54069	371.919	0.459324	-5.8309e-05	1884.06	24.4461	1	42	0.0128663	2.74848e-06	0	-2.15465e-05	0.129521	0.0598617	1.88438	4.1122e-06	5.83281e-06	7.01511e-06	8.86777e-06	6.91191e-06	3.52714e-06	0.79719	0.0289125	1.17065	2.01709e-08	8.23857e-09	2.49436e-10	2.26228e-09	2.35741e-10	1.98123e-10	0.000212228	2.4333e-05	0.000213619	6.54069	24446.1	213215	214611	-83.4593	0.0000000E+000	0.0000000E+000	0.0000000E+000	83.4593	0.0000000E+000	0.0000000E+000	0.0000000E+000	-83.4593	0.0000000E+000	0.0000000E+000	0.0000000E+000	-6.54069	0.0000000E+000	0.0000000E+000	0.0000000E+000	6.54069	8.72182	83.4593	-1.32316e-06
0.125939	4705.6	494.687	4731.53	-6.00131	420.716	0.459321	-5.79518e-05	2554.64	27.9247	1	42	0.0128666	2.71933e-06	0	-2.28925e-05	0.10641	0.0462327	1.65884	3.27132e-06	7.32007e-06	3.9835e-06	7.88023e-06	3.23647e-06	3.18172e-06	0.793902	0.048076	1.23525	2.00271e-08	7.79798e-09	2.68766e-10	1.9891e-09	1.89168e-10	1.86199e-10	0.00021019	2.20967e-05	0.000211348	6.00131	27924.7	265627	267091	-83.9987	0.0000000E+000	0.0000000E+000	0.0000000E+000	83.9987	0.0000000E+000	0.0000000E+000	0.0000000E+000	-83.9987	0.0000000E+000	0.0000000E+000	0.0000000E+000	-6.00131	0.0000000E+000	0.0000000E+000	0.0000000E+000	6.00131	9.51227	83.9987	-1.34597e-06
0.0999518	4753.3	466.919	4776.18	-5.61019	482.118	0.459331	-5.80669e-05	3410.26	32.5919	1	42	0.0128615	2.69284e-06	0	-2.37569e-05	0.111779	0.0576652	1.5542	3.10926e-06	7.35988e-06	3.77806e-06	9.63908e-06	2.17176e-06	3.5025e-06	0.804583	0.0527618	1.29545	2.01135e-08	7.77661e-09	2.97281e-10	2.04877e-09	9.44329e-11	2.00352e-10	0.000208369	2.04682e-05	0.000209372	5.61019	32591.9	331790	333387	-84.3898	0.0000000E+000	0.0000000E+000	0.0000000E+000	84.3898	0.0000000E+000	0.0000000E+000	0.0000000E+000	-84.3898	0.0000000E+000	0.0000000E+000	0.0000000E+000	-5.61019	0.0000000E+000	0.0000000E+000	0.0000000E+000	5.61019	10.1801	84.3898	-8.64434e-07