File: Python/Data/RDE/240223-OCV-EIS-Fe2Fe3_5mM-HCl1M-625RPM-Ag_AgCl_BLF8-GC-RDE-1minRestVSEoc-3ppf-14p1mVAmplitude_04_PEIS_C15.mpt
EC-Lab ASCII FILE
Nb header lines : 67

Potentio Electrochemical Impedance Spectroscopy

Run on channel : 15 (SN 19485)
User :
Electrode connection : standard
Potential control : Ewe
Ewe ctrl range : min = -1.00 V, max = 1.00 V
Ewe,I filtering : 50 kHz
Safety Limits :
	Do not start on E overload
Channel : Floating
Acquisition started on : 02/23/2024 15:19:09.853
Loaded Setting File :  NONE
Saved on :
	File : 240223-OCV-EIS-Fe2Fe3_5mM-HCl1M-625RPM-Ag_AgCl_BLF8-GC-RDE-1minRestVSEoc-3ppf-14p1mVAmplitude_04_PEIS_C15.mpr
	Directory : C:\Data\mathias\RDE-RPM-variation\
	Host : 192.168.0.1
Device : VMP-300 (SN 0826)
Address : USB
EC-Lab for windows v11.52 (software)
Internet server v11.52 (firmware)
Command interpretor v11.52 (firmware)
Electrode material :
Initial state :
Electrolyte :
Comments :
Cable : special
Reference electrode : SCE Saturated Calomel Electrode (0.241 V)
Electrode surface area : 0.001 cm²
Characteristic mass : 0.001 g
Equivalent Weight : 0.000 g/eq.
Density : 0.000 g/cm3
Volume (V) : 0.001 cm³
Record EIS quality indicators
Cycle Definition : Charge/Discharge alternance
Mode                Single sine
E (V)               0.0000
vs.                 Eoc
tE (h:m:s)          0:01:0.0000
record              0
dI                  0.000
unit dI             mA
dt (s)              0.000
fi                  1.000
unit fi             MHz
ff                  100.000
unit ff             mHz
Nd                  10
Points              per decade
spacing             Logarithmic
Va (mV)             14.1
pw                  0.10
Na                  3
corr                0
E range min (V)     -1.000
E range max (V)     1.000
I Range             Auto
Bandwidth           8
nc cycles           0
goto Ns'            0
nr cycles           0
inc. cycle          1

freq/Hz	Re(Z)/Ohm	-Im(Z)/Ohm	|Z|/Ohm	Phase(Z)/deg	time/s	<Ewe>/V	<I>/mA	Cs/µF	Cp/µF	cycle number	I Range	|Ewe|/V	|I|/A	Ns	(Q-Qo)/mA.h	THD Ewe/%	NSD Ewe/%	NSR Ewe/%	|Ewe h2|/V	|Ewe h3|/V	|Ewe h4|/V	|Ewe h5|/V	|Ewe h6|/V	|Ewe h7|/V	THD I/%	NSD I/%	NSR I/%	|I h2|/A	|I h3|/A	|I h4|/A	|I h5|/A	|I h6|/A	|I h7|/A	Re(Y)/Ohm-1	Im(Y)/Ohm-1	|Y|/Ohm-1	Phase(Y)/deg	Re(C)/nF	Im(C)/nF	|C|/nF	Phase(C)/deg	Re(M)	Im(M)	|M|	Phase(M)/deg	Re(Permittivity)	Im(Permittivity)	|Permittivity|	Phase(Permittivity)/deg	Re(Resistivity)/Ohm.cm	Im(Resistivity)/Ohm.cm	|Resistivity|/Ohm.cm	Phase(Resistivity)/deg	Re(Conductivity)/mS/cm	Im(Conductivity)/mS/cm	|Conductivity|/mS/cm	Phase(Conductivity)/deg	Tan(Delta)	Loss Angle(Delta)/deg	dq/mA.h
1.00002e+06	3.52542	4.08494	5.39586	-49.2048	602.365	0.459517	-0.0100063	0.0389607	0.0223293	1	38	0.011144	0.00206528	0	-7.3268e-06	-1	-1	-1	0	0	0	0	0	0	-1	-1	-1	0	0	0	0	0	0	0.121085	0.140302	0.185327	49.2048	22.3293	19.2709	29.4952	-40.7952	0.0000000E+000	0.0000000E+000	0.0000000E+000	40.7952	0.0000000E+000	0.0000000E+000	0.0000000E+000	-40.7952	0.0000000E+000	0.0000000E+000	0.0000000E+000	-49.2048	0.0000000E+000	0.0000000E+000	0.0000000E+000	49.2048	0.86303	40.7952	-7.3268e-06
794333	3.56378	3.20904	4.79567	-42.0018	603.376	0.45954	-0.00205581	0.0624371	0.0279572	1	38	0.0139021	0.00289889	0	-6.66289e-06	-1	-1	-1	0	0	0	0	0	0	-1	-1	-1	0	0	0	0	0	0	0.154957	0.139533	0.208521	42.0018	27.9572	31.0477	41.78	-47.9982	0.0000000E+000	0.0000000E+000	0.0000000E+000	47.9982	0.0000000E+000	0.0000000E+000	0.0000000E+000	-47.9982	0.0000000E+000	0.0000000E+000	0.0000000E+000	-42.0018	0.0000000E+000	0.0000000E+000	0.0000000E+000	42.0018	1.11054	47.9982	6.63919e-07
630957	3.54905	2.52082	4.35319	-35.3854	604.523	0.459512	-0.00179325	0.100064	0.0335541	1	38	0.0144471	0.00331874	0	-1.15796e-05	-1	-1	-1	0	0	0	0	0	0	-1	-1	-1	0	0	0	0	0	0	0.187282	0.133023	0.229716	35.3854	33.5541	47.2408	57.9445	-54.6146	0.0000000E+000	0.0000000E+000	0.0000000E+000	54.6146	0.0000000E+000	0.0000000E+000	0.0000000E+000	-54.6146	0.0000000E+000	0.0000000E+000	0.0000000E+000	-35.3854	0.0000000E+000	0.0000000E+000	0.0000000E+000	35.3854	1.4079	54.6146	-4.91668e-06
501206	3.5159	2.00725	4.04853	-29.7223	605.671	0.459502	-0.00156236	0.158199	0.0388875	1	38	0.0145213	0.00358682	0	-1.79077e-05	-1	-1	-1	0	0	0	0	0	0	-1	-1	-1	0	0	0	0	0	0	0.214507	0.122463	0.247003	29.7223	38.8875	68.1155	78.4344	-60.2777	0.0000000E+000	0.0000000E+000	0.0000000E+000	60.2777	0.0000000E+000	0.0000000E+000	0.0000000E+000	-60.2777	0.0000000E+000	0.0000000E+000	0.0000000E+000	-29.7223	0.0000000E+000	0.0000000E+000	0.0000000E+000	29.7223	1.7516	60.2777	-6.32815e-06
398103	3.47444	1.62546	3.83586	-25.0718	606.818	0.459496	-0.00198315	0.24595	0.0441647	1	38	0.0145709	0.0037986	0	-2.27549e-05	-1	-1	-1	0	0	0	0	0	0	-1	-1	-1	0	0	0	0	0	0	0.236134	0.110472	0.260698	25.0718	44.1647	94.4023	104.222	-64.9282	0.0000000E+000	0.0000000E+000	0.0000000E+000	64.9282	0.0000000E+000	0.0000000E+000	0.0000000E+000	-64.9282	0.0000000E+000	0.0000000E+000	0.0000000E+000	-25.0718	0.0000000E+000	0.0000000E+000	0.0000000E+000	25.0718	2.13751	64.9282	-4.84719e-06
316230	3.44551	1.35756	3.70331	-21.5048	607.964	0.459487	-0.000942336	0.370731	0.0498191	1	38	0.0145603	0.0039317	0	-1.56027e-05	-1	-1	-1	0	0	0	0	0	0	-1	-1	-1	0	0	0	0	0	0	0.251231	0.0989871	0.270029	21.5048	49.8191	126.442	135.902	-68.4952	0.0000000E+000	0.0000000E+000	0.0000000E+000	68.4952	0.0000000E+000	0.0000000E+000	0.0000000E+000	-68.4952	0.0000000E+000	0.0000000E+000	0.0000000E+000	-21.5048	0.0000000E+000	0.0000000E+000	0.0000000E+000	21.5048	2.53802	68.4952	7.15224e-06
251188	3.41609	1.169	3.61058	-18.8912	609.111	0.459478	-0.00127934	0.542008	0.0568178	1	38	0.0145057	0.00401757	0	-2.00512e-05	-1	-1	-1	0	0	0	0	0	0	-1	-1	-1	0	0	0	0	0	0	0.262045	0.0896732	0.276964	18.8912	56.8178	166.034	175.487	-71.1088	0.0000000E+000	0.0000000E+000	0.0000000E+000	71.1088	0.0000000E+000	0.0000000E+000	0.0000000E+000	-71.1088	0.0000000E+000	0.0000000E+000	0.0000000E+000	-18.8912	0.0000000E+000	0.0000000E+000	0.0000000E+000	18.8912	2.92223	71.1088	-4.44856e-06
199544	3.40246	1.06014	3.56379	-17.306	610.258	0.459517	-0.00122349	0.752351	0.0665763	1	38	0.0145399	0.00407988	0	-2.03168e-05	-1	-1	-1	0	0	0	0	0	0	-1	-1	-1	0	0	0	0	0	0	0.267897	0.0834713	0.2806	17.306	66.5763	213.673	223.805	-72.694	0.0000000E+000	0.0000000E+000	0.0000000E+000	72.694	0.0000000E+000	0.0000000E+000	0.0000000E+000	-72.694	0.0000000E+000	0.0000000E+000	0.0000000E+000	-17.306	0.0000000E+000	0.0000000E+000	0.0000000E+000	17.306	3.20945	72.694	-2.6561e-07
158486	3.39913	1.00585	3.54483	-16.4843	611.405	0.459507	-0.00177648	0.998376	0.0803846	1	38	0.0145342	0.00410011	0	-2.43337e-05	-1	-1	-1	0	0	0	0	0	0	-1	-1	-1	0	0	0	0	0	0	0.270506	0.0800468	0.282101	16.4843	80.3846	271.647	283.291	-73.5157	0.0000000E+000	0.0000000E+000	0.0000000E+000	73.5157	0.0000000E+000	0.0000000E+000	0.0000000E+000	-73.5157	0.0000000E+000	0.0000000E+000	0.0000000E+000	-16.4843	0.0000000E+000	0.0000000E+000	0.0000000E+000	16.4843	3.37935	73.5157	-4.01684e-06
125909	3.40709	1.00644	3.55263	-16.4569	612.553	0.459511	-0.000957222	1.25596	0.100797	1	38	0.0145912	0.00410714	0	-2.33798e-05	-1	-1	-1	0	0	0	0	0	0	-1	-1	-1	0	0	0	0	0	0	0.26995	0.079742	0.281481	16.4569	100.797	341.229	355.805	-73.5431	0.0000000E+000	0.0000000E+000	0.0000000E+000	73.5431	0.0000000E+000	0.0000000E+000	0.0000000E+000	-73.5431	0.0000000E+000	0.0000000E+000	0.0000000E+000	-16.4569	0.0000000E+000	0.0000000E+000	0.0000000E+000	16.4569	3.38529	73.5431	9.53843e-07
100004	3.41183	1.05369	3.57083	-17.1625	613.699	0.459491	-0.000849227	1.5104	0.131516	1	38	0.0145465	0.00407369	0	-3.07105e-05	0.486188	0.335569	8.92422	2.76505e-05	2.33344e-05	2.98968e-05	2.55191e-05	3.0225e-05	2.94748e-05	0.070974	0.0541687	0.707873	1.9907e-06	1.3029e-06	1.08601e-06	3.56311e-07	9.26035e-07	3.64799e-07	0.267577	0.0826369	0.280047	17.1625	131.516	425.846	445.692	-72.8375	0.0000000E+000	0.0000000E+000	0.0000000E+000	72.8375	0.0000000E+000	0.0000000E+000	0.0000000E+000	-72.8375	0.0000000E+000	0.0000000E+000	0.0000000E+000	-17.1625	0.0000000E+000	0.0000000E+000	0.0000000E+000	17.1625	3.23798	72.8375	-7.33067e-06
79433.3	3.43864	1.15535	3.62755	-18.5718	614.846	0.459508	-0.000167764	1.73422	0.175916	1	38	0.0145698	0.00401644	0	-2.81484e-05	0.464684	0.286407	8.99692	3.66376e-05	1.462e-05	2.85394e-05	3.30743e-05	2.45126e-05	1.61295e-05	0.065356	0.0530927	0.72672	1.50577e-06	1.21483e-06	7.91731e-07	7.43482e-07	7.63333e-07	6.54086e-07	0.261313	0.0877985	0.275668	18.5718	175.916	523.574	552.337	-71.4282	0.0000000E+000	0.0000000E+000	0.0000000E+000	71.4282	0.0000000E+000	0.0000000E+000	0.0000000E+000	-71.4282	0.0000000E+000	0.0000000E+000	0.0000000E+000	-18.5718	0.0000000E+000	0.0000000E+000	0.0000000E+000	18.5718	2.97628	71.4282	2.56208e-06
63093.8	3.47281	1.30661	3.71048	-20.6183	615.993	0.45952	-0.00106709	1.93058	0.239398	1	38	0.0146066	0.00393659	0	-1.96422e-05	0.511766	0.349448	8.96021	2.99038e-05	3.59966e-05	2.98187e-05	2.90104e-05	1.94596e-05	1.94502e-05	0.063129	0.0512414	0.7334	1.21751e-06	1.35733e-06	8.34947e-07	8.08588e-07	7.37678e-07	7.29938e-07	0.252244	0.0949045	0.269507	20.6183	239.398	636.29	679.835	-69.3817	0.0000000E+000	0.0000000E+000	0.0000000E+000	69.3817	0.0000000E+000	0.0000000E+000	0.0000000E+000	-69.3817	0.0000000E+000	0.0000000E+000	0.0000000E+000	-20.6183	0.0000000E+000	0.0000000E+000	0.0000000E+000	20.6183	2.65788	69.3817	8.50623e-06
50122.5	3.50389	1.50997	3.81539	-23.3132	617.14	0.459506	-0.00101867	2.10291	0.329364	1	38	0.0145775	0.00382071	0	-1.3987e-05	0.489924	0.300307	9.19581	3.51909e-05	2.95593e-05	1.9685e-05	2.97884e-05	2.39733e-05	2.57544e-05	0.0536265	0.069586	0.75187	7.1546e-07	1.52603e-06	3.07619e-07	5.81822e-07	6.85263e-07	5.14941e-07	0.240697	0.103726	0.262096	23.3132	329.364	764.291	832.239	-66.6868	0.0000000E+000	0.0000000E+000	0.0000000E+000	66.6868	0.0000000E+000	0.0000000E+000	0.0000000E+000	-66.6868	0.0000000E+000	0.0000000E+000	0.0000000E+000	-23.3132	0.0000000E+000	0.0000000E+000	0.0000000E+000	23.3132	2.3205	66.6868	5.65516e-06
39814.1	3.55711	1.79077	3.98245	-26.7222	618.287	0.459533	-0.00119556	2.23226	0.451359	1	38	0.014645	0.00367738	0	-9.21964e-06	0.457881	0.336248	9.10182	2.82297e-05	3.36386e-05	1.60858e-05	2.42584e-05	2.17792e-05	3.03294e-05	0.0568281	0.084292	0.783202	7.29868e-07	1.02052e-06	1.14747e-06	8.55186e-07	4.39964e-07	6.59721e-07	0.224284	0.112912	0.251102	26.7222	451.359	896.564	1003.77	-63.2778	0.0000000E+000	0.0000000E+000	0.0000000E+000	63.2778	0.0000000E+000	0.0000000E+000	0.0000000E+000	-63.2778	0.0000000E+000	0.0000000E+000	0.0000000E+000	-26.7222	0.0000000E+000	0.0000000E+000	0.0000000E+000	26.7222	1.98636	63.2778	4.76741e-06
31621.1	3.61379	2.15001	4.205	-30.7504	619.435	0.459531	-0.00199061	2.341	0.612001	1	38	0.0146812	0.00349137	0	-1.06681e-05	0.400487	0.301944	9.06322	2.25224e-05	3.59466e-05	1.5201e-05	2.01233e-05	1.20288e-05	1.67084e-05	0.0632354	0.116322	0.821976	6.26666e-07	1.19579e-06	7.55822e-07	6.18198e-07	6.9031e-07	4.402e-07	0.204377	0.121593	0.237812	30.7504	612.001	1028.66	1196.95	-59.2496	0.0000000E+000	0.0000000E+000	0.0000000E+000	59.2496	0.0000000E+000	0.0000000E+000	0.0000000E+000	-59.2496	0.0000000E+000	0.0000000E+000	0.0000000E+000	-30.7504	0.0000000E+000	0.0000000E+000	0.0000000E+000	30.7504	1.68082	59.2496	-1.44845e-06
25116.9	3.67636	2.60064	4.50321	-35.2754	620.581	0.459524	-0.00152328	2.43655	0.812622	1	38	0.0147017	0.00326473	0	-7.38729e-06	0.451834	0.309158	8.98764	2.90664e-05	1.14864e-05	2.0441e-05	2.62815e-05	3.75215e-05	2.50808e-05	0.0702059	0.128379	0.898419	6.35425e-07	1.41991e-06	5.89551e-07	1.1754e-06	7.2744e-07	4.75513e-07	0.18129	0.128243	0.222064	35.2754	812.622	1148.75	1407.12	-54.7246	0.0000000E+000	0.0000000E+000	0.0000000E+000	54.7246	0.0000000E+000	0.0000000E+000	0.0000000E+000	-54.7246	0.0000000E+000	0.0000000E+000	0.0000000E+000	-35.2754	0.0000000E+000	0.0000000E+000	0.0000000E+000	35.2754	1.41364	54.7246	3.28079e-06
19948.8	3.77522	3.16186	4.92439	-39.9472	621.727	0.4595	-0.000998238	2.52325	1.04026	1	38	0.014757	0.00299672	0	-9.32823e-06	0.456736	0.218971	9.1159	9.7581e-06	3.06408e-05	3.1238e-05	1.71474e-05	3.06374e-05	2.83531e-05	0.0648889	0.125257	0.969841	6.97465e-07	1.15103e-06	4.46933e-07	3.33549e-07	3.45371e-07	1.13482e-06	0.155681	0.130388	0.203071	39.9472	1040.26	1242.05	1620.14	-50.0528	0.0000000E+000	0.0000000E+000	0.0000000E+000	50.0528	0.0000000E+000	0.0000000E+000	0.0000000E+000	-50.0528	0.0000000E+000	0.0000000E+000	0.0000000E+000	-39.9472	0.0000000E+000	0.0000000E+000	0.0000000E+000	39.9472	1.19399	50.0528	-1.94094e-06
15847.7	3.87965	3.88564	5.49089	-45.0441	622.874	0.459511	-0.000510411	2.58459	1.29429	1	38	0.0148389	0.00270246	0	-9.49723e-06	0.463902	0.318274	9.03219	1.66688e-05	1.78117e-05	2.46577e-05	2.08637e-05	3.41495e-05	2.95929e-05	0.099196	0.142852	1.08036	1.81003e-06	9.44678e-07	7.10538e-07	9.86379e-07	7.02144e-07	7.93194e-07	0.128679	0.128877	0.18212	45.0441	1294.29	1292.3	1828.99	-44.9559	0.0000000E+000	0.0000000E+000	0.0000000E+000	44.9559	0.0000000E+000	0.0000000E+000	0.0000000E+000	-44.9559	0.0000000E+000	0.0000000E+000	0.0000000E+000	-45.0441	0.0000000E+000	0.0000000E+000	0.0000000E+000	45.0441	0.998461	44.9559	-1.68998e-07
12590.9	4.02391	4.75144	6.2264	-49.7393	624.022	0.459486	-0.000871632	2.66034	1.54922	1	38	0.0148069	0.00237808	0	-9.09504e-06	0.516688	0.397935	9.2624	4.31247e-05	2.52721e-05	1.63326e-05	3.07832e-05	2.39705e-05	2.25425e-05	0.127753	0.165846	1.21361	2.57208e-06	9.65147e-07	5.57134e-07	3.69275e-07	5.04707e-07	7.67873e-07	0.103795	0.122561	0.160607	49.7393	1549.22	1312.01	2030.14	-40.2607	0.0000000E+000	0.0000000E+000	0.0000000E+000	40.2607	0.0000000E+000	0.0000000E+000	0.0000000E+000	-40.2607	0.0000000E+000	0.0000000E+000	0.0000000E+000	-49.7393	0.0000000E+000	0.0000000E+000	0.0000000E+000	49.7393	0.846882	40.2607	4.02187e-07
10002.2	4.2147	5.85328	7.2128	-54.2439	625.169	0.459517	-0.000866057	2.71847	1.79025	1	38	0.0144839	0.00200808	0	-7.29164e-06	0.502499	0.239097	9.19441	3.48407e-05	3.19973e-05	1.99766e-05	2.08094e-05	3.36297e-05	2.54678e-05	0.207761	0.187962	1.45575	3.83702e-06	7.55709e-07	7.65878e-07	8.05102e-07	6.12428e-07	5.02128e-07	0.0810136	0.11251	0.138642	54.2439	1790.25	1289.09	2206.07	-35.7561	0.0000000E+000	0.0000000E+000	0.0000000E+000	35.7561	0.0000000E+000	0.0000000E+000	0.0000000E+000	-35.7561	0.0000000E+000	0.0000000E+000	0.0000000E+000	-54.2439	0.0000000E+000	0.0000000E+000	0.0000000E+000	54.2439	0.720057	35.7561	1.8034e-06
7944	4.46019	7.18179	8.45407	-58.158	626.346	0.459409	-0.00139485	2.78964	2.01317	1	38	0.0146843	0.00173695	0	-6.08205e-06	0.639207	0.257689	9.21598	5.96584e-05	3.62835e-05	3.63168e-05	2.45135e-05	2.05636e-05	2.23627e-05	0.300764	0.139322	1.67983	4.95151e-06	4.81519e-07	4.16105e-07	8.06658e-07	6.79256e-07	8.65762e-07	0.0624053	0.100485	0.118286	58.158	2013.17	1250.27	2369.82	-31.842	0.0000000E+000	0.0000000E+000	0.0000000E+000	31.842	0.0000000E+000	0.0000000E+000	0.0000000E+000	-31.842	0.0000000E+000	0.0000000E+000	0.0000000E+000	-58.158	0.0000000E+000	0.0000000E+000	0.0000000E+000	58.158	0.621042	31.842	1.20959e-06
6307.74	4.78054	8.82649	10.038	-61.5594	627.397	0.459406	-0.00208564	2.85863	2.21026	1	38	0.0145293	0.00144743	0	-5.54484e-06	0.602374	0.344543	9.15458	4.29914e-05	3.43762e-05	3.28438e-05	2.21907e-05	3.80643e-05	2.36325e-05	0.456645	0.100299	1.98568	6.39308e-06	8.49087e-07	5.83013e-07	6.36255e-07	8.02684e-07	4.08234e-07	0.0474446	0.0875987	0.0996219	61.5594	2210.26	1197.11	2513.63	-28.4406	0.0000000E+000	0.0000000E+000	0.0000000E+000	28.4406	0.0000000E+000	0.0000000E+000	0.0000000E+000	-28.4406	0.0000000E+000	0.0000000E+000	0.0000000E+000	-61.5594	0.0000000E+000	0.0000000E+000	0.0000000E+000	61.5594	0.541613	28.4406	5.37212e-07
5011.6	5.18903	10.8244	12.0039	-64.3877	628.515	0.459412	-0.00231652	2.93386	2.38563	1	38	0.0137999	0.00114962	0	-6.36422e-06	0.545141	0.19895	9.56549	3.64381e-05	3.23688e-05	2.01637e-05	2.91443e-05	1.92723e-05	1.86979e-05	0.630432	0.0738133	2.5297	6.81146e-06	1.90266e-06	6.64906e-07	9.16673e-07	3.59625e-07	5.89521e-07	0.0360115	0.0751206	0.0833063	64.3877	2385.63	1143.63	2645.58	-25.6123	0.0000000E+000	0.0000000E+000	0.0000000E+000	25.6123	0.0000000E+000	0.0000000E+000	0.0000000E+000	-25.6123	0.0000000E+000	0.0000000E+000	0.0000000E+000	-64.3877	0.0000000E+000	0.0000000E+000	0.0000000E+000	64.3877	0.479383	25.6123	-8.19384e-07
3981.28	5.70074	13.276	14.4482	-66.7613	629.621	0.459386	-0.00256975	3.01113	2.54236	1	38	0.0131202	0.000908082	0	-6.36306e-06	0.464957	0.370893	10.2812	3.5262e-05	1.06442e-05	1.32629e-05	3.01697e-05	2.77381e-05	1.34255e-05	0.736773	0.129263	3.21107	6.13264e-06	2.25458e-06	8.07879e-07	7.96612e-07	5.78851e-07	4.3627e-07	0.0273087	0.0635973	0.0692126	66.7613	2542.36	1091.69	2766.83	-23.2387	0.0000000E+000	0.0000000E+000	0.0000000E+000	23.2387	0.0000000E+000	0.0000000E+000	0.0000000E+000	-23.2387	0.0000000E+000	0.0000000E+000	0.0000000E+000	-66.7613	0.0000000E+000	0.0000000E+000	0.0000000E+000	66.7613	0.4294	23.2387	1.16241e-09
3163.04	6.37339	16.2739	17.4774	-68.6131	630.948	0.459403	-0.00231281	3.09188	2.68072	1	38	0.0138078	0.000790034	0	-6.5661e-06	0.506072	0.249931	9.6193	2.79152e-05	1.84378e-05	1.63878e-05	2.44815e-05	4.05055e-05	2.09676e-05	0.840062	0.112093	3.56009	5.9147e-06	2.59783e-06	3.93432e-07	9.70196e-07	7.07886e-07	2.7506e-07	0.0208648	0.0532766	0.0572166	68.6131	2680.72	1049.86	2878.97	-21.3869	0.0000000E+000	0.0000000E+000	0.0000000E+000	21.3869	0.0000000E+000	0.0000000E+000	0.0000000E+000	-21.3869	0.0000000E+000	0.0000000E+000	0.0000000E+000	-68.6131	0.0000000E+000	0.0000000E+000	0.0000000E+000	68.6131	0.391632	21.3869	-2.03037e-07
2512.41	7.2272	19.919	21.1896	-70.0578	632.054	0.459387	-0.00229792	3.18025	2.81029	1	38	0.0134481	0.000634653	0	-6.87633e-06	0.76008	0.165045	9.97219	5.92464e-05	3.56183e-05	2.28472e-05	4.16532e-05	2.48163e-05	4.45014e-05	0.946357	0.0982497	4.49903	4.87757e-06	2.60052e-06	7.27501e-07	1.52475e-06	9.03919e-07	8.91662e-07	0.0160962	0.0443631	0.0471929	70.0578	2810.29	1019.65	2989.55	-19.9422	0.0000000E+000	0.0000000E+000	0.0000000E+000	19.9422	0.0000000E+000	0.0000000E+000	0.0000000E+000	-19.9422	0.0000000E+000	0.0000000E+000	0.0000000E+000	-70.0578	0.0000000E+000	0.0000000E+000	0.0000000E+000	70.0578	0.362829	19.9422	-3.10232e-07
1995.64	8.3291	24.2431	25.634	-71.039	633.161	0.45942	-0.00309669	3.28965	2.94235	1	38	0.0131852	0.000514362	0	-7.82394e-06	0.443554	0.3776	9.93796	2.31356e-05	2.91042e-05	2.38782e-05	1.83731e-05	2.06539e-05	1.23872e-05	0.789211	0.161527	5.66559	3.144e-06	1.9679e-06	5.79495e-07	9.9176e-07	5.27529e-07	8.6643e-07	0.0126755	0.036894	0.0390107	71.039	2942.35	1010.89	3111.16	-18.961	0.0000000E+000	0.0000000E+000	0.0000000E+000	18.961	0.0000000E+000	0.0000000E+000	0.0000000E+000	-18.961	0.0000000E+000	0.0000000E+000	0.0000000E+000	-71.039	0.0000000E+000	0.0000000E+000	0.0000000E+000	71.039	0.343566	18.961	-9.47606e-07
1584.49	9.6327	29.6434	31.1692	-71.9983	634.268	0.459385	-0.00236495	3.38846	3.06483	1	38	0.0130292	0.000418015	0	-8.82997e-06	0.519099	0.293619	10.07	2.93214e-05	3.53686e-05	1.78255e-05	1.69431e-05	2.38347e-05	3.20025e-05	0.860269	0.148917	6.9053	2.79835e-06	1.39825e-06	5.76987e-07	1.24002e-06	8.38028e-07	4.91063e-07	0.00991508	0.0305124	0.0320829	71.9983	3064.83	995.924	3222.58	-18.0017	0.0000000E+000	0.0000000E+000	0.0000000E+000	18.0017	0.0000000E+000	0.0000000E+000	0.0000000E+000	-18.0017	0.0000000E+000	0.0000000E+000	0.0000000E+000	-71.9983	0.0000000E+000	0.0000000E+000	0.0000000E+000	71.9983	0.324953	18.0017	-1.00604e-06
1258.79	11.3731	36.1674	37.9135	-72.5439	635.627	0.459382	-0.000251818	3.49582	3.18125	1	39	0.0145732	0.000384381	0	-9.60561e-06	0.601576	0.20944	8.79411	5.09479e-05	3.51533e-05	2.73285e-05	2.19223e-05	3.05874e-05	1.93885e-05	1.28441	0.0946577	3.4376	4.35735e-06	2.21839e-06	2.14069e-07	3.88026e-07	1.86931e-07	3.22903e-07	0.00791209	0.0251612	0.0263759	72.5439	3181.25	1000.36	3334.83	-17.4561	0.0000000E+000	0.0000000E+000	0.0000000E+000	17.4561	0.0000000E+000	0.0000000E+000	0.0000000E+000	-17.4561	0.0000000E+000	0.0000000E+000	0.0000000E+000	-72.5439	0.0000000E+000	0.0000000E+000	0.0000000E+000	72.5439	0.314456	17.4561	-7.75634e-07
999.682	13.6169	44.0816	46.1368	-72.834	636.734	0.459397	-0.000134216	3.61161	3.29701	1	39	0.0139027	0.000301337	0	-9.90507e-06	0.65371	0.206113	9.37328	5.55904e-05	4.01544e-05	1.71565e-05	2.3512e-05	3.34656e-05	2.52529e-05	1.22223	0.126481	4.48257	2.98703e-06	1.96611e-06	2.60908e-07	5.95075e-07	3.1116e-07	3.37652e-07	0.00639707	0.0207091	0.0216747	72.834	3297.01	1018.45	3450.73	-17.166	0.0000000E+000	0.0000000E+000	0.0000000E+000	17.166	0.0000000E+000	0.0000000E+000	0.0000000E+000	-17.166	0.0000000E+000	0.0000000E+000	0.0000000E+000	-72.834	0.0000000E+000	0.0000000E+000	0.0000000E+000	72.834	0.308901	17.166	-2.99466e-07
794.239	16.2714	53.4667	55.8878	-73.0735	637.84	0.459384	-0.000101788	3.74788	3.43019	1	39	0.0134797	0.000241191	0	-9.87551e-06	0.507148	0.431823	9.16297	2.97776e-05	2.72454e-05	4.08008e-05	2.68861e-05	5.90594e-06	2.18427e-05	1.20442	0.280083	5.37681	2.17674e-06	1.32445e-06	4.00496e-07	1.24373e-06	2.15194e-07	3.13112e-07	0.00520944	0.0171179	0.017893	73.0735	3430.19	1043.9	3585.52	-16.9265	0.0000000E+000	0.0000000E+000	0.0000000E+000	16.9265	0.0000000E+000	0.0000000E+000	0.0000000E+000	-16.9265	0.0000000E+000	0.0000000E+000	0.0000000E+000	-73.0735	0.0000000E+000	0.0000000E+000	0.0000000E+000	73.0735	0.304328	16.9265	2.95669e-08
631.01	19.8648	64.8376	67.8124	-72.9661	638.945	0.459434	0.000218039	3.89007	3.55625	1	39	0.0132117	0.000194827	0	-1.00386e-05	0.518106	0.279218	9.47059	1.8004e-05	3.1843e-05	3.16674e-05	2.57771e-05	2.02029e-05	2.06217e-05	1.12718	0.210076	6.7334	1.44769e-06	9.46482e-07	2.98692e-07	1.26575e-06	1.82331e-07	2.24967e-07	0.00431982	0.0140996	0.0147466	72.9661	3556.25	1089.56	3719.42	-17.0339	0.0000000E+000	0.0000000E+000	0.0000000E+000	17.0339	0.0000000E+000	0.0000000E+000	0.0000000E+000	-17.0339	0.0000000E+000	0.0000000E+000	0.0000000E+000	-72.9661	0.0000000E+000	0.0000000E+000	0.0000000E+000	72.9661	0.306378	17.0339	-1.63069e-07
501.122	24.1748	78.37	82.0139	-72.8566	640.05	0.459417	-0.000116887	4.05253	3.70042	1	39	0.0130285	0.000158857	0	-9.97097e-06	0.536856	0.237249	9.69989	4.18837e-05	2.55972e-05	2.12779e-05	2.89766e-05	1.90182e-05	1.45463e-05	1.03538	0.267279	8.31037	1.11392e-06	8.57312e-07	1.59912e-07	7.12216e-07	1.55297e-07	2.52752e-07	0.00359408	0.0116513	0.0121931	72.8566	3700.42	1141.47	3872.48	-17.1434	0.0000000E+000	0.0000000E+000	0.0000000E+000	17.1434	0.0000000E+000	0.0000000E+000	0.0000000E+000	-17.1434	0.0000000E+000	0.0000000E+000	0.0000000E+000	-72.8566	0.0000000E+000	0.0000000E+000	0.0000000E+000	72.8566	0.30847	17.1434	6.76069e-08
398.089	29.4739	94.8774	99.35	-72.7424	641.159	0.459422	-0.000440442	4.21383	3.84297	1	39	0.0129502	0.000130349	0	-9.97902e-06	0.661418	0.398546	9.76352	2.32721e-05	2.7803e-05	3.39706e-05	3.82263e-05	3.61634e-05	3.77584e-05	1.06084	0.400609	10.08	9.13726e-07	5.18289e-07	2.77331e-07	6.75567e-07	2.08082e-07	3.55878e-07	0.00298608	0.00961229	0.0100654	72.7424	3842.97	1193.83	4024.13	-17.2576	0.0000000E+000	0.0000000E+000	0.0000000E+000	17.2576	0.0000000E+000	0.0000000E+000	0.0000000E+000	-17.2576	0.0000000E+000	0.0000000E+000	0.0000000E+000	-72.7424	0.0000000E+000	0.0000000E+000	0.0000000E+000	72.7424	0.310653	17.2576	-8.05239e-09
316.316	36.0832	114.186	119.751	-72.4632	642.263	0.459398	2.30831e-05	4.40644	4.00637	1	39	0.0128504	0.000107309	0	-1.01129e-05	0.451162	0.32575	10.0786	1.90027e-05	2.56911e-05	1.76765e-05	2.45966e-05	2.91972e-05	1.92582e-05	1.08667	0.473389	12.5201	7.96684e-07	6.01198e-07	2.60522e-07	2.85245e-07	3.74679e-07	1.58645e-07	0.0025162	0.00796254	0.00835065	72.4632	4006.37	1266.03	4201.64	-17.5368	0.0000000E+000	0.0000000E+000	0.0000000E+000	17.5368	0.0000000E+000	0.0000000E+000	0.0000000E+000	-17.5368	0.0000000E+000	0.0000000E+000	0.0000000E+000	-72.4632	0.0000000E+000	0.0000000E+000	0.0000000E+000	72.4632	0.316005	17.5368	-1.33845e-07
251.206	44.4663	137.789	144.786	-72.1144	643.368	0.459436	-0.000417891	4.59807	4.16438	1	39	0.0128074	8.84576e-05	0	-1.02524e-05	0.515691	0.194839	9.81417	1.65855e-05	2.31023e-05	2.34225e-05	3.78673e-05	3.07799e-05	1.4722e-05	1.0961	0.366025	14.7308	5.73499e-07	4.55917e-07	3.58168e-07	2.43915e-07	2.40189e-07	2.42847e-07	0.00212117	0.00657295	0.00690674	72.1144	4164.38	1343.9	4375.86	-17.8856	0.0000000E+000	0.0000000E+000	0.0000000E+000	17.8856	0.0000000E+000	0.0000000E+000	0.0000000E+000	-17.8856	0.0000000E+000	0.0000000E+000	0.0000000E+000	-72.1144	0.0000000E+000	0.0000000E+000	0.0000000E+000	72.1144	0.322713	17.8856	-1.39534e-07
199.553	54.7637	165.882	174.688	-71.7301	644.476	0.459436	-0.000342035	4.80797	4.33545	1	39	0.0127711	7.31078e-05	0	-1.02015e-05	0.558333	0.287572	10.1064	2.34747e-05	3.81299e-05	2.47865e-05	2.6651e-05	2.00631e-05	2.41484e-05	1.46338	0.511429	18.2716	5.08139e-07	5.56508e-07	3.83184e-07	5.21559e-07	3.06759e-07	1.85549e-07	0.00179459	0.00543592	0.00572449	71.7301	4335.45	1431.29	4565.6	-18.2699	0.0000000E+000	0.0000000E+000	0.0000000E+000	18.2699	0.0000000E+000	0.0000000E+000	0.0000000E+000	-18.2699	0.0000000E+000	0.0000000E+000	0.0000000E+000	-71.7301	0.0000000E+000	0.0000000E+000	0.0000000E+000	71.7301	0.330136	18.2699	5.09316e-08
158.529	68.7976	199.236	210.78	-70.9499	645.586	0.459416	-0.000113721	5.03898	4.50216	1	39	0.0127555	6.05155e-05	0	-1.0208e-05	0.475671	0.340961	9.90151	1.22327e-05	1.50335e-05	4.1189e-05	2.70284e-05	1.21554e-05	1.678e-05	1.35913	0.741356	21.9487	4.06672e-07	4.03165e-07	3.68129e-07	2.51946e-07	1.96715e-07	2.41364e-07	0.00154851	0.00448445	0.00474428	70.9499	4502.16	1554.63	4763.02	-19.0501	0.0000000E+000	0.0000000E+000	0.0000000E+000	19.0501	0.0000000E+000	0.0000000E+000	0.0000000E+000	-19.0501	0.0000000E+000	0.0000000E+000	0.0000000E+000	-70.9499	0.0000000E+000	0.0000000E+000	0.0000000E+000	70.9499	0.345307	19.0501	-6.5049e-09
125.927	85.1445	238.697	253.428	-70.3684	646.942	0.459375	-4.93256e-05	5.29488	4.69721	1	40	0.0130376	5.14451e-05	0	-1.02844e-05	0.923432	0.466997	15.7258	3.71881e-05	4.65337e-05	4.05505e-05	5.4738e-05	4.6893e-05	4.87561e-05	1.07355	0.179754	5.18594	4.1438e-07	2.23017e-07	5.95569e-08	2.47949e-07	5.88542e-08	9.64433e-08	0.00132571	0.00371653	0.0039459	70.3684	4697.21	1675.52	4987.1	-19.6316	0.0000000E+000	0.0000000E+000	0.0000000E+000	19.6316	0.0000000E+000	0.0000000E+000	0.0000000E+000	-19.6316	0.0000000E+000	0.0000000E+000	0.0000000E+000	-70.3684	0.0000000E+000	0.0000000E+000	0.0000000E+000	70.3684	0.356706	19.6316	-7.6422e-08
99.9682	106.289	286.151	305.254	-69.6228	648.024	0.459427	-0.00010692	5.56369	4.88913	1	40	0.0129527	4.24327e-05	0	-1.02721e-05	0.894467	0.492146	15.5658	5.03138e-05	4.05414e-05	1.48291e-05	5.10165e-05	6.09233e-05	4.2881e-05	1.00132	0.19649	6.27412	3.48288e-07	1.69557e-07	2.06002e-08	1.29314e-07	7.51065e-08	5.75485e-08	0.00114069	0.00307096	0.00327596	69.6228	4889.13	1816.04	5215.52	-20.3772	0.0000000E+000	0.0000000E+000	0.0000000E+000	20.3772	0.0000000E+000	0.0000000E+000	0.0000000E+000	-20.3772	0.0000000E+000	0.0000000E+000	0.0000000E+000	-69.6228	0.0000000E+000	0.0000000E+000	0.0000000E+000	69.6228	0.371444	20.3772	1.23368e-08
79.4157	132.453	341.561	366.344	-68.8043	649.094	0.459385	-4.21733e-05	5.86739	5.1004	1	40	0.0128715	3.51349e-05	0	-1.02718e-05	0.603564	0.428698	15.7765	2.7056e-05	3.8036e-05	2.92893e-05	2.32698e-05	2.90214e-05	2.78608e-05	1.08989	0.210682	7.54307	2.9832e-07	1.61724e-07	4.78758e-08	1.62872e-07	3.97478e-08	1.59885e-08	0.000986927	0.00254502	0.00272968	68.8043	5100.4	1977.87	5470.47	-21.1957	0.0000000E+000	0.0000000E+000	0.0000000E+000	21.1957	0.0000000E+000	0.0000000E+000	0.0000000E+000	-21.1957	0.0000000E+000	0.0000000E+000	0.0000000E+000	-68.8043	0.0000000E+000	0.0000000E+000	0.0000000E+000	68.8043	0.387788	21.1957	2.62418e-10
63.0823	164.901	406.879	439.024	-67.9381	650.177	0.459422	-7.18834e-05	6.2008	5.32599	1	40	0.0128327	2.92301e-05	0	-1.02925e-05	0.890757	0.478189	15.0961	2.78026e-05	5.81868e-05	3.30145e-05	5.18893e-05	4.44719e-05	4.24608e-05	0.940817	0.379459	8.79124	2.17768e-07	8.19173e-08	5.11514e-08	1.05928e-07	5.39742e-08	4.62654e-08	0.00085555	0.002111	0.00227778	67.9381	5325.99	2158.53	5746.77	-22.0619	0.0000000E+000	0.0000000E+000	0.0000000E+000	22.0619	0.0000000E+000	0.0000000E+000	0.0000000E+000	-22.0619	0.0000000E+000	0.0000000E+000	0.0000000E+000	-67.9381	0.0000000E+000	0.0000000E+000	0.0000000E+000	67.9381	0.405282	22.0619	-2.07473e-08
50.1122	208.121	480.665	523.787	-66.5881	651.241	0.459473	-0.000141753	6.60745	5.56428	1	40	0.0127624	2.43656e-05	0	-1.03441e-05	0.834701	0.435967	15.3614	2.97128e-05	3.37957e-05	3.57217e-05	3.95945e-05	4.57252e-05	4.79919e-05	0.911933	0.347451	10.6838	1.45121e-07	9.88995e-08	5.0467e-08	7.8472e-08	3.35189e-08	8.20526e-08	0.000758587	0.00175199	0.00190917	66.5881	5564.28	2409.25	6063.47	-23.4119	0.0000000E+000	0.0000000E+000	0.0000000E+000	23.4119	0.0000000E+000	0.0000000E+000	0.0000000E+000	-23.4119	0.0000000E+000	0.0000000E+000	0.0000000E+000	-66.5881	0.0000000E+000	0.0000000E+000	0.0000000E+000	66.5881	0.432985	23.4119	-5.15451e-08
39.8089	260.327	569.278	625.977	-65.4257	652.311	0.459424	-9.65268e-05	7.02289	5.80828	1	40	0.0127662	2.03941e-05	0	-1.03307e-05	0.981848	0.520414	15.3264	3.40349e-05	5.99304e-05	5.35743e-05	3.84891e-05	4.52494e-05	3.96048e-05	1.16987	0.440188	12.8182	1.60103e-07	1.04773e-07	7.53897e-08	7.26596e-08	3.85619e-08	6.14009e-08	0.000664358	0.0014528	0.0015975	65.4257	5808.28	2656.08	6386.77	-24.5743	0.0000000E+000	0.0000000E+000	0.0000000E+000	24.5743	0.0000000E+000	0.0000000E+000	0.0000000E+000	-24.5743	0.0000000E+000	0.0000000E+000	0.0000000E+000	-65.4257	0.0000000E+000	0.0000000E+000	0.0000000E+000	65.4257	0.457293	24.5743	1.33605e-08
31.6296	325.301	665.755	740.979	-63.9589	653.351	0.459378	-3.0383e-05	7.55809	6.10139	1	40	0.0127232	1.71708e-05	0	-1.0327e-05	0.840307	0.390772	15.69	2.1503e-05	2.24588e-05	6.27916e-05	3.40085e-05	5.11098e-05	4.4844e-05	1.24336	0.311428	15.2105	1.23985e-07	7.6935e-08	8.8017e-08	5.15819e-08	6.19455e-08	8.00665e-08	0.00059248	0.00121256	0.00134957	63.9589	6101.39	2981.26	6790.79	-26.0411	0.0000000E+000	0.0000000E+000	0.0000000E+000	26.0411	0.0000000E+000	0.0000000E+000	0.0000000E+000	-26.0411	0.0000000E+000	0.0000000E+000	0.0000000E+000	-63.9589	0.0000000E+000	0.0000000E+000	0.0000000E+000	63.9589	0.48862	26.0411	3.71414e-09
25.1206	408.557	780.122	880.63	-62.3586	654.42	0.459421	-0.000120295	8.12133	6.37332	1	40	0.01273	1.44555e-05	0	-1.03118e-05	0.974308	0.54619	15.6538	4.6006e-05	4.76849e-05	5.69047e-05	5.01985e-05	3.18337e-05	4.63423e-05	1.26716	0.644083	18.2777	1.06327e-07	7.21257e-08	8.22192e-08	7.00554e-08	3.08667e-08	4.56972e-08	0.000526824	0.00100595	0.00113555	62.3586	6373.32	3337.76	7194.43	-27.6414	0.0000000E+000	0.0000000E+000	0.0000000E+000	27.6414	0.0000000E+000	0.0000000E+000	0.0000000E+000	-27.6414	0.0000000E+000	0.0000000E+000	0.0000000E+000	-62.3586	0.0000000E+000	0.0000000E+000	0.0000000E+000	62.3586	0.523709	27.6414	1.52616e-08
19.9553	517.838	903.634	1041.49	-60.1846	655.711	0.459408	-9.77937e-05	8.82609	6.64415	1	40	0.0140998	1.3538e-05	0	-1.03673e-05	0.95332	0.371995	13.9906	4.61352e-05	4.36349e-05	6.02227e-05	4.43087e-05	4.78151e-05	6.3566e-05	1.34468	0.594917	19.3399	8.44807e-08	6.29271e-08	8.23428e-08	6.15732e-08	6.10074e-08	5.91693e-08	0.000477398	0.000833064	0.000960159	60.1846	6644.15	3807.51	7657.8	-29.8154	0.0000000E+000	0.0000000E+000	0.0000000E+000	29.8154	0.0000000E+000	0.0000000E+000	0.0000000E+000	-29.8154	0.0000000E+000	0.0000000E+000	0.0000000E+000	-60.1846	0.0000000E+000	0.0000000E+000	0.0000000E+000	60.1846	0.573062	29.8154	-5.55554e-08
15.8469	654.354	1039.02	1227.9	-57.798	656.752	0.4594	-6.60163e-05	9.66616	6.92108	1	40	0.0141065	1.14883e-05	0	-1.04362e-05	0.820257	0.455597	14.232	4.56913e-05	5.45741e-05	2.64687e-05	3.51636e-05	4.09649e-05	5.10277e-05	1.40187	0.835337	23.2296	8.56385e-08	6.63242e-08	4.74186e-08	3.73516e-08	5.94337e-08	5.06714e-08	0.000433998	0.000689124	0.000814399	57.798	6921.08	4358.77	8179.26	-32.202	0.0000000E+000	0.0000000E+000	0.0000000E+000	32.202	0.0000000E+000	0.0000000E+000	0.0000000E+000	-32.202	0.0000000E+000	0.0000000E+000	0.0000000E+000	-57.798	0.0000000E+000	0.0000000E+000	0.0000000E+000	57.798	0.629782	32.202	-6.88428e-08
12.5873	816.011	1177.25	1432.41	-55.2722	658.214	0.459414	-8.6949e-05	10.7404	7.25475	1	41	0.0141229	9.85957e-06	0	-1.04401e-05	0.776056	0.379744	12.648	3.58765e-05	5.03245e-05	3.94131e-05	2.79724e-05	4.34352e-05	3.87709e-05	0.990251	0.0820421	3.67823	8.29629e-08	3.72254e-08	1.62532e-08	2.68214e-08	6.78017e-09	8.27698e-09	0.000397707	0.000573767	0.000698125	55.2722	7254.75	5028.63	8827.15	-34.7278	0.0000000E+000	0.0000000E+000	0.0000000E+000	34.7278	0.0000000E+000	0.0000000E+000	0.0000000E+000	-34.7278	0.0000000E+000	0.0000000E+000	0.0000000E+000	-55.2722	0.0000000E+000	0.0000000E+000	0.0000000E+000	55.2722	0.69315	34.7278	-3.96984e-09
9.99682	1015.21	1316.46	1662.44	-52.3617	659.274	0.45939	-8.90106e-05	12.0935	7.58353	1	41	0.014111	8.48812e-06	0	-1.04951e-05	1.06856	0.526089	18.0988	5.53541e-05	4.60929e-05	6.9744e-05	6.40391e-05	4.28892e-05	5.60725e-05	0.993155	0.179359	5.85855	6.87025e-08	2.89754e-08	1.58717e-08	3.08723e-08	7.46267e-09	1.26764e-08	0.000367336	0.000476336	0.000601524	52.3617	7583.53	5848.2	9576.6	-37.6383	0.0000000E+000	0.0000000E+000	0.0000000E+000	37.6383	0.0000000E+000	0.0000000E+000	0.0000000E+000	-37.6383	0.0000000E+000	0.0000000E+000	0.0000000E+000	-52.3617	0.0000000E+000	0.0000000E+000	0.0000000E+000	52.3617	0.77117	37.6384	-5.50131e-08
7.93956	1249.12	1448.07	1912.38	-49.2185	660.483	0.45941	-9.10684e-05	13.8431	7.93711	1	41	0.0141025	7.37432e-06	0	-1.04602e-05	0.70422	0.352352	12.8634	3.12259e-05	3.29864e-05	2.70976e-05	5.84592e-05	2.07891e-05	4.97843e-05	1.00524	0.202467	4.94341	5.70563e-08	3.60275e-08	4.0129e-09	2.39371e-08	1.20309e-08	1.22851e-08	0.00034155	0.000395949	0.000522907	49.2185	7937.11	6846.66	10482.1	-40.7815	0.0000000E+000	0.0000000E+000	0.0000000E+000	40.7815	0.0000000E+000	0.0000000E+000	0.0000000E+000	-40.7815	0.0000000E+000	0.0000000E+000	0.0000000E+000	-49.2185	0.0000000E+000	0.0000000E+000	0.0000000E+000	49.2185	0.862613	40.7815	3.48939e-08
6.31058	1524.68	1554.45	2177.38	-45.5539	661.867	0.459445	-9.47241e-05	16.2246	8.26913	1	41	0.0140918	6.47192e-06	0	-1.05758e-05	0.756801	0.264333	12.6619	3.89068e-05	4.50961e-05	4.07457e-05	3.35488e-05	4.89495e-05	2.81172e-05	0.926672	0.163031	5.55556	5.12283e-08	2.345e-08	8.04751e-09	1.28268e-08	9.71161e-09	8.31375e-09	0.000321597	0.000327876	0.000459268	45.5539	8269.13	8110.78	11582.9	-44.4461	0.0000000E+000	0.0000000E+000	0.0000000E+000	44.4461	0.0000000E+000	0.0000000E+000	0.0000000E+000	-44.4461	0.0000000E+000	0.0000000E+000	0.0000000E+000	-45.5539	0.0000000E+000	0.0000000E+000	0.0000000E+000	45.5539	0.98085	44.4461	-1.15568e-07
5.01283	1825.27	1632.99	2449.14	-41.8178	663.485	0.459398	-8.90974e-05	19.4425	8.64362	1	41	0.0140895	5.75285e-06	0	-1.05987e-05	0.46288	0.289875	10.4513	2.29858e-05	3.35703e-05	1.31183e-05	2.53914e-05	1.55733e-05	2.24287e-05	0.924779	0.132376	5.15901	4.62573e-08	2.04558e-08	4.52374e-09	1.15464e-08	3.43884e-09	6.34065e-09	0.000304299	0.000272244	0.000408307	41.8178	8643.62	9661.34	12963.5	-48.1822	0.0000000E+000	0.0000000E+000	0.0000000E+000	48.1822	0.0000000E+000	0.0000000E+000	0.0000000E+000	-48.1822	0.0000000E+000	0.0000000E+000	0.0000000E+000	-41.8178	0.0000000E+000	0.0000000E+000	0.0000000E+000	41.8178	1.11774	48.1823	-2.28461e-08
3.9819	2147.34	1672.39	2721.76	-37.9122	665.406	0.459419	-9.11299e-05	23.8996	9.02339	1	41	0.014096	5.17902e-06	0	-1.06864e-05	0.572954	0.329937	9.20147	3.14792e-05	4.60255e-05	2.62223e-05	2.96722e-05	3.0237e-05	2.32636e-05	0.909448	0.204023	5.15271	3.80736e-08	2.27545e-08	3.58948e-09	1.2094e-08	5.66944e-09	5.2116e-09	0.000289869	0.000225756	0.00036741	37.9122	9023.39	11585.9	14685.2	-52.0878	0.0000000E+000	0.0000000E+000	0.0000000E+000	52.0878	0.0000000E+000	0.0000000E+000	0.0000000E+000	-52.0878	0.0000000E+000	0.0000000E+000	0.0000000E+000	-37.9122	0.0000000E+000	0.0000000E+000	0.0000000E+000	37.9122	1.28399	52.0878	-8.77059e-08
3.16296	2473.16	1671.54	2985.06	-34.0536	667.715	0.459435	-9.6787e-05	30.1031	9.43925	1	41	0.0141139	4.7282e-06	0	-1.07313e-05	0.461655	0.208228	7.88865	2.89701e-05	1.33758e-05	1.78748e-05	2.45566e-05	3.29364e-05	3.0129e-05	0.903211	0.118399	4.85019	3.61222e-08	1.95488e-08	2.52373e-09	7.24848e-09	5.35152e-09	4.9884e-09	0.000277554	0.00018759	0.000335002	34.0536	9439.25	13966.1	16856.8	-55.9464	0.0000000E+000	0.0000000E+000	0.0000000E+000	55.9464	0.0000000E+000	0.0000000E+000	0.0000000E+000	-55.9464	0.0000000E+000	0.0000000E+000	0.0000000E+000	-34.0536	0.0000000E+000	0.0000000E+000	0.0000000E+000	34.0536	1.47957	55.9464	-4.49605e-08
2.51085	2792.12	1618.9	3227.5	-30.1055	670.518	0.459427	-9.28585e-05	39.1545	9.85111	1	41	0.0141165	4.37381e-06	0	-1.07929e-05	0.398222	0.209073	6.74723	2.17506e-05	1.75354e-05	2.63406e-05	1.40731e-05	2.38663e-05	2.25487e-05	0.846276	0.125562	4.61757	3.12078e-08	1.63525e-08	3.39987e-09	7.94332e-09	4.35823e-09	4.44832e-09	0.000268041	0.000155412	0.000309837	30.1055	9851.11	16990.3	19639.6	-59.8945	0.0000000E+000	0.0000000E+000	0.0000000E+000	59.8945	0.0000000E+000	0.0000000E+000	0.0000000E+000	-59.8945	0.0000000E+000	0.0000000E+000	0.0000000E+000	-30.1055	0.0000000E+000	0.0000000E+000	0.0000000E+000	30.1055	1.72471	59.8945	-6.16108e-08
1.99553	3076.35	1529.11	3435.42	-26.4299	673.942	0.459441	-9.81895e-05	52.158	10.3333	1	41	0.0140962	4.10319e-06	0	-1.09482e-05	0.30288	0.201537	5.96271	1.30705e-05	1.3272e-05	2.11331e-05	1.47529e-05	1.77066e-05	1.60646e-05	0.907464	0.147685	4.3807	3.16862e-08	1.55408e-08	4.50675e-09	9.33987e-09	3.23971e-09	2.91404e-09	0.000260661	0.000129563	0.000291085	26.4299	10333.3	20789.1	23215.7	-63.5701	0.0000000E+000	0.0000000E+000	0.0000000E+000	63.5701	0.0000000E+000	0.0000000E+000	0.0000000E+000	-63.5701	0.0000000E+000	0.0000000E+000	0.0000000E+000	-26.4299	0.0000000E+000	0.0000000E+000	0.0000000E+000	26.4299	2.01185	63.5701	-1.55267e-07
1.58533	3332.15	1417.46	3621.11	-23.0444	678.155	0.459435	-9.42248e-05	70.8256	10.8525	1	41	0.0140905	3.8912e-06	0	-1.09276e-05	0.279239	0.14911	5.44133	1.60499e-05	1.32281e-05	1.31664e-05	2.31034e-05	1.33331e-05	7.46607e-06	0.906229	0.0943405	4.35323	3.17692e-08	1.30996e-08	3.24836e-09	5.29389e-09	2.26066e-09	1.78194e-09	0.000254122	0.000108101	0.000276159	23.0444	10852.5	25511.9	27724.3	-66.9556	0.0000000E+000	0.0000000E+000	0.0000000E+000	66.9556	0.0000000E+000	0.0000000E+000	0.0000000E+000	-66.9556	0.0000000E+000	0.0000000E+000	0.0000000E+000	-23.0444	0.0000000E+000	0.0000000E+000	0.0000000E+000	23.0444	2.35079	66.9556	2.05952e-08
1.25825	3552.85	1297.92	3782.5	-20.0681	685.004	0.459438	-9.64061e-05	97.455	11.4747	1	42	0.0140921	3.7256e-06	0	-1.10633e-05	0.306961	0.188369	5.04478	1.65189e-05	1.05963e-05	1.3449e-05	2.58294e-05	1.10577e-05	1.61833e-05	0.866216	0.0293165	1.16303	2.87241e-08	1.38504e-08	6.1474e-10	4.82143e-09	5.12005e-10	5.35056e-10	0.000248324	9.0717e-05	0.000264375	20.0681	11474.7	31410.1	33440.5	-69.9319	0.0000000E+000	0.0000000E+000	0.0000000E+000	69.9319	0.0000000E+000	0.0000000E+000	0.0000000E+000	-69.9319	0.0000000E+000	0.0000000E+000	0.0000000E+000	-20.0681	0.0000000E+000	0.0000000E+000	0.0000000E+000	20.0681	2.73734	69.9319	-1.35661e-07
1.00006	3745.61	1172.47	3924.83	-17.3814	691.464	0.459438	-9.81382e-05	135.735	12.113	1	42	0.0140994	3.59236e-06	0	-1.13301e-05	0.271101	0.147002	4.37896	1.69435e-05	1.68898e-05	1.5718e-05	1.68739e-05	1.05153e-05	1.00011e-05	0.846468	0.0576532	1.11595	2.74331e-08	1.24411e-08	8.88569e-10	3.85726e-09	7.64673e-10	4.17344e-10	0.000243154	7.6113e-05	0.000254788	17.3814	12113	38696.7	40548.3	-72.6186	0.0000000E+000	0.0000000E+000	0.0000000E+000	72.6186	0.0000000E+000	0.0000000E+000	0.0000000E+000	-72.6186	0.0000000E+000	0.0000000E+000	0.0000000E+000	-17.3814	0.0000000E+000	0.0000000E+000	0.0000000E+000	17.3814	3.19464	72.6186	-2.66826e-07
0.79456	3904.57	1050.93	4043.53	-15.0644	699.48	0.459428	-9.81589e-05	190.599	12.875	1	42	0.0140919	3.48505e-06	0	-1.16401e-05	0.222775	0.114737	3.83872	9.15745e-06	1.47046e-05	1.08077e-05	1.44492e-05	1.20848e-05	9.79436e-06	0.823858	0.0539223	1.12344	2.58918e-08	1.17824e-08	4.78248e-10	3.77227e-09	3.69047e-10	4.49269e-10	0.00023881	6.42767e-05	0.000247309	15.0644	12875	47835	49537.4	-74.9356	0.0000000E+000	0.0000000E+000	0.0000000E+000	74.9356	0.0000000E+000	0.0000000E+000	0.0000000E+000	-74.9356	0.0000000E+000	0.0000000E+000	0.0000000E+000	-15.0644	0.0000000E+000	0.0000000E+000	0.0000000E+000	15.0644	3.71534	74.9356	-3.09965e-07
0.630906	4043.88	937.502	4151.13	-13.0524	709.477	0.459444	-9.60944e-05	269.081	13.7245	1	42	0.0140938	3.39518e-06	0	-1.15437e-05	0.216207	0.100045	3.3213	8.63253e-06	1.37188e-05	1.39843e-05	1.22219e-05	1.42528e-05	5.89928e-06	0.843642	0.021152	1.22177	2.58201e-08	1.1891e-08	3.83945e-10	3.4516e-09	2.32241e-10	3.34337e-10	0.000234674	5.44052e-05	0.000240898	13.0524	13724.5	59200	60770.1	-76.9476	0.0000000E+000	0.0000000E+000	0.0000000E+000	76.9476	0.0000000E+000	0.0000000E+000	0.0000000E+000	-76.9476	0.0000000E+000	0.0000000E+000	0.0000000E+000	-13.0524	0.0000000E+000	0.0000000E+000	0.0000000E+000	13.0524	4.31346	76.9476	9.63419e-08
0.500946	4162.18	831.765	4244.48	-11.301	721.984	0.459446	-9.46981e-05	381.97	14.6684	1	42	0.0140912	3.3199e-06	0	-1.20788e-05	0.167304	0.0669301	3.03	8.65654e-06	1.13102e-05	5.28107e-06	1.17212e-05	9.17636e-06	7.31892e-06	0.850377	0.0451757	1.23413	2.55635e-08	1.14578e-08	4.43667e-10	3.38809e-09	5.32887e-10	3.98752e-10	0.000231032	4.61692e-05	0.0002356	11.301	14668.4	73401	74852.3	-78.699	0.0000000E+000	0.0000000E+000	0.0000000E+000	78.699	0.0000000E+000	0.0000000E+000	0.0000000E+000	-78.699	0.0000000E+000	0.0000000E+000	0.0000000E+000	-11.301	0.0000000E+000	0.0000000E+000	0.0000000E+000	11.301	5.00404	78.699	-5.35078e-07
0.398211	4265.42	730.695	4327.55	-9.7208	737.634	0.459441	-9.46935e-05	546.979	15.594	1	42	0.0140947	3.25697e-06	0	-1.28896e-05	0.169824	0.0604756	2.66516	7.34541e-06	1.16667e-05	6.159e-06	1.40787e-05	7.40801e-06	5.96239e-06	0.835209	0.05246	1.23415	2.47782e-08	1.07691e-08	3.02855e-10	3.05132e-09	4.04827e-10	3.591e-10	0.00022776	3.90168e-05	0.000231077	9.7208	15594	91029.8	92355.8	-80.2792	0.0000000E+000	0.0000000E+000	0.0000000E+000	80.2792	0.0000000E+000	0.0000000E+000	0.0000000E+000	-80.2792	0.0000000E+000	0.0000000E+000	0.0000000E+000	-9.7208	0.0000000E+000	0.0000000E+000	0.0000000E+000	9.7208	5.83748	80.2792	-8.10803e-07
0.316193	4351.07	637.628	4397.54	-8.33708	757.26	0.459432	-9.76832e-05	789.407	16.5965	1	42	0.0140899	3.20404e-06	0	-1.32264e-05	0.171442	0.0675547	2.39602	1.0482e-05	1.08173e-05	5.97836e-06	1.31615e-05	9.0117e-06	4.95085e-06	0.848521	0.0454657	1.24003	2.47761e-08	1.0747e-08	2.74392e-10	3.05107e-09	3.55992e-10	3.24096e-10	0.000224997	3.29722e-05	0.0002274	8.33708	16596.5	113252	114461	-81.6629	0.0000000E+000	0.0000000E+000	0.0000000E+000	81.6629	0.0000000E+000	0.0000000E+000	0.0000000E+000	-81.6629	0.0000000E+000	0.0000000E+000	0.0000000E+000	-8.33708	0.0000000E+000	0.0000000E+000	0.0000000E+000	8.33708	6.82383	81.6629	-3.36829e-07
0.251222	4422.35	549.648	4456.38	-7.08488	781.879	0.459418	-0.000102437	1152.6	17.5341	1	42	0.0140883	3.16137e-06	0	-1.3329e-05	0.139315	0.0643427	2.18831	4.35148e-06	1.00564e-05	7.2083e-06	9.5427e-06	7.46875e-06	6.49449e-06	0.849808	0.0512155	1.29539	2.4553e-08	1.05592e-08	2.70934e-10	2.65572e-09	2.25809e-10	1.84424e-10	0.000222684	2.76771e-05	0.000224398	7.08488	17534.1	141076	142161	-82.9151	0.0000000E+000	0.0000000E+000	0.0000000E+000	82.9151	0.0000000E+000	0.0000000E+000	0.0000000E+000	-82.9151	0.0000000E+000	0.0000000E+000	0.0000000E+000	-7.08488	0.0000000E+000	0.0000000E+000	0.0000000E+000	7.08488	8.04579	82.9151	-1.02572e-07
0.199573	4482.91	472.329	4507.72	-6.01462	812.787	0.459414	-9.93793e-05	1688.39	18.5374	1	42	0.0140902	3.12579e-06	0	-1.39199e-05	0.152214	0.0672597	1.87591	5.66315e-06	1.15276e-05	5.31932e-06	1.22657e-05	6.83012e-06	5.44665e-06	0.863356	0.0380657	1.28955	2.48218e-08	1.0252e-08	1.36243e-10	2.55832e-09	3.59716e-10	4.97841e-10	0.00022062	2.3245e-05	0.000221842	6.01462	18537.4	175939	176913	-83.9854	0.0000000E+000	0.0000000E+000	0.0000000E+000	83.9854	0.0000000E+000	0.0000000E+000	0.0000000E+000	-83.9854	0.0000000E+000	0.0000000E+000	0.0000000E+000	-6.01462	0.0000000E+000	0.0000000E+000	0.0000000E+000	6.01462	9.49107	83.9854	-5.90906e-07
0.158419	4530.86	399.554	4548.44	-5.03959	851.644	0.459428	-9.73261e-05	2514.42	19.4028	1	42	0.0140854	3.09676e-06	0	-1.54381e-05	0.146049	0.0703193	1.68587	5.86552e-06	9.23508e-06	5.72906e-06	1.36144e-05	4.64671e-06	7.49158e-06	0.870528	0.026541	1.30054	2.47574e-08	1.03572e-08	2.07208e-10	2.51954e-09	2.65617e-10	1.76791e-10	0.000219006	1.9313e-05	0.000219855	5.03959	19402.8	220023	220877	-84.9604	0.0000000E+000	0.0000000E+000	0.0000000E+000	84.9604	0.0000000E+000	0.0000000E+000	0.0000000E+000	-84.9604	0.0000000E+000	0.0000000E+000	0.0000000E+000	-5.03959	0.0000000E+000	0.0000000E+000	0.0000000E+000	5.03959	11.3398	84.9604	-1.51824e-06
0.125939	4571.1	338.898	4583.65	-4.24011	900.44	0.459421	-9.48604e-05	3729	20.3849	1	42	0.0140853	3.07294e-06	0	-1.76737e-05	0.107445	0.0467678	1.48265	3.83216e-06	7.30319e-06	5.21302e-06	8.22667e-06	4.67432e-06	4.45278e-06	0.87164	0.0354544	1.3204	2.46549e-08	1.01777e-08	3.21112e-10	2.39397e-09	2.64825e-10	1.8793e-10	0.00021757	1.61305e-05	0.000218167	4.24011	20384.8	274954	275708	-85.7599	0.0000000E+000	0.0000000E+000	0.0000000E+000	85.7599	0.0000000E+000	0.0000000E+000	0.0000000E+000	-85.7599	0.0000000E+000	0.0000000E+000	0.0000000E+000	-4.24011	0.0000000E+000	0.0000000E+000	0.0000000E+000	4.24011	13.4881	85.7599	-2.23552e-06
0.0999518	4605.56	284.925	4614.36	-3.54012	961.843	0.45943	-9.32614e-05	5588.55	21.3077	1	42	0.0140878	3.05304e-06	0	-1.99861e-05	0.100585	0.0512716	1.40138	3.85947e-06	6.97582e-06	5.61402e-06	7.48278e-06	5.3791e-06	3.0874e-06	0.869998	0.053189	1.35482	2.45152e-08	9.97771e-09	3.12583e-10	2.16821e-09	2.55477e-10	1.44643e-10	0.000216301	1.33816e-05	0.000216715	3.54012	21307.7	344420	345079	-86.4599	0.0000000E+000	0.0000000E+000	0.0000000E+000	86.4599	0.0000000E+000	0.0000000E+000	0.0000000E+000	-86.4599	0.0000000E+000	0.0000000E+000	0.0000000E+000	-3.54012	0.0000000E+000	0.0000000E+000	0.0000000E+000	3.54012	16.1641	86.4599	-2.3124e-06