File: Python/Data/RDE/240223-OCV-EIS-Fe2Fe3_5mM-HCl1M-225RPM-Ag_AgCl_BLF8-GC-RDE-1minRestVSEoc-3ppf-14p1mVAmplitude_02_PEIS_C15.mpt
EC-Lab ASCII FILE
Nb header lines : 67

Potentio Electrochemical Impedance Spectroscopy

Run on channel : 15 (SN 19485)
User :
Electrode connection : standard
Potential control : Ewe
Ewe ctrl range : min = -1.00 V, max = 1.00 V
Ewe,I filtering : 50 kHz
Safety Limits :
	Do not start on E overload
Channel : Floating
Acquisition started on : 02/23/2024 15:54:32.363
Loaded Setting File :  NONE
Saved on :
	File : 240223-OCV-EIS-Fe2Fe3_5mM-HCl1M-225RPM-Ag_AgCl_BLF8-GC-RDE-1minRestVSEoc-3ppf-14p1mVAmplitude_02_PEIS_C15.mpr
	Directory : C:\Data\mathias\RDE-RPM-variation\
	Host : 192.168.0.1
Device : VMP-300 (SN 0826)
Address : USB
EC-Lab for windows v11.52 (software)
Internet server v11.52 (firmware)
Command interpretor v11.52 (firmware)
Electrode material :
Initial state :
Electrolyte :
Comments :
Cable : special
Reference electrode : SCE Saturated Calomel Electrode (0.241 V)
Electrode surface area : 0.001 cm²
Characteristic mass : 0.001 g
Equivalent Weight : 0.000 g/eq.
Density : 0.000 g/cm3
Volume (V) : 0.001 cm³
Record EIS quality indicators
Cycle Definition : Charge/Discharge alternance
Mode                Single sine
E (V)               0.0000
vs.                 Eoc
tE (h:m:s)          0:01:0.0000
record              0
dI                  0.000
unit dI             mA
dt (s)              0.000
fi                  1.000
unit fi             MHz
ff                  100.000
unit ff             mHz
Nd                  10
Points              per decade
spacing             Logarithmic
Va (mV)             14.1
pw                  0.10
Na                  3
corr                0
E range min (V)     -1.000
E range max (V)     1.000
I Range             Auto
Bandwidth           8
nc cycles           0
goto Ns'            0
nr cycles           0
inc. cycle          1

freq/Hz	Re(Z)/Ohm	-Im(Z)/Ohm	|Z|/Ohm	Phase(Z)/deg	time/s	<Ewe>/V	<I>/mA	Cs/µF	Cp/µF	cycle number	I Range	|Ewe|/V	|I|/A	Ns	(Q-Qo)/mA.h	THD Ewe/%	NSD Ewe/%	NSR Ewe/%	|Ewe h2|/V	|Ewe h3|/V	|Ewe h4|/V	|Ewe h5|/V	|Ewe h6|/V	|Ewe h7|/V	THD I/%	NSD I/%	NSR I/%	|I h2|/A	|I h3|/A	|I h4|/A	|I h5|/A	|I h6|/A	|I h7|/A	Re(Y)/Ohm-1	Im(Y)/Ohm-1	|Y|/Ohm-1	Phase(Y)/deg	Re(C)/nF	Im(C)/nF	|C|/nF	Phase(C)/deg	Re(M)	Im(M)	|M|	Phase(M)/deg	Re(Permittivity)	Im(Permittivity)	|Permittivity|	Phase(Permittivity)/deg	Re(Resistivity)/Ohm.cm	Im(Resistivity)/Ohm.cm	|Resistivity|/Ohm.cm	Phase(Resistivity)/deg	Re(Conductivity)/mS/cm	Im(Conductivity)/mS/cm	|Conductivity|/mS/cm	Phase(Conductivity)/deg	Tan(Delta)	Loss Angle(Delta)/deg	dq/mA.h
1.00002e+06	3.51357	4.08623	5.3891	-49.3093	119.761	0.459536	-0.0117342	0.0389483	0.0223925	1	38	0.01114	0.00206714	0	-3.42335e-06	-1	-1	-1	0	0	0	0	0	0	-1	-1	-1	0	0	0	0	0	0	0.12098	0.140699	0.18556	49.3093	22.3925	19.2543	29.5322	-40.6907	0.0000000E+000	0.0000000E+000	0.0000000E+000	40.6907	0.0000000E+000	0.0000000E+000	0.0000000E+000	-40.6907	0.0000000E+000	0.0000000E+000	0.0000000E+000	-49.3093	0.0000000E+000	0.0000000E+000	0.0000000E+000	49.3093	0.859855	40.6907	-3.42335e-06
794333	3.55501	3.20534	4.78668	-42.0392	120.773	0.459516	-0.00226249	0.0625091	0.02803	1	38	0.0138949	0.00290282	0	-2.85665e-06	-1	-1	-1	0	0	0	0	0	0	-1	-1	-1	0	0	0	0	0	0	0.155157	0.139896	0.208913	42.0392	28.03	31.0877	41.8585	-47.9608	0.0000000E+000	0.0000000E+000	0.0000000E+000	47.9608	0.0000000E+000	0.0000000E+000	0.0000000E+000	-47.9608	0.0000000E+000	0.0000000E+000	0.0000000E+000	-42.0392	0.0000000E+000	0.0000000E+000	0.0000000E+000	42.0392	1.10909	47.9608	5.66696e-07
630957	3.5385	2.51969	4.34394	-35.4538	121.92	0.459535	-0.00271118	0.100109	0.0336821	1	38	0.0144516	0.00332684	0	-1.03216e-06	-1	-1	-1	0	0	0	0	0	0	-1	-1	-1	0	0	0	0	0	0	0.187522	0.13353	0.230206	35.4538	33.6821	47.3012	58.068	-54.5462	0.0000000E+000	0.0000000E+000	0.0000000E+000	54.5462	0.0000000E+000	0.0000000E+000	0.0000000E+000	-54.5462	0.0000000E+000	0.0000000E+000	0.0000000E+000	-35.4538	0.0000000E+000	0.0000000E+000	0.0000000E+000	35.4538	1.40434	54.5462	1.82449e-06
501206	3.50519	2.02578	4.04848	-30.0252	123.067	0.459517	-0.00267766	0.156751	0.0392476	1	38	0.0145672	0.00359819	0	-1.16444e-06	-1	-1	-1	0	0	0	0	0	0	-1	-1	-1	0	0	0	0	0	0	0.213859	0.123597	0.247006	30.0252	39.2476	67.9097	78.4353	-59.9748	0.0000000E+000	0.0000000E+000	0.0000000E+000	59.9748	0.0000000E+000	0.0000000E+000	0.0000000E+000	-59.9748	0.0000000E+000	0.0000000E+000	0.0000000E+000	-30.0252	0.0000000E+000	0.0000000E+000	0.0000000E+000	30.0252	1.73029	59.9748	-1.32281e-07
398103	3.46613	1.62929	3.82997	-25.1763	124.215	0.459552	-0.0014376	0.245373	0.044405	1	38	0.0145716	0.00380463	0	-3.58917e-07	-1	-1	-1	0	0	0	0	0	0	-1	-1	-1	0	0	0	0	0	0	0.236295	0.111073	0.261099	25.1763	44.405	94.4668	104.383	-64.8237	0.0000000E+000	0.0000000E+000	0.0000000E+000	64.8237	0.0000000E+000	0.0000000E+000	0.0000000E+000	-64.8237	0.0000000E+000	0.0000000E+000	0.0000000E+000	-25.1763	0.0000000E+000	0.0000000E+000	0.0000000E+000	25.1763	2.12739	64.8237	8.05523e-07
316230	3.43905	1.35847	3.69763	-21.5546	125.362	0.459532	-0.00118996	0.370483	0.0500056	1	38	0.0145869	0.00394494	0	-2.78537e-06	-1	-1	-1	0	0	0	0	0	0	-1	-1	-1	0	0	0	0	0	0	0.251531	0.0993578	0.270444	21.5546	50.0056	126.593	136.111	-68.4454	0.0000000E+000	0.0000000E+000	0.0000000E+000	68.4454	0.0000000E+000	0.0000000E+000	0.0000000E+000	-68.4454	0.0000000E+000	0.0000000E+000	0.0000000E+000	-21.5546	0.0000000E+000	0.0000000E+000	0.0000000E+000	21.5546	2.53157	68.4454	-2.42645e-06
251188	3.40971	1.17564	3.60669	-19.0239	126.509	0.459542	-0.00186957	0.538947	0.0572637	1	38	0.0145484	0.00403373	0	-4.45221e-06	-1	-1	-1	0	0	0	0	0	0	-1	-1	-1	0	0	0	0	0	0	0.262119	0.090377	0.277262	19.0239	57.2637	166.081	175.676	-70.9761	0.0000000E+000	0.0000000E+000	0.0000000E+000	70.9761	0.0000000E+000	0.0000000E+000	0.0000000E+000	-70.9761	0.0000000E+000	0.0000000E+000	0.0000000E+000	-19.0239	0.0000000E+000	0.0000000E+000	0.0000000E+000	19.0239	2.90029	70.9761	-1.66685e-06
199544	3.40398	1.07627	3.57008	-17.5459	127.656	0.45953	-0.00124023	0.741072	0.0673518	1	38	0.0145746	0.00408243	0	-4.98176e-06	-1	-1	-1	0	0	0	0	0	0	-1	-1	-1	0	0	0	0	0	0	0.267074	0.0844436	0.280106	17.5459	67.3518	213.017	223.411	-72.4541	0.0000000E+000	0.0000000E+000	0.0000000E+000	72.4541	0.0000000E+000	0.0000000E+000	0.0000000E+000	-72.4541	0.0000000E+000	0.0000000E+000	0.0000000E+000	-17.5459	0.0000000E+000	0.0000000E+000	0.0000000E+000	17.5459	3.16275	72.4541	-5.2955e-07
158486	3.39404	1.01008	3.54115	-16.5731	128.803	0.459513	-0.0016871	0.994203	0.0808897	1	38	0.0145626	0.00411238	0	-1.38276e-05	-1	-1	-1	0	0	0	0	0	0	-1	-1	-1	0	0	0	0	0	0	0.270662	0.0805498	0.282394	16.5731	80.8897	271.804	283.586	-73.4269	0.0000000E+000	0.0000000E+000	0.0000000E+000	73.4269	0.0000000E+000	0.0000000E+000	0.0000000E+000	-73.4269	0.0000000E+000	0.0000000E+000	0.0000000E+000	-16.5731	0.0000000E+000	0.0000000E+000	0.0000000E+000	16.5731	3.36019	73.4269	-8.84579e-06
125909	3.40156	1.00917	3.5481	-16.5246	129.951	0.45951	-0.00185654	1.25255	0.10133	1	38	0.0145359	0.00409683	0	-1.10878e-05	-1	-1	-1	0	0	0	0	0	0	-1	-1	-1	0	0	0	0	0	0	0.2702	0.080163	0.281841	16.5246	101.33	341.545	356.26	-73.4754	0.0000000E+000	0.0000000E+000	0.0000000E+000	73.4754	0.0000000E+000	0.0000000E+000	0.0000000E+000	-73.4754	0.0000000E+000	0.0000000E+000	0.0000000E+000	-16.5246	0.0000000E+000	0.0000000E+000	0.0000000E+000	16.5246	3.37064	73.4754	2.7398e-06
100004	3.41317	1.05902	3.57369	-17.2379	131.097	0.459544	-0.000901365	1.50279	0.13197	1	38	0.0145136	0.00406123	0	-1.70476e-05	0.550324	0.296468	9.15164	1.87547e-05	2.28326e-05	4.18718e-05	3.53507e-05	3.94723e-05	1.24901e-05	0.0665494	0.0493717	0.708822	1.44916e-06	1.42379e-06	7.70918e-07	4.42284e-07	1.03197e-06	8.57761e-07	0.267254	0.0829225	0.279823	17.2379	131.97	425.333	445.336	-72.7621	0.0000000E+000	0.0000000E+000	0.0000000E+000	72.7621	0.0000000E+000	0.0000000E+000	0.0000000E+000	-72.7621	0.0000000E+000	0.0000000E+000	0.0000000E+000	-17.2379	0.0000000E+000	0.0000000E+000	0.0000000E+000	17.2379	3.22294	72.7621	-5.95986e-06
79433.3	3.43704	1.16889	3.63037	-18.7824	132.245	0.459546	-0.000596008	1.71414	0.177701	1	38	0.0146157	0.00402594	0	-1.25066e-05	0.447151	0.367841	9.05519	2.97049e-05	1.47526e-05	4.5478e-05	1.38238e-05	1.05657e-05	2.44273e-05	0.0518162	0.0511041	0.727989	1.22886e-06	1.01859e-06	7.37e-07	7.53745e-07	4.17066e-07	5.63239e-07	0.260786	0.0886893	0.275454	18.7824	177.701	522.518	551.908	-71.2176	0.0000000E+000	0.0000000E+000	0.0000000E+000	71.2176	0.0000000E+000	0.0000000E+000	0.0000000E+000	-71.2176	0.0000000E+000	0.0000000E+000	0.0000000E+000	-18.7824	0.0000000E+000	0.0000000E+000	0.0000000E+000	18.7824	2.94044	71.2176	4.54098e-06
63093.8	3.46771	1.31521	3.70875	-20.7704	133.392	0.459508	-0.00183793	1.91795	0.241198	1	38	0.0145767	0.00393035	0	-1.98574e-05	0.404332	0.42255	9.30173	2.26689e-05	2.44458e-05	2.86067e-05	1.3641e-05	2.56084e-05	1.16983e-05	0.0611705	0.0544332	0.739668	1.38095e-06	1.20351e-06	8.70287e-07	5.42909e-07	7.05942e-07	4.87967e-07	0.252109	0.0956182	0.269633	20.7704	241.198	635.948	680.152	-69.2296	0.0000000E+000	0.0000000E+000	0.0000000E+000	69.2296	0.0000000E+000	0.0000000E+000	0.0000000E+000	-69.2296	0.0000000E+000	0.0000000E+000	0.0000000E+000	-20.7704	0.0000000E+000	0.0000000E+000	0.0000000E+000	20.7704	2.63662	69.2296	-7.35078e-06
50122.5	3.49932	1.52816	3.81844	-23.591	134.539	0.459538	-0.00171318	2.07788	0.332801	1	38	0.0145714	0.00381606	0	-2.55987e-05	0.531864	0.354902	9.11297	3.34296e-05	3.18114e-05	2.30848e-05	3.21697e-05	3.25308e-05	2.26482e-05	0.0635803	0.0364443	0.772294	1.04238e-06	1.43048e-06	7.4352e-07	8.3462e-07	8.51639e-07	5.53626e-07	0.24	0.104808	0.261887	23.591	332.801	762.077	831.576	-66.409	0.0000000E+000	0.0000000E+000	0.0000000E+000	66.409	0.0000000E+000	0.0000000E+000	0.0000000E+000	-66.409	0.0000000E+000	0.0000000E+000	0.0000000E+000	-23.591	0.0000000E+000	0.0000000E+000	0.0000000E+000	23.591	2.28989	66.409	-5.74126e-06
39814.1	3.56067	1.80555	3.99229	-26.8887	135.685	0.459519	-0.00280427	2.21399	0.452844	1	38	0.0146493	0.0036694	0	-3.16702e-05	0.460276	0.384326	9.31955	2.25514e-05	1.28941e-05	2.75609e-05	2.89949e-05	1.99155e-05	3.35737e-05	0.0622729	0.0790833	0.805172	9.48655e-07	1.33085e-06	5.2309e-07	8.45701e-07	6.56724e-07	4.62384e-07	0.223402	0.113283	0.250483	26.8887	452.844	893.041	1001.29	-63.1113	0.0000000E+000	0.0000000E+000	0.0000000E+000	63.1113	0.0000000E+000	0.0000000E+000	0.0000000E+000	-63.1113	0.0000000E+000	0.0000000E+000	0.0000000E+000	-26.8887	0.0000000E+000	0.0000000E+000	0.0000000E+000	26.8887	1.97207	63.1113	-6.07152e-06
31621.1	3.61007	2.16856	4.21133	-30.9931	136.832	0.459538	-0.00229038	2.32098	0.615426	1	38	0.0147237	0.00349621	0	-3.61463e-05	0.494549	0.329503	8.90948	3.15314e-05	2.6598e-05	3.40735e-05	2.09023e-05	2.66404e-05	2.36414e-05	0.0554339	0.0893275	0.822959	7.50087e-07	9.69083e-07	7.08813e-07	7.81722e-07	7.96232e-07	4.0871e-07	0.203553	0.122274	0.237455	30.9931	615.426	1024.52	1195.15	-59.0069	0.0000000E+000	0.0000000E+000	0.0000000E+000	59.0069	0.0000000E+000	0.0000000E+000	0.0000000E+000	-59.0069	0.0000000E+000	0.0000000E+000	0.0000000E+000	-30.9931	0.0000000E+000	0.0000000E+000	0.0000000E+000	30.9931	1.66473	59.0069	-4.47608e-06
25116.9	3.6776	2.62572	4.51875	-35.526	137.978	0.459522	-0.00111924	2.41327	0.814827	1	38	0.0147418	0.00326236	0	-4.20249e-05	0.471876	0.304355	9.15199	2.55787e-05	3.09168e-05	1.82584e-05	2.41766e-05	3.66521e-05	2.34112e-05	0.0585225	0.115504	0.900582	6.41554e-07	1.03663e-06	7.09349e-07	6.72955e-07	6.34137e-07	6.47592e-07	0.180106	0.128591	0.2213	35.526	814.827	1141.25	1402.28	-54.474	0.0000000E+000	0.0000000E+000	0.0000000E+000	54.474	0.0000000E+000	0.0000000E+000	0.0000000E+000	-54.474	0.0000000E+000	0.0000000E+000	0.0000000E+000	-35.526	0.0000000E+000	0.0000000E+000	0.0000000E+000	35.526	1.40061	54.474	-5.87868e-06
19948.8	3.77288	3.19478	4.94381	-40.2571	139.124	0.459531	-0.00136504	2.49725	1.04285	1	38	0.0147859	0.00299078	0	-4.72695e-05	0.616443	0.309874	8.96115	4.94575e-05	3.41487e-05	2.53723e-05	3.25446e-05	2.84802e-05	3.23388e-05	0.0610659	0.065043	0.968038	9.82574e-07	8.19514e-07	5.06717e-07	4.5081e-07	6.19782e-07	6.99052e-07	0.154365	0.130713	0.202273	40.2571	1042.85	1231.55	1613.77	-49.7429	0.0000000E+000	0.0000000E+000	0.0000000E+000	49.7429	0.0000000E+000	0.0000000E+000	0.0000000E+000	-49.7429	0.0000000E+000	0.0000000E+000	0.0000000E+000	-40.2571	0.0000000E+000	0.0000000E+000	0.0000000E+000	40.2571	1.18095	49.7429	-5.2445e-06
15847.7	3.89588	3.9062	5.51691	-45.0758	140.271	0.459526	-0.00122167	2.57099	1.28889	1	38	0.0147586	0.00267515	0	-5.39575e-05	0.506188	0.375297	9.00223	2.00322e-05	3.50685e-05	2.32804e-05	2.63293e-05	2.33788e-05	3.15998e-05	0.110698	0.17824	1.0902	2.26546e-06	1.14719e-06	8.06188e-07	8.62157e-07	5.27897e-07	5.65957e-07	0.128001	0.12834	0.181261	45.0758	1288.89	1285.49	1820.37	-44.9242	0.0000000E+000	0.0000000E+000	0.0000000E+000	44.9242	0.0000000E+000	0.0000000E+000	0.0000000E+000	-44.9242	0.0000000E+000	0.0000000E+000	0.0000000E+000	-45.0758	0.0000000E+000	0.0000000E+000	0.0000000E+000	45.0758	0.997358	44.9242	-6.68801e-06
12590.9	4.03325	4.79593	6.26642	-49.9371	141.418	0.459531	-0.00167785	2.63566	1.54382	1	38	0.0148003	0.00236185	0	-5.89986e-05	0.477909	0.497896	9.04125	3.53655e-05	3.26372e-05	2.24009e-05	1.80076e-05	2.96293e-05	1.92686e-05	0.138426	0.190759	1.25195	2.85997e-06	6.05356e-07	8.83804e-07	5.67049e-07	6.2898e-07	5.99575e-07	0.102711	0.122133	0.159581	49.9371	1543.82	1298.31	2017.17	-40.0629	0.0000000E+000	0.0000000E+000	0.0000000E+000	40.0629	0.0000000E+000	0.0000000E+000	0.0000000E+000	-40.0629	0.0000000E+000	0.0000000E+000	0.0000000E+000	-49.9371	0.0000000E+000	0.0000000E+000	0.0000000E+000	49.9371	0.840973	40.0629	-5.0411e-06
10002.2	4.21824	5.90153	7.25407	-54.444	142.564	0.459512	-0.00173558	2.69624	1.78453	1	38	0.014564	0.0020077	0	-6.25914e-05	0.518792	0.346015	9.14827	3.42171e-05	2.2058e-05	2.82215e-05	3.07923e-05	3.48558e-05	2.30078e-05	0.195752	0.185184	1.45207	3.72963e-06	6.73753e-07	6.90559e-07	3.78085e-07	3.99385e-07	2.15912e-07	0.0801617	0.11215	0.137854	54.444	1784.53	1275.53	2193.52	-35.556	0.0000000E+000	0.0000000E+000	0.0000000E+000	35.556	0.0000000E+000	0.0000000E+000	0.0000000E+000	-35.556	0.0000000E+000	0.0000000E+000	0.0000000E+000	-54.444	0.0000000E+000	0.0000000E+000	0.0000000E+000	54.444	0.71477	35.556	-3.59284e-06
7944	4.47121	7.25121	8.51891	-58.3414	143.741	0.459398	-0.00157173	2.76293	2.00182	1	38	0.0145159	0.00170396	0	-6.58407e-05	0.446522	0.292277	9.29613	3.36038e-05	2.22129e-05	2.49845e-05	2.27101e-05	1.95515e-05	2.64762e-05	0.304012	0.165244	1.73368	4.85268e-06	8.90702e-07	5.68117e-07	1.23643e-06	5.19107e-07	5.1034e-07	0.0616108	0.0999178	0.117386	58.3414	2001.82	1234.35	2351.78	-31.6586	0.0000000E+000	0.0000000E+000	0.0000000E+000	31.6586	0.0000000E+000	0.0000000E+000	0.0000000E+000	-31.6586	0.0000000E+000	0.0000000E+000	0.0000000E+000	-58.3414	0.0000000E+000	0.0000000E+000	0.0000000E+000	58.3414	0.616615	31.6586	-3.24927e-06
6307.74	4.78307	8.91928	10.1208	-61.797	144.796	0.45941	-0.00174491	2.82889	2.19707	1	38	0.0143494	0.00141781	0	-6.74112e-05	0.564331	0.272639	9.31855	4.9166e-05	1.92055e-05	2.40718e-05	1.5248e-05	3.29257e-05	3.51042e-05	0.49403	0.121154	2.04646	6.75921e-06	1.08496e-06	7.08338e-07	9.20601e-07	5.4622e-07	3.75716e-07	0.0466954	0.0870757	0.098806	61.797	2197.07	1178.2	2493.05	-28.203	0.0000000E+000	0.0000000E+000	0.0000000E+000	28.203	0.0000000E+000	0.0000000E+000	0.0000000E+000	-28.203	0.0000000E+000	0.0000000E+000	0.0000000E+000	-61.797	0.0000000E+000	0.0000000E+000	0.0000000E+000	61.797	0.536262	28.203	-1.57057e-06
5011.6	5.19468	10.9372	12.1082	-64.5944	145.915	0.45942	-0.00234445	2.9036	2.36916	1	38	0.013617	0.00112461	0	-6.87681e-05	0.663731	0.351978	9.80407	4.65015e-05	3.37109e-05	3.42344e-05	3.63494e-05	2.47877e-05	2.56386e-05	0.602787	0.145388	2.59144	6.35488e-06	1.75774e-06	8.91795e-07	6.58708e-07	8.71366e-07	4.1387e-07	0.0354326	0.0746021	0.082589	64.5944	2369.16	1125.24	2622.8	-25.4056	0.0000000E+000	0.0000000E+000	0.0000000E+000	25.4056	0.0000000E+000	0.0000000E+000	0.0000000E+000	-25.4056	0.0000000E+000	0.0000000E+000	0.0000000E+000	-64.5944	0.0000000E+000	0.0000000E+000	0.0000000E+000	64.5944	0.474955	25.4056	-1.35682e-06
3981.28	5.71727	13.4212	14.5882	-66.9265	147.021	0.459404	-0.00268706	2.97857	2.52108	1	38	0.0129501	0.000887711	0	-6.87389e-05	0.590349	0.301498	10.3856	4.72939e-05	2.39118e-05	2.14736e-05	2.66146e-05	2.54877e-05	2.52048e-05	0.687529	0.163181	3.29901	5.70472e-06	1.74233e-06	3.98442e-07	7.50651e-07	3.33762e-07	5.32754e-07	0.026865	0.063065	0.0685487	66.9265	2521.08	1073.95	2740.29	-23.0735	0.0000000E+000	0.0000000E+000	0.0000000E+000	23.0735	0.0000000E+000	0.0000000E+000	0.0000000E+000	-23.0735	0.0000000E+000	0.0000000E+000	0.0000000E+000	-66.9265	0.0000000E+000	0.0000000E+000	0.0000000E+000	66.9265	0.425989	23.0735	2.91715e-08
3163.04	6.37483	16.4209	17.6149	-68.7831	148.348	0.459383	-0.00286022	3.06421	2.66289	1	38	0.0139508	0.000791986	0	-6.95026e-05	0.454515	0.266176	9.59679	3.04497e-05	1.94015e-05	2.66942e-05	1.74155e-05	2.26998e-05	1.8919e-05	0.857158	0.16831	3.63226	6.00008e-06	2.39047e-06	6.26228e-07	1.65899e-06	6.2755e-07	4.21025e-07	0.0205451	0.0529221	0.0567701	68.7831	2662.89	1033.77	2856.51	-21.2169	0.0000000E+000	0.0000000E+000	0.0000000E+000	21.2169	0.0000000E+000	0.0000000E+000	0.0000000E+000	-21.2169	0.0000000E+000	0.0000000E+000	0.0000000E+000	-68.7831	0.0000000E+000	0.0000000E+000	0.0000000E+000	68.7831	0.388214	21.2169	-7.63686e-07
2512.41	7.23574	20.1015	21.3642	-70.2032	149.454	0.459392	-0.00246549	3.15138	2.78989	1	38	0.0135998	0.000636573	0	-6.98194e-05	0.566538	0.195906	9.69066	2.95721e-05	4.5441e-05	2.26125e-05	2.68697e-05	1.972e-05	2.55334e-05	0.821649	0.208867	4.6128	4.33116e-06	2.00722e-06	6.94236e-07	1.58891e-06	7.46733e-07	6.17071e-07	0.015853	0.044041	0.0468074	70.2032	2789.89	1004.25	2965.13	-19.7968	0.0000000E+000	0.0000000E+000	0.0000000E+000	19.7968	0.0000000E+000	0.0000000E+000	0.0000000E+000	-19.7968	0.0000000E+000	0.0000000E+000	0.0000000E+000	-70.2032	0.0000000E+000	0.0000000E+000	0.0000000E+000	70.2032	0.35996	19.7968	-3.16861e-07
1995.64	8.348	24.5895	25.9679	-71.2479	150.56	0.459413	-0.00204284	3.24332	2.90813	1	38	0.0133708	0.000514899	0	-7.07796e-05	0.652363	0.285774	10.1032	3.76091e-05	3.06661e-05	4.647e-05	2.82949e-05	3.01215e-05	2.43054e-05	0.878056	0.17641	5.68092	3.02872e-06	2.76692e-06	5.26047e-07	1.47341e-06	5.21555e-07	8.82766e-07	0.0123797	0.036465	0.0385091	71.2479	2908.13	987.296	3071.16	-18.7521	0.0000000E+000	0.0000000E+000	0.0000000E+000	18.7521	0.0000000E+000	0.0000000E+000	0.0000000E+000	-18.7521	0.0000000E+000	0.0000000E+000	0.0000000E+000	-71.2479	0.0000000E+000	0.0000000E+000	0.0000000E+000	71.2479	0.339495	18.7521	-9.60114e-07
1584.49	9.72588	29.9155	31.4568	-71.9901	151.667	0.459397	-0.00247481	3.35763	3.03667	1	38	0.0131862	0.000419184	0	-7.12906e-05	0.61822	0.364485	9.94747	3.06381e-05	3.6347e-05	3.00327e-05	3.8318e-05	2.71037e-05	3.07554e-05	0.840665	0.263672	6.822	2.52015e-06	1.61223e-06	4.20183e-07	1.49965e-06	7.58524e-07	3.70038e-07	0.00982878	0.030232	0.0317896	71.9901	3036.67	987.256	3193.12	-18.0099	0.0000000E+000	0.0000000E+000	0.0000000E+000	18.0099	0.0000000E+000	0.0000000E+000	0.0000000E+000	-18.0099	0.0000000E+000	0.0000000E+000	0.0000000E+000	-71.9901	0.0000000E+000	0.0000000E+000	0.0000000E+000	71.9901	0.325112	18.0099	-5.11088e-07
1258.79	11.428	36.5895	38.3326	-72.6548	153.028	0.459374	-4.9969e-05	3.45549	3.14837	1	39	0.0147325	0.000384332	0	-7.20826e-05	0.479279	0.320692	8.66282	3.49547e-05	2.79129e-05	2.64033e-05	1.26421e-05	2.85491e-05	2.57013e-05	1.34358	0.144312	3.45981	4.59841e-06	2.25389e-06	1.58257e-07	4.6994e-07	2.98767e-07	1.61015e-07	0.0077774	0.0249011	0.0260874	72.6548	3148.37	983.334	3298.36	-17.3452	0.0000000E+000	0.0000000E+000	0.0000000E+000	17.3452	0.0000000E+000	0.0000000E+000	0.0000000E+000	-17.3452	0.0000000E+000	0.0000000E+000	0.0000000E+000	-72.6548	0.0000000E+000	0.0000000E+000	0.0000000E+000	72.6548	0.312331	17.3452	-7.91921e-07
999.682	13.6647	44.6176	46.6632	-72.9721	154.134	0.459378	-0.000121356	3.56822	3.26224	1	39	0.0140694	0.000301509	0	-7.22742e-05	0.381043	0.31098	8.82856	1.28173e-05	2.62355e-05	1.98641e-05	1.85148e-05	2.50773e-05	1.53761e-05	1.2082	0.154226	4.23548	2.96349e-06	1.90802e-06	1.85669e-07	7.88626e-07	2.73954e-07	2.5536e-07	0.00627554	0.0204907	0.0214302	72.9721	3262.24	999.102	3411.8	-17.0279	0.0000000E+000	0.0000000E+000	0.0000000E+000	17.0279	0.0000000E+000	0.0000000E+000	0.0000000E+000	-17.0279	0.0000000E+000	0.0000000E+000	0.0000000E+000	-72.9721	0.0000000E+000	0.0000000E+000	0.0000000E+000	72.9721	0.306263	17.0279	-1.91646e-07
794.239	16.3888	54.0036	56.4356	-73.1182	155.24	0.459402	-0.000411364	3.71062	3.3977	1	39	0.0136163	0.000241271	0	-7.24834e-05	0.471722	0.204604	9.42898	3.24662e-05	2.21985e-05	1.40536e-05	3.41309e-05	1.26113e-05	2.67122e-05	1.09934	0.173303	5.53986	2.03601e-06	1.33029e-06	1.70768e-07	8.6964e-07	3.61712e-07	2.90642e-07	0.00514565	0.0169557	0.0177193	73.1182	3397.7	1031.12	3550.71	-16.8818	0.0000000E+000	0.0000000E+000	0.0000000E+000	16.8818	0.0000000E+000	0.0000000E+000	0.0000000E+000	-16.8818	0.0000000E+000	0.0000000E+000	0.0000000E+000	-73.1182	0.0000000E+000	0.0000000E+000	0.0000000E+000	73.1182	0.303476	16.8818	-2.09156e-07
631.01	19.7654	65.6756	68.5854	-73.2506	156.343	0.459445	3.33371e-05	3.84043	3.52148	1	39	0.0133748	0.00019501	0	-7.268e-05	0.55466	0.36511	9.56072	2.0826e-05	3.35983e-05	2.27936e-05	3.20288e-05	3.92291e-05	2.34448e-05	1.115	0.250774	6.83211	1.5253e-06	1.03347e-06	2.43085e-07	9.99887e-07	3.4252e-07	1.98918e-07	0.00420186	0.0139618	0.0145804	73.2506	3521.48	1059.8	3677.5	-16.7494	0.0000000E+000	0.0000000E+000	0.0000000E+000	16.7494	0.0000000E+000	0.0000000E+000	0.0000000E+000	-16.7494	0.0000000E+000	0.0000000E+000	0.0000000E+000	-73.2506	0.0000000E+000	0.0000000E+000	0.0000000E+000	73.2506	0.300954	16.7494	-1.96652e-07
501.122	24.2596	79.3314	82.9578	-72.9963	157.448	0.459404	0.00029147	4.00342	3.66106	1	39	0.0131724	0.000158784	0	-7.26209e-05	0.558961	0.302968	9.33952	4.37246e-05	1.38827e-05	2.24946e-05	1.88983e-05	2.22683e-05	1.86559e-05	1.02414	0.234496	8.18969	1.18124e-06	7.49454e-07	2.46068e-07	6.98712e-07	2.55517e-07	1.35182e-07	0.00352508	0.0115274	0.0120543	72.9963	3661.06	1119.56	3828.41	-17.0037	0.0000000E+000	0.0000000E+000	0.0000000E+000	17.0037	0.0000000E+000	0.0000000E+000	0.0000000E+000	-17.0037	0.0000000E+000	0.0000000E+000	0.0000000E+000	-72.9963	0.0000000E+000	0.0000000E+000	0.0000000E+000	72.9963	0.305801	17.0037	5.91181e-08
398.089	29.7049	96.2939	100.772	-72.8559	158.557	0.459408	-0.000244185	4.15184	3.79108	1	39	0.0130998	0.000129995	0	-7.26395e-05	0.561666	0.389953	9.89741	3.4491e-05	2.62754e-05	3.22176e-05	2.87133e-05	2.489e-05	2.25742e-05	0.995216	0.342053	10.5182	7.66728e-07	6.43446e-07	3.15477e-07	5.27158e-07	3.12389e-07	2.85781e-07	0.00292518	0.00948251	0.00992344	72.8559	3791.08	1169.48	3967.36	-17.1441	0.0000000E+000	0.0000000E+000	0.0000000E+000	17.1441	0.0000000E+000	0.0000000E+000	0.0000000E+000	-17.1441	0.0000000E+000	0.0000000E+000	0.0000000E+000	-72.8559	0.0000000E+000	0.0000000E+000	0.0000000E+000	72.8559	0.308482	17.144	-1.86433e-08
316.316	36.2801	115.637	121.194	-72.5812	159.661	0.459413	-3.20852e-05	4.35115	3.96123	1	39	0.0129861	0.000107151	0	-7.2725e-05	0.529199	0.287382	9.72846	2.84676e-05	2.30191e-05	1.66409e-05	3.68069e-05	2.26601e-05	2.64164e-05	1.10598	0.414531	12.0547	8.85324e-07	5.44507e-07	2.99284e-07	3.20391e-07	1.42922e-07	1.92009e-07	0.00247004	0.00787283	0.00825121	72.5812	3961.23	1242.8	4151.61	-17.4188	0.0000000E+000	0.0000000E+000	0.0000000E+000	17.4188	0.0000000E+000	0.0000000E+000	0.0000000E+000	-17.4188	0.0000000E+000	0.0000000E+000	0.0000000E+000	-72.5812	0.0000000E+000	0.0000000E+000	0.0000000E+000	72.5812	0.313742	17.4188	-8.54826e-08
251.206	45.2127	139.978	147.099	-72.0997	160.766	0.459399	-0.000167211	4.52615	4.09856	1	39	0.0129771	8.822e-05	0	-7.29088e-05	0.453097	0.233719	9.69701	2.91255e-05	2.36971e-05	2.26869e-05	8.32529e-06	3.16525e-05	1.24662e-05	1.1546	0.441554	14.7563	6.19999e-07	5.9896e-07	2.13977e-07	2.01732e-07	2.9454e-07	1.30437e-07	0.00208949	0.00646906	0.00679814	72.0997	4098.56	1323.82	4307.05	-17.9003	0.0000000E+000	0.0000000E+000	0.0000000E+000	17.9003	0.0000000E+000	0.0000000E+000	0.0000000E+000	-17.9003	0.0000000E+000	0.0000000E+000	0.0000000E+000	-72.0997	0.0000000E+000	0.0000000E+000	0.0000000E+000	72.0997	0.322997	17.9003	-1.83798e-07
199.553	55.8833	167.976	177.028	-71.5985	161.874	0.459414	4.32107e-05	4.74803	4.27488	1	39	0.0129335	7.30591e-05	0	-7.28512e-05	0.681889	0.218401	9.85898	1.61068e-05	4.49808e-05	3.88287e-05	4.47608e-05	2.10769e-05	2.30113e-05	1.29067	0.637301	18.0389	5.23573e-07	2.9915e-07	4.22859e-07	4.09854e-07	2.15505e-07	2.8161e-07	0.00178319	0.00535998	0.00564882	71.5985	4274.88	1422.19	4505.25	-18.4015	0.0000000E+000	0.0000000E+000	0.0000000E+000	18.4015	0.0000000E+000	0.0000000E+000	0.0000000E+000	-18.4015	0.0000000E+000	0.0000000E+000	0.0000000E+000	-71.5985	0.0000000E+000	0.0000000E+000	0.0000000E+000	71.5985	0.332686	18.4016	5.76297e-08
158.529	68.6425	201.211	212.597	-71.1631	162.985	0.459438	-0.000214365	4.98954	4.46938	1	39	0.0129143	6.07453e-05	0	-7.29075e-05	0.599335	0.303087	9.9503	3.3782e-05	1.91085e-05	3.49162e-05	2.86237e-05	1.56238e-05	3.80981e-05	1.47099	0.86732	21.7205	5.3188e-07	3.02983e-07	2.76353e-07	2.07146e-07	3.13766e-07	2.47538e-07	0.00151872	0.0044518	0.00470373	71.1631	4469.38	1524.72	4722.3	-18.8369	0.0000000E+000	0.0000000E+000	0.0000000E+000	18.8369	0.0000000E+000	0.0000000E+000	0.0000000E+000	-18.8369	0.0000000E+000	0.0000000E+000	0.0000000E+000	-71.1631	0.0000000E+000	0.0000000E+000	0.0000000E+000	71.1631	0.341147	18.8369	-5.63044e-08
125.927	85.1249	242.948	257.429	-70.6904	164.34	0.459431	-8.76782e-05	5.20223	4.63339	1	40	0.0132266	5.13794e-05	0	-7.2999e-05	0.558229	0.349221	15.2488	3.5182e-05	1.25068e-05	4.16222e-05	1.79032e-05	2.63755e-05	2.79166e-05	0.98784	0.111312	5.18892	3.79144e-07	2.05385e-07	6.15452e-08	2.36681e-07	3.40785e-08	8.25193e-08	0.00128452	0.00366604	0.00388456	70.6904	4633.39	1623.46	4909.58	-19.3096	0.0000000E+000	0.0000000E+000	0.0000000E+000	19.3096	0.0000000E+000	0.0000000E+000	0.0000000E+000	-19.3096	0.0000000E+000	0.0000000E+000	0.0000000E+000	-70.6904	0.0000000E+000	0.0000000E+000	0.0000000E+000	70.6904	0.350384	19.3096	-9.14791e-08
99.9682	106.796	289.488	308.559	-69.7502	165.421	0.459424	-7.96503e-05	5.49956	4.84074	1	40	0.0130708	4.23608e-05	0	-7.29956e-05	0.902979	0.439869	14.8647	4.21734e-05	4.04329e-05	3.73315e-05	4.35851e-05	5.34622e-05	5.76194e-05	1.04034	0.110921	6.10965	3.40315e-07	1.83348e-07	5.02035e-08	1.72606e-07	6.15718e-08	6.73252e-08	0.00112171	0.00304056	0.00324087	69.7502	4840.74	1785.82	5159.65	-20.2498	0.0000000E+000	0.0000000E+000	0.0000000E+000	20.2498	0.0000000E+000	0.0000000E+000	0.0000000E+000	-20.2498	0.0000000E+000	0.0000000E+000	0.0000000E+000	-69.7502	0.0000000E+000	0.0000000E+000	0.0000000E+000	69.7502	0.368915	20.2498	3.34037e-09
79.4157	132.791	345.761	370.384	-68.9904	166.492	0.459447	-9.33971e-05	5.79613	5.0511	1	40	0.0130041	3.51099e-05	0	-7.30153e-05	0.640346	0.438987	15.0937	4.21066e-05	3.5528e-05	4.24475e-05	2.31698e-05	1.40759e-05	3.28889e-05	0.972122	0.226078	7.40027	2.62135e-07	1.37571e-07	6.44595e-08	1.31273e-07	3.72657e-08	3.80694e-08	0.00096798	0.00252041	0.0026999	68.9904	5051.1	1939.9	5410.8	-21.0096	0.0000000E+000	0.0000000E+000	0.0000000E+000	21.0096	0.0000000E+000	0.0000000E+000	0.0000000E+000	-21.0096	0.0000000E+000	0.0000000E+000	0.0000000E+000	-68.9904	0.0000000E+000	0.0000000E+000	0.0000000E+000	68.9904	0.384056	21.0096	-1.96991e-08
63.0823	165.223	411.694	443.611	-68.1331	167.575	0.459456	-8.6226e-05	6.12827	5.27816	1	40	0.0129647	2.92254e-05	0	-7.30291e-05	0.704345	0.44825	15.5478	2.92852e-05	2.79729e-05	3.823e-05	5.3231e-05	1.85846e-05	3.21242e-05	1.01604	0.293703	9.09623	2.17757e-07	1.21293e-07	6.22694e-08	1.0689e-07	3.35427e-08	5.73099e-08	0.000839589	0.00209204	0.00225423	68.1331	5278.16	2118.26	5687.36	-21.8669	0.0000000E+000	0.0000000E+000	0.0000000E+000	21.8669	0.0000000E+000	0.0000000E+000	0.0000000E+000	-21.8669	0.0000000E+000	0.0000000E+000	0.0000000E+000	-68.1331	0.0000000E+000	0.0000000E+000	0.0000000E+000	68.1331	0.401325	21.8669	-1.37954e-08
50.1122	210.238	487.641	531.031	-66.6776	168.639	0.459448	-8.60212e-05	6.51292	5.49208	1	40	0.0129167	2.43238e-05	0	-7.30644e-05	0.75023	0.504544	15.8217	5.5509e-05	2.61252e-05	3.1478e-05	2.9305e-05	3.62557e-05	3.65152e-05	1.0284	0.379861	11.1805	1.82015e-07	9.36857e-08	3.71888e-08	1.16139e-07	3.60281e-08	5.2419e-08	0.000745539	0.00172926	0.00188313	66.6776	5492.08	2367.81	5980.76	-23.3224	0.0000000E+000	0.0000000E+000	0.0000000E+000	23.3224	0.0000000E+000	0.0000000E+000	0.0000000E+000	-23.3224	0.0000000E+000	0.0000000E+000	0.0000000E+000	-66.6776	0.0000000E+000	0.0000000E+000	0.0000000E+000	66.6776	0.431131	23.3224	-3.52783e-08
39.8089	262.66	576.042	633.099	-65.4883	169.709	0.459449	-0.000109659	6.94042	5.7458	1	40	0.0128937	2.03661e-05	0	-7.30579e-05	0.981595	0.436411	15.7384	3.34971e-05	4.65696e-05	4.3767e-05	7.31088e-05	4.04174e-05	4.55223e-05	1.13619	0.355475	13.1106	1.85701e-07	6.26157e-08	4.0871e-08	5.00175e-08	3.48719e-08	8.70689e-08	0.000655315	0.00143718	0.00157953	65.4883	5745.8	2619.93	6314.93	-24.5117	0.0000000E+000	0.0000000E+000	0.0000000E+000	24.5117	0.0000000E+000	0.0000000E+000	0.0000000E+000	-24.5117	0.0000000E+000	0.0000000E+000	0.0000000E+000	-65.4883	0.0000000E+000	0.0000000E+000	0.0000000E+000	65.4883	0.455974	24.5117	6.55338e-09
31.6296	329.443	677.696	753.528	-64.0746	170.749	0.45943	-9.45711e-05	7.42492	6.00569	1	40	0.0128837	1.70979e-05	0	-7.30513e-05	0.778084	0.470069	15.6773	3.92056e-05	5.74565e-05	1.64874e-05	4.21296e-05	3.15892e-05	3.20284e-05	1.04881	0.420535	15.5417	1.27985e-07	7.45788e-08	2.10489e-08	6.42586e-08	4.45604e-08	3.37467e-08	0.000580205	0.00119354	0.00132709	64.0746	6005.69	2919.5	6677.71	-25.9254	0.0000000E+000	0.0000000E+000	0.0000000E+000	25.9254	0.0000000E+000	0.0000000E+000	0.0000000E+000	-25.9254	0.0000000E+000	0.0000000E+000	0.0000000E+000	-64.0746	0.0000000E+000	0.0000000E+000	0.0000000E+000	64.0746	0.486123	25.9254	6.56272e-09
25.1206	418.449	794.936	898.345	-62.238	171.818	0.459408	-8.25569e-05	7.96999	6.24074	1	40	0.0129163	1.43778e-05	0	-7.30211e-05	0.783002	0.413824	15.4642	3.25158e-05	4.85745e-05	2.63159e-05	3.15618e-05	4.69931e-05	3.98461e-05	1.3504	0.583375	18.3311	1.12907e-07	7.97154e-08	4.72459e-08	6.49585e-08	7.94104e-08	5.64401e-08	0.000518509	0.000985022	0.00111316	62.238	6240.74	3285.08	7052.56	-27.762	0.0000000E+000	0.0000000E+000	0.0000000E+000	27.762	0.0000000E+000	0.0000000E+000	0.0000000E+000	-27.762	0.0000000E+000	0.0000000E+000	0.0000000E+000	-62.238	0.0000000E+000	0.0000000E+000	0.0000000E+000	62.238	0.526393	27.762	3.01788e-08
19.9553	517.721	918.835	1054.65	-60.6008	172.887	0.459436	-9.9228e-05	8.68007	6.58839	1	40	0.012884	1.22164e-05	0	-7.30714e-05	0.907613	0.527896	15.5505	6.98723e-05	3.17672e-05	3.2679e-05	3.55721e-05	4.53905e-05	4.27445e-05	1.26961	0.743562	22.0174	9.03612e-08	5.95877e-08	4.99336e-08	3.71712e-08	5.07731e-08	4.78302e-08	0.000465454	0.000826073	0.000948179	60.6008	6588.39	3712.25	7562.26	-29.3992	0.0000000E+000	0.0000000E+000	0.0000000E+000	29.3992	0.0000000E+000	0.0000000E+000	0.0000000E+000	-29.3992	0.0000000E+000	0.0000000E+000	0.0000000E+000	-60.6008	0.0000000E+000	0.0000000E+000	0.0000000E+000	60.6008	0.563453	29.3992	-5.03193e-08
15.8469	662.067	1060.6	1250.28	-58.0259	173.928	0.459363	-1.32532e-06	9.4695	6.81418	1	40	0.0128948	1.03135e-05	0	-7.30323e-05	0.789094	0.476206	15.3823	4.16398e-05	4.20531e-05	3.54895e-05	3.3462e-05	4.84727e-05	3.92651e-05	1.70238	0.757774	25.3709	1.21104e-07	3.93839e-08	5.57229e-08	6.27255e-08	4.97018e-08	5.79803e-08	0.000423535	0.000678479	0.000799822	58.0259	6814.18	4253.69	8032.86	-31.9741	0.0000000E+000	0.0000000E+000	0.0000000E+000	31.9741	0.0000000E+000	0.0000000E+000	0.0000000E+000	-31.9741	0.0000000E+000	0.0000000E+000	0.0000000E+000	-58.0259	0.0000000E+000	0.0000000E+000	0.0000000E+000	58.0259	0.624241	31.9741	3.91176e-08
12.5873	825.386	1195.78	1452.98	-55.3846	175.39	0.459445	-6.11558e-05	10.574	7.16176	1	41	0.012882	8.86592e-06	0	-7.31536e-05	0.712777	0.442196	13.7114	1.53917e-05	2.32575e-05	6.47789e-05	2.83255e-05	3.05769e-05	3.70987e-05	0.920206	0.140358	4.02363	6.70369e-08	3.32135e-08	2.0128e-08	2.29387e-08	6.12628e-09	7.21609e-09	0.000390967	0.000566412	0.000688242	55.3846	7161.76	4943.41	8702.19	-34.6154	0.0000000E+000	0.0000000E+000	0.0000000E+000	34.6154	0.0000000E+000	0.0000000E+000	0.0000000E+000	-34.6154	0.0000000E+000	0.0000000E+000	0.0000000E+000	-55.3846	0.0000000E+000	0.0000000E+000	0.0000000E+000	55.3846	0.690252	34.6154	-1.21269e-07
9.99682	1034.35	1338.41	1691.51	-52.3025	176.45	0.459408	-6.87604e-05	11.8952	7.44729	1	41	0.0128877	7.61904e-06	0	-7.3111e-05	1.00069	0.558368	20.0828	4.48315e-05	4.87606e-05	4.11071e-05	1.97902e-05	7.13402e-05	5.99057e-05	0.859499	0.237772	6.70074	5.38346e-08	2.66372e-08	8.72635e-09	1.39868e-08	1.36955e-08	9.63429e-09	0.000361507	0.000467778	0.000591188	52.3025	7447.29	5755.4	9412.05	-37.6975	0.0000000E+000	0.0000000E+000	0.0000000E+000	37.6975	0.0000000E+000	0.0000000E+000	0.0000000E+000	-37.6975	0.0000000E+000	0.0000000E+000	0.0000000E+000	-52.3025	0.0000000E+000	0.0000000E+000	0.0000000E+000	52.3025	0.772818	37.6975	4.25986e-08
7.93956	1267.17	1470.93	1941.49	-49.2559	177.66	0.459428	-6.57901e-05	13.628	7.82255	1	41	0.0128559	6.62171e-06	0	-7.31908e-05	0.684661	0.332236	13.5298	4.21459e-05	3.04531e-05	3.53386e-05	3.56362e-05	2.21234e-05	1.78451e-05	0.910499	0.164161	5.21448	5.01896e-08	2.56964e-08	6.41072e-09	1.60025e-08	9.27181e-09	5.86939e-09	0.000336176	0.000390234	0.00051507	49.2559	7822.55	6738.92	10325	-40.7441	0.0000000E+000	0.0000000E+000	0.0000000E+000	40.7441	0.0000000E+000	0.0000000E+000	0.0000000E+000	-40.7441	0.0000000E+000	0.0000000E+000	0.0000000E+000	-49.2559	0.0000000E+000	0.0000000E+000	0.0000000E+000	49.2559	0.861474	40.744	-7.97686e-08
6.31058	1538.18	1589.54	2211.93	-45.9406	179.044	0.459434	-6.89178e-05	15.8665	8.19367	1	41	0.0128598	5.81385e-06	0	-7.31939e-05	0.689764	0.408422	13.9086	5.04403e-05	3.05744e-05	2.86467e-05	3.76397e-05	1.93775e-05	2.80571e-05	0.979619	0.170203	6.18303	4.82197e-08	2.25806e-08	5.16431e-09	1.68732e-08	2.93582e-09	6.30066e-09	0.000314387	0.000324883	0.000452094	45.9406	8193.67	7928.95	11402	-44.0594	0.0000000E+000	0.0000000E+000	0.0000000E+000	44.0594	0.0000000E+000	0.0000000E+000	0.0000000E+000	-44.0594	0.0000000E+000	0.0000000E+000	0.0000000E+000	-45.9406	0.0000000E+000	0.0000000E+000	0.0000000E+000	45.9406	0.967693	44.0594	-3.13094e-09
5.01283	1847.87	1672.66	2492.47	-42.1509	180.662	0.459432	-6.28278e-05	18.9814	8.54841	1	41	0.0128652	5.16164e-06	0	-7.32392e-05	0.836372	0.442048	11.4451	3.64092e-05	3.60719e-05	4.36918e-05	5.03946e-05	3.36702e-05	3.97641e-05	0.874075	0.2935	5.76055	3.1882e-08	2.3273e-08	9.20286e-09	1.58377e-08	6.95165e-09	8.58842e-09	0.000297448	0.000269245	0.000401209	42.1509	8548.41	9443.83	12738.2	-47.8491	0.0000000E+000	0.0000000E+000	0.0000000E+000	47.8491	0.0000000E+000	0.0000000E+000	0.0000000E+000	-47.8491	0.0000000E+000	0.0000000E+000	0.0000000E+000	-42.1509	0.0000000E+000	0.0000000E+000	0.0000000E+000	42.1509	1.10475	47.8491	-4.52895e-08
3.9819	2182.99	1708.72	2772.21	-38.0518	182.583	0.45942	-6.31881e-05	23.3915	8.88685	1	41	0.0128626	4.63984e-06	0	-7.31791e-05	0.586751	0.267628	9.80612	2.4852e-05	3.48797e-05	4.1092e-05	2.15114e-05	2.701e-05	1.5151e-05	0.926232	0.182829	5.63265	3.58743e-08	1.80531e-08	8.97061e-09	9.2034e-09	3.99894e-09	3.4989e-09	0.000284053	0.00022234	0.000360723	38.0518	8886.85	11353.5	14417.9	-51.9482	0.0000000E+000	0.0000000E+000	0.0000000E+000	51.9482	0.0000000E+000	0.0000000E+000	0.0000000E+000	-51.9482	0.0000000E+000	0.0000000E+000	0.0000000E+000	-38.0518	0.0000000E+000	0.0000000E+000	0.0000000E+000	38.0518	1.27756	51.9482	6.01101e-08
3.16296	2516.76	1712.25	3043.99	-34.2289	184.892	0.459435	-6.1749e-05	29.3874	9.29838	1	41	0.0128846	4.23281e-06	0	-7.3303e-05	0.475444	0.223937	8.59996	2.06967e-05	9.8263e-06	3.8442e-05	2.47605e-05	2.00185e-05	1.81241e-05	0.830092	0.125006	5.36934	2.93558e-08	1.40795e-08	6.40005e-09	9.24434e-09	4.14672e-09	3.50349e-09	0.000271616	0.000184791	0.000328517	34.2289	9298.38	13667.3	16530.4	-55.7711	0.0000000E+000	0.0000000E+000	0.0000000E+000	55.7711	0.0000000E+000	0.0000000E+000	0.0000000E+000	-55.7711	0.0000000E+000	0.0000000E+000	0.0000000E+000	-34.2289	0.0000000E+000	0.0000000E+000	0.0000000E+000	34.2289	1.46986	55.7711	-1.23913e-07
2.51085	2839.53	1657.79	3288.04	-30.2776	187.696	0.459432	-6.2512e-05	38.2358	9.7198	1	41	0.0128721	3.91484e-06	0	-7.33619e-05	0.415986	0.320802	7.34032	2.67255e-05	1.59993e-05	1.67642e-05	1.58647e-05	1.4801e-05	2.99944e-05	0.759709	0.221361	5.05161	2.42889e-08	1.40809e-08	3.36274e-09	5.85894e-09	2.12467e-09	5.66595e-09	0.000262647	0.000153341	0.000304133	30.2776	9719.8	16648.4	19278.1	-59.7224	0.0000000E+000	0.0000000E+000	0.0000000E+000	59.7224	0.0000000E+000	0.0000000E+000	0.0000000E+000	-59.7224	0.0000000E+000	0.0000000E+000	0.0000000E+000	-30.2776	0.0000000E+000	0.0000000E+000	0.0000000E+000	30.2776	1.71283	59.7224	-5.88967e-08
1.99553	3136.66	1569.78	3507.54	-26.5862	191.119	0.459453	-6.60854e-05	50.807	10.1764	1	41	0.0128696	3.66913e-06	0	-7.33402e-05	0.324944	0.179492	6.58204	9.91297e-06	9.31086e-06	1.2423e-05	1.47627e-05	2.63338e-05	1.72485e-05	0.825217	0.0876065	4.92978	2.54383e-08	1.32289e-08	3.60934e-09	5.01353e-09	5.29186e-09	3.77517e-09	0.000254955	0.000127595	0.0002851	26.5862	10176.4	20334	22738.3	-63.4138	0.0000000E+000	0.0000000E+000	0.0000000E+000	63.4138	0.0000000E+000	0.0000000E+000	0.0000000E+000	-63.4138	0.0000000E+000	0.0000000E+000	0.0000000E+000	-26.5862	0.0000000E+000	0.0000000E+000	0.0000000E+000	26.5862	1.99816	63.4138	2.17029e-08
1.58533	3397.81	1463.24	3699.49	-23.2988	196.644	0.459428	-6.5651e-05	68.6096	10.7333	1	42	0.0128737	3.47986e-06	0	-7.33576e-05	0.324376	0.16707	5.95117	1.07543e-05	2.01529e-05	1.68345e-05	1.64472e-05	6.96122e-06	1.7854e-05	0.78602	0.0421309	1.29289	2.4442e-08	1.14109e-08	8.38696e-10	4.28682e-09	6.81153e-10	5.36718e-10	0.000248265	0.000106914	0.000270308	23.2988	10733.3	24924	27136.9	-66.7012	0.0000000E+000	0.0000000E+000	0.0000000E+000	66.7012	0.0000000E+000	0.0000000E+000	0.0000000E+000	-66.7012	0.0000000E+000	0.0000000E+000	0.0000000E+000	-23.2988	0.0000000E+000	0.0000000E+000	0.0000000E+000	23.2988	2.32211	66.7012	-1.74017e-08
1.25825	3626.88	1336.78	3865.39	-20.2327	201.854	0.459434	-6.49126e-05	94.6219	11.3169	1	42	0.0128676	3.32894e-06	0	-7.3674e-05	0.426377	0.191941	5.53132	1.35739e-05	1.86909e-05	3.50955e-05	1.97782e-05	2.21611e-05	1.35757e-05	0.777893	0.0551055	1.29033	2.30676e-08	1.08841e-08	6.95239e-10	4.30847e-09	5.77028e-10	4.97484e-10	0.000242743	8.94692e-05	0.000258706	20.2327	11316.8	30704.2	32723.4	-69.7673	0.0000000E+000	0.0000000E+000	0.0000000E+000	69.7673	0.0000000E+000	0.0000000E+000	0.0000000E+000	-69.7673	0.0000000E+000	0.0000000E+000	0.0000000E+000	-20.2327	0.0000000E+000	0.0000000E+000	0.0000000E+000	20.2327	2.71314	69.7673	-3.16438e-07
1.00006	3819.62	1209.58	4006.57	-17.5718	208.314	0.459441	-6.86005e-05	131.57	11.9918	1	42	0.0128667	3.2114e-06	0	-7.35237e-05	0.253712	0.213632	4.76035	1.87598e-05	3.95573e-06	1.22256e-05	9.02793e-06	1.58963e-05	1.28212e-05	0.772521	0.0576371	1.28546	2.22871e-08	1.02656e-08	6.22273e-10	3.53349e-09	5.11542e-10	3.49956e-10	0.000237944	7.53514e-05	0.00024959	17.5718	11991.8	37867.7	39721.1	-72.4282	0.0000000E+000	0.0000000E+000	0.0000000E+000	72.4282	0.0000000E+000	0.0000000E+000	0.0000000E+000	-72.4282	0.0000000E+000	0.0000000E+000	0.0000000E+000	-17.5718	0.0000000E+000	0.0000000E+000	0.0000000E+000	17.5718	3.1578	72.4282	1.50348e-07
0.79456	3982.4	1083.13	4127.07	-15.2152	216.33	0.45942	-6.75261e-05	184.932	12.7377	1	42	0.0128684	3.11804e-06	0	-7.39021e-05	0.205159	0.1452	4.14644	9.55282e-06	8.89097e-06	1.41098e-05	1.04109e-05	9.46449e-06	8.72701e-06	0.766835	0.0722134	1.32329	2.13583e-08	1.00732e-08	6.03368e-10	3.52646e-09	7.03355e-10	5.53604e-10	0.000233809	6.35913e-05	0.000242303	15.2152	12737.7	46833.3	48534.6	-74.7848	0.0000000E+000	0.0000000E+000	0.0000000E+000	74.7848	0.0000000E+000	0.0000000E+000	0.0000000E+000	-74.7848	0.0000000E+000	0.0000000E+000	0.0000000E+000	-15.2152	0.0000000E+000	0.0000000E+000	0.0000000E+000	15.2152	3.67675	74.7848	-3.78459e-07
0.630906	4117.87	972.834	4231.22	-13.2922	226.328	0.459447	-6.5632e-05	259.309	13.7077	1	42	0.0128625	3.03991e-06	0	-7.41544e-05	0.187905	0.13108	3.79956	5.28399e-06	1.33714e-05	8.94668e-06	1.24975e-05	6.20801e-06	7.05452e-06	0.763801	0.089561	1.53898	2.10278e-08	9.41396e-09	4.94621e-10	2.6199e-09	5.32284e-10	5.1752e-10	0.000230007	5.43385e-05	0.000236338	13.2922	13707.6	58022.5	59619.7	-76.7078	0.0000000E+000	0.0000000E+000	0.0000000E+000	76.7078	0.0000000E+000	0.0000000E+000	0.0000000E+000	-76.7078	0.0000000E+000	0.0000000E+000	0.0000000E+000	-13.2922	0.0000000E+000	0.0000000E+000	0.0000000E+000	13.2922	4.23286	76.7078	-2.52279e-07
0.500946	4236.21	871.523	4324.93	-11.6253	238.835	0.459446	-6.56438e-05	364.545	14.803	1	42	0.0128628	2.9741e-06	0	-7.401e-05	0.171449	0.0904169	3.36135	7.25753e-06	1.07832e-05	1.00558e-05	8.21746e-06	8.37562e-06	5.44468e-06	0.763985	0.0308967	1.38189	2.06023e-08	9.12027e-09	2.02704e-10	2.86692e-09	3.16849e-10	2.10822e-10	0.000226474	4.65929e-05	0.000231217	11.6253	14803	71952.9	73459.8	-78.3747	0.0000000E+000	0.0000000E+000	0.0000000E+000	78.3747	0.0000000E+000	0.0000000E+000	0.0000000E+000	-78.3747	0.0000000E+000	0.0000000E+000	0.0000000E+000	-11.6253	0.0000000E+000	0.0000000E+000	0.0000000E+000	11.6253	4.8607	78.3747	1.44419e-07
0.398211	4342.66	781.102	4412.35	-10.1966	254.485	0.45943	-6.64424e-05	511.681	16.0352	1	42	0.0128636	2.91536e-06	0	-7.43324e-05	0.189777	0.0587688	2.98197	1.26509e-05	6.64133e-06	1.0436e-05	7.42135e-06	1.0361e-05	7.35189e-06	0.780832	0.0611387	1.42551	2.07479e-08	8.86239e-09	4.88862e-10	2.91042e-09	2.98081e-10	3.55212e-10	0.000223057	4.01206e-05	0.000226637	10.1966	16035.2	89150.3	90580.9	-79.8034	0.0000000E+000	0.0000000E+000	0.0000000E+000	79.8034	0.0000000E+000	0.0000000E+000	0.0000000E+000	-79.8034	0.0000000E+000	0.0000000E+000	0.0000000E+000	-10.1966	0.0000000E+000	0.0000000E+000	0.0000000E+000	10.1966	5.55966	79.8034	-3.22389e-07
0.316193	4436.62	700.322	4491.56	-8.97013	274.111	0.459432	-6.70975e-05	718.738	17.4732	1	42	0.0128636	2.86394e-06	0	-7.51691e-05	0.178424	0.0996497	2.66193	9.29753e-06	7.81504e-06	6.77131e-06	1.08792e-05	7.7478e-06	6.63269e-06	0.788171	0.0375553	1.44397	2.07713e-08	8.44995e-09	2.59766e-10	2.52429e-09	1.32064e-10	2.64505e-10	0.000219917	3.47139e-05	0.00022264	8.97013	17473.2	110695	112065	-81.0299	0.0000000E+000	0.0000000E+000	0.0000000E+000	81.0299	0.0000000E+000	0.0000000E+000	0.0000000E+000	-81.0299	0.0000000E+000	0.0000000E+000	0.0000000E+000	-8.97013	0.0000000E+000	0.0000000E+000	0.0000000E+000	8.97013	6.33512	81.0299	-8.36747e-07
0.251222	4524.17	627.953	4567.55	-7.90214	298.729	0.459439	-6.56067e-05	1008.87	19.0689	1	42	0.012863	2.81617e-06	0	-7.58243e-05	0.167856	0.0533937	2.3627	5.97727e-06	1.23369e-05	6.69599e-06	1.02754e-05	5.24127e-06	8.65329e-06	0.777079	0.0475451	1.45712	2.01203e-08	8.2661e-09	2.59571e-10	2.34805e-09	2.05431e-10	2.10391e-10	0.000216857	3.00997e-05	0.000218936	7.90214	19068.9	137384	138701	-82.0979	0.0000000E+000	0.0000000E+000	0.0000000E+000	82.0979	0.0000000E+000	0.0000000E+000	0.0000000E+000	-82.0979	0.0000000E+000	0.0000000E+000	0.0000000E+000	-7.90214	0.0000000E+000	0.0000000E+000	0.0000000E+000	7.90214	7.20463	82.0979	-6.55183e-07
0.199573	4602.99	555.822	4636.43	-6.88527	329.637	0.459434	-6.51651e-05	1434.77	20.6199	1	42	0.0128645	2.77465e-06	0	-7.5993e-05	0.14456	0.063451	2.01642	5.27136e-06	9.7547e-06	6.14573e-06	8.7588e-06	4.40704e-06	8.38368e-06	0.781273	0.0305419	1.44652	1.99164e-08	8.22577e-09	1.31115e-10	2.30727e-09	2.28098e-10	2.25713e-10	0.000214128	2.58565e-05	0.000215683	6.88527	20619.9	170762	172002	-83.1147	0.0000000E+000	0.0000000E+000	0.0000000E+000	83.1147	0.0000000E+000	0.0000000E+000	0.0000000E+000	-83.1147	0.0000000E+000	0.0000000E+000	0.0000000E+000	-6.88527	0.0000000E+000	0.0000000E+000	0.0000000E+000	6.88527	8.28141	83.1147	-1.68677e-07
0.158419	4674.45	488.179	4699.87	-5.96211	368.494	0.459426	-6.43971e-05	2057.95	22.2035	1	42	0.0128719	2.73878e-06	0	-7.60114e-05	0.119349	0.0585727	1.81345	3.80196e-06	9.54641e-06	5.81818e-06	7.53278e-06	4.0269e-06	3.52729e-06	0.789839	0.0432247	1.4845	2.00292e-08	7.81827e-09	2.97268e-10	2.30684e-09	1.47595e-10	2.04822e-10	0.000211621	2.21007e-05	0.000212772	5.96211	22203.4	212604	213760	-84.0379	0.0000000E+000	0.0000000E+000	0.0000000E+000	84.0379	0.0000000E+000	0.0000000E+000	0.0000000E+000	-84.0379	0.0000000E+000	0.0000000E+000	0.0000000E+000	-5.96211	0.0000000E+000	0.0000000E+000	0.0000000E+000	5.96211	9.57528	84.0379	-1.83712e-08
0.125939	4733.4	423.252	4752.28	-5.10969	417.29	0.45943	-6.51031e-05	2985.81	23.684	1	42	0.0128688	2.70793e-06	0	-7.65211e-05	0.118085	0.0437992	1.55907	5.9617e-06	7.6122e-06	3.44165e-06	8.53797e-06	3.88877e-06	4.97316e-06	0.793627	0.0253655	1.49212	1.98872e-08	7.79551e-09	2.51503e-10	2.30467e-09	1.83123e-10	3.63144e-10	0.000209589	1.87411e-05	0.000210425	5.10969	23684	264868	265925	-84.8903	0.0000000E+000	0.0000000E+000	0.0000000E+000	84.8903	0.0000000E+000	0.0000000E+000	0.0000000E+000	-84.8903	0.0000000E+000	0.0000000E+000	0.0000000E+000	-5.10969	0.0000000E+000	0.0000000E+000	0.0000000E+000	5.10969	11.1834	84.8903	-5.09703e-07
0.0999518	4780.98	359.166	4794.45	-4.29622	478.693	0.459433	-6.00101e-05	4433.37	24.8798	1	42	0.0128668	2.68368e-06	0	-7.80013e-05	0.113886	0.0557767	1.46618	2.77011e-06	8.8941e-06	6.95005e-06	5.88427e-06	2.91685e-06	3.8534e-06	0.777765	0.0465877	1.48958	1.93743e-08	7.4275e-09	3.29653e-10	2.18853e-09	2.35157e-10	1.94804e-10	0.000207988	1.56249e-05	0.000208574	4.29622	24879.8	331183	332117	-85.7038	0.0000000E+000	0.0000000E+000	0.0000000E+000	85.7038	0.0000000E+000	0.0000000E+000	0.0000000E+000	-85.7038	0.0000000E+000	0.0000000E+000	0.0000000E+000	-4.29622	0.0000000E+000	0.0000000E+000	0.0000000E+000	4.29622	13.3113	85.7038	-1.48023e-06