File: Python/Data/RDE/240223-OCV-EIS-Fe2Fe3_5mM-HCl1M-2000RPM-Ag_AgCl_BLF8-GC-RDE-1minRestVSEoc-3ppf-14p1mVAmplitude_04_PEIS_C15.mpt
EC-Lab ASCII FILE
Nb header lines : 67

Potentio Electrochemical Impedance Spectroscopy

Run on channel : 15 (SN 19485)
User :
Electrode connection : standard
Potential control : Ewe
Ewe ctrl range : min = -1.00 V, max = 1.00 V
Ewe,I filtering : 50 kHz
Safety Limits :
	Do not start on E overload
Channel : Floating
Acquisition started on : 02/23/2024 14:14:06.635
Loaded Setting File :  NONE
Saved on :
	File : 240223-OCV-EIS-Fe2Fe3_5mM-HCl1M-2000RPM-Ag_AgCl_BLF8-GC-RDE-1minRestVSEoc-3ppf-14p1mVAmplitude_04_PEIS_C15.mpr
	Directory : C:\Data\mathias\RDE-RPM-variation\
	Host : 192.168.0.1
Device : VMP-300 (SN 0826)
Address : USB
EC-Lab for windows v11.52 (software)
Internet server v11.52 (firmware)
Command interpretor v11.52 (firmware)
Electrode material :
Initial state :
Electrolyte :
Comments :
Cable : special
Reference electrode : SCE Saturated Calomel Electrode (0.241 V)
Electrode surface area : 0.001 cm²
Characteristic mass : 0.001 g
Equivalent Weight : 0.000 g/eq.
Density : 0.000 g/cm3
Volume (V) : 0.001 cm³
Record EIS quality indicators
Cycle Definition : Charge/Discharge alternance
Mode                Single sine
E (V)               0.0000
vs.                 Eoc
tE (h:m:s)          0:01:0.0000
record              0
dI                  0.000
unit dI             mA
dt (s)              0.000
fi                  1.000
unit fi             MHz
ff                  100.000
unit ff             mHz
Nd                  10
Points              per decade
spacing             Logarithmic
Va (mV)             14.1
pw                  0.10
Na                  3
corr                0
E range min (V)     -1.000
E range max (V)     1.000
I Range             Auto
Bandwidth           8
nc cycles           0
goto Ns'            0
nr cycles           0
inc. cycle          1

freq/Hz	Re(Z)/Ohm	-Im(Z)/Ohm	|Z|/Ohm	Phase(Z)/deg	time/s	<Ewe>/V	<I>/mA	Cs/µF	Cp/µF	cycle number	I Range	|Ewe|/V	|I|/A	Ns	(Q-Qo)/mA.h	THD Ewe/%	NSD Ewe/%	NSR Ewe/%	|Ewe h2|/V	|Ewe h3|/V	|Ewe h4|/V	|Ewe h5|/V	|Ewe h6|/V	|Ewe h7|/V	THD I/%	NSD I/%	NSR I/%	|I h2|/A	|I h3|/A	|I h4|/A	|I h5|/A	|I h6|/A	|I h7|/A	Re(Y)/Ohm-1	Im(Y)/Ohm-1	|Y|/Ohm-1	Phase(Y)/deg	Re(C)/nF	Im(C)/nF	|C|/nF	Phase(C)/deg	Re(M)	Im(M)	|M|	Phase(M)/deg	Re(Permittivity)	Im(Permittivity)	|Permittivity|	Phase(Permittivity)/deg	Re(Resistivity)/Ohm.cm	Im(Resistivity)/Ohm.cm	|Resistivity|/Ohm.cm	Phase(Resistivity)/deg	Re(Conductivity)/mS/cm	Im(Conductivity)/mS/cm	|Conductivity|/mS/cm	Phase(Conductivity)/deg	Tan(Delta)	Loss Angle(Delta)/deg	dq/mA.h
1.00002e+06	3.5515	4.08682	5.41435	-49.0089	605.796	0.459681	-0.0123393	0.0389428	0.0221873	1	38	0.01116	0.00206119	0	-6.69802e-06	-1	-1	-1	0	0	0	0	0	0	-1	-1	-1	0	0	0	0	0	0	0.121149	0.13941	0.184694	49.0089	22.1873	19.281	29.3945	-40.9911	0.0000000E+000	0.0000000E+000	0.0000000E+000	40.9911	0.0000000E+000	0.0000000E+000	0.0000000E+000	-40.9911	0.0000000E+000	0.0000000E+000	0.0000000E+000	-49.0089	0.0000000E+000	0.0000000E+000	0.0000000E+000	49.0089	0.869013	40.9911	-6.69802e-06
794333	3.59105	3.20108	4.81067	-41.7139	606.809	0.459703	-0.00392706	0.0625924	0.0277142	1	38	0.0139051	0.00289046	0	-8.52078e-06	-1	-1	-1	0	0	0	0	0	0	-1	-1	-1	0	0	0	0	0	0	0.155171	0.13832	0.207871	41.7139	27.7142	31.0905	41.6497	-48.2861	0.0000000E+000	0.0000000E+000	0.0000000E+000	48.2861	0.0000000E+000	0.0000000E+000	0.0000000E+000	-48.2861	0.0000000E+000	0.0000000E+000	0.0000000E+000	-41.7139	0.0000000E+000	0.0000000E+000	0.0000000E+000	41.7139	1.12183	48.2861	-1.82276e-06
630957	3.56694	2.51646	4.36528	-35.2028	607.956	0.459659	-0.00235741	0.100237	0.0333109	1	38	0.0144421	0.0033084	0	-1.168e-05	-1	-1	-1	0	0	0	0	0	0	-1	-1	-1	0	0	0	0	0	0	0.187185	0.132058	0.22908	35.2028	33.3109	47.2164	57.7841	-54.7972	0.0000000E+000	0.0000000E+000	0.0000000E+000	54.7972	0.0000000E+000	0.0000000E+000	0.0000000E+000	-54.7972	0.0000000E+000	0.0000000E+000	0.0000000E+000	-35.2028	0.0000000E+000	0.0000000E+000	0.0000000E+000	35.2028	1.41744	54.7972	-3.15924e-06
501206	3.53892	2.00148	4.06569	-29.4908	609.103	0.459707	-0.00330513	0.158655	0.038449	1	38	0.0145629	0.00358189	0	-9.93746e-06	-1	-1	-1	0	0	0	0	0	0	-1	-1	-1	0	0	0	0	0	0	0.214092	0.121082	0.24596	29.4908	38.449	67.9837	78.1032	-60.5092	0.0000000E+000	0.0000000E+000	0.0000000E+000	60.5092	0.0000000E+000	0.0000000E+000	0.0000000E+000	-60.5092	0.0000000E+000	0.0000000E+000	0.0000000E+000	-29.4908	0.0000000E+000	0.0000000E+000	0.0000000E+000	29.4908	1.76815	60.5092	1.74256e-06
398103	3.48733	1.6181	3.84444	-24.891	610.25	0.459687	-0.00291412	0.24707	0.0437686	1	38	0.0145163	0.00377591	0	-2.04791e-05	-1	-1	-1	0	0	0	0	0	0	-1	-1	-1	0	0	0	0	0	0	0.235954	0.109481	0.260116	24.891	43.7686	94.3302	103.99	-65.109	0.0000000E+000	0.0000000E+000	0.0000000E+000	65.109	0.0000000E+000	0.0000000E+000	0.0000000E+000	-65.109	0.0000000E+000	0.0000000E+000	0.0000000E+000	-24.891	0.0000000E+000	0.0000000E+000	0.0000000E+000	24.891	2.1552	65.109	-1.05416e-05
316230	3.46255	1.34944	3.71621	-21.292	611.397	0.459686	-0.00369055	0.372962	0.0491778	1	38	0.0145861	0.003925	0	-3.08655e-05	-1	-1	-1	0	0	0	0	0	0	-1	-1	-1	0	0	0	0	0	0	0.250724	0.097713	0.269091	21.292	49.1778	126.186	135.431	-68.708	0.0000000E+000	0.0000000E+000	0.0000000E+000	68.708	0.0000000E+000	0.0000000E+000	0.0000000E+000	-68.708	0.0000000E+000	0.0000000E+000	0.0000000E+000	-21.292	0.0000000E+000	0.0000000E+000	0.0000000E+000	21.292	2.56592	68.708	-1.03864e-05
251188	3.43656	1.16687	3.62926	-18.7547	612.545	0.459702	-0.00350062	0.543	0.0561318	1	38	0.0145553	0.00401055	0	-2.87693e-05	-1	-1	-1	0	0	0	0	0	0	-1	-1	-1	0	0	0	0	0	0	0.260908	0.0885905	0.275539	18.7547	56.1318	165.314	174.584	-71.2453	0.0000000E+000	0.0000000E+000	0.0000000E+000	71.2453	0.0000000E+000	0.0000000E+000	0.0000000E+000	-71.2453	0.0000000E+000	0.0000000E+000	0.0000000E+000	-18.7547	0.0000000E+000	0.0000000E+000	0.0000000E+000	18.7547	2.94511	71.2453	2.0962e-06
199544	3.42156	1.04441	3.57741	-16.9744	613.692	0.459682	-0.00358999	0.763683	0.0650902	1	38	0.0145624	0.00407067	0	-2.83383e-05	-1	-1	-1	0	0	0	0	0	0	-1	-1	-1	0	0	0	0	0	0	0.267354	0.0816081	0.279532	16.9744	65.0902	213.241	222.954	-73.0256	0.0000000E+000	0.0000000E+000	0.0000000E+000	73.0256	0.0000000E+000	0.0000000E+000	0.0000000E+000	-73.0256	0.0000000E+000	0.0000000E+000	0.0000000E+000	-16.9744	0.0000000E+000	0.0000000E+000	0.0000000E+000	16.9744	3.27608	73.0256	4.31019e-07
158486	3.41803	0.983595	3.55674	-16.0541	614.84	0.459678	-0.00379854	1.02097	0.0780804	1	38	0.0145691	0.00409621	0	-2.38108e-05	-1	-1	-1	0	0	0	0	0	0	-1	-1	-1	0	0	0	0	0	0	0.270192	0.0777522	0.281157	16.0541	78.0804	271.332	282.343	-73.9459	0.0000000E+000	0.0000000E+000	0.0000000E+000	73.9459	0.0000000E+000	0.0000000E+000	0.0000000E+000	-73.9459	0.0000000E+000	0.0000000E+000	0.0000000E+000	-16.0541	0.0000000E+000	0.0000000E+000	0.0000000E+000	16.0541	3.47504	73.9459	4.52746e-06
125909	3.41851	0.977937	3.55564	-15.9643	615.988	0.459695	-0.00302769	1.29256	0.0977771	1	38	0.0145547	0.00409342	0	-1.78303e-05	-1	-1	-1	0	0	0	0	0	0	-1	-1	-1	0	0	0	0	0	0	0.270396	0.0773526	0.281243	15.9643	97.7771	341.793	355.504	-74.0357	0.0000000E+000	0.0000000E+000	0.0000000E+000	74.0357	0.0000000E+000	0.0000000E+000	0.0000000E+000	-74.0357	0.0000000E+000	0.0000000E+000	0.0000000E+000	-15.9643	0.0000000E+000	0.0000000E+000	0.0000000E+000	15.9643	3.49564	74.0357	5.98056e-06
100004	3.43912	1.02821	3.58953	-16.6453	617.135	0.45969	-0.00398472	1.54783	0.127002	1	38	0.0145756	0.00406057	0	-2.13955e-05	0.489952	0.170335	8.79135	3.92396e-05	1.68913e-05	3.11971e-05	1.92017e-05	2.33928e-05	2.45758e-05	0.0596086	0.0308196	0.710891	1.74324e-06	1.31853e-06	6.58904e-07	2.02089e-07	3.21408e-07	5.11409e-07	0.266914	0.0798006	0.278588	16.6453	127.002	424.791	443.37	-73.3547	0.0000000E+000	0.0000000E+000	0.0000000E+000	73.3547	0.0000000E+000	0.0000000E+000	0.0000000E+000	-73.3547	0.0000000E+000	0.0000000E+000	0.0000000E+000	-16.6453	0.0000000E+000	0.0000000E+000	0.0000000E+000	16.6453	3.34476	73.3547	-3.56522e-06
79433.3	3.46171	1.11794	3.63775	-17.8976	618.283	0.459701	-0.00275772	1.79225	0.169266	1	38	0.0145915	0.00401114	0	-2.32653e-05	0.433508	0.242199	8.6915	2.13098e-05	1.67504e-05	1.78013e-05	3.11518e-05	1.85259e-05	3.11857e-05	0.0492889	0.0211676	0.715292	1.31032e-06	7.06541e-07	4.55271e-07	7.29897e-07	5.83977e-07	5.58207e-07	0.261592	0.0844797	0.274895	17.8976	169.266	524.134	550.788	-72.1024	0.0000000E+000	0.0000000E+000	0.0000000E+000	72.1024	0.0000000E+000	0.0000000E+000	0.0000000E+000	-72.1024	0.0000000E+000	0.0000000E+000	0.0000000E+000	-17.8976	0.0000000E+000	0.0000000E+000	0.0000000E+000	17.8976	3.09651	72.1024	-1.86986e-06
63093.8	3.48587	1.26313	3.70767	-19.9183	619.43	0.459717	-0.00383765	1.99704	0.231782	1	38	0.0145937	0.0039361	0	-2.09159e-05	0.44588	0.282725	8.65473	2.31591e-05	2.69052e-05	2.00256e-05	2.80837e-05	1.9329e-05	3.08472e-05	0.0558576	0.035235	0.730362	9.57358e-07	1.22183e-06	1.02127e-06	6.33632e-07	5.59813e-07	4.96285e-07	0.253577	0.0918852	0.269711	19.9183	231.782	639.651	680.35	-70.0817	0.0000000E+000	0.0000000E+000	0.0000000E+000	70.0817	0.0000000E+000	0.0000000E+000	0.0000000E+000	-70.0817	0.0000000E+000	0.0000000E+000	0.0000000E+000	-19.9183	0.0000000E+000	0.0000000E+000	0.0000000E+000	19.9183	2.75972	70.0817	2.34948e-06
50122.5	3.52653	1.46355	3.81817	-22.539	620.577	0.459691	-0.00412996	2.1696	0.318776	1	38	0.0146314	0.00383203	0	-2.67217e-05	0.493121	0.234811	8.67483	2.79755e-05	2.124e-05	2.04459e-05	2.41794e-05	4.37006e-05	2.04258e-05	0.0604639	0.0215517	0.743976	8.5687e-07	1.44526e-06	5.58447e-07	8.63634e-07	7.80486e-07	6.55329e-07	0.241901	0.100392	0.261905	22.539	318.776	768.113	831.634	-67.461	0.0000000E+000	0.0000000E+000	0.0000000E+000	67.461	0.0000000E+000	0.0000000E+000	0.0000000E+000	-67.461	0.0000000E+000	0.0000000E+000	0.0000000E+000	-22.539	0.0000000E+000	0.0000000E+000	0.0000000E+000	22.539	2.40957	67.461	-5.80587e-06
39814.1	3.57176	1.71768	3.96332	-25.6831	621.724	0.459692	-0.00406294	2.32724	0.437126	1	38	0.0146635	0.00369981	0	-3.30436e-05	0.439812	0.318783	8.77401	2.33598e-05	2.06365e-05	1.43063e-05	1.81102e-05	3.05093e-05	3.42774e-05	0.0630427	0.0657392	0.776055	9.64614e-07	1.39674e-06	8.0437e-07	8.30978e-07	4.51922e-07	7.49254e-07	0.227386	0.109351	0.252314	25.6831	437.126	908.966	1008.61	-64.3169	0.0000000E+000	0.0000000E+000	0.0000000E+000	64.3169	0.0000000E+000	0.0000000E+000	0.0000000E+000	-64.3169	0.0000000E+000	0.0000000E+000	0.0000000E+000	-25.6831	0.0000000E+000	0.0000000E+000	0.0000000E+000	25.6831	2.07941	64.3169	-6.32185e-06
31621.1	3.62732	2.06028	4.1716	-29.5961	622.871	0.459674	-0.00328651	2.44295	0.595887	1	38	0.0147242	0.00352963	0	-3.57677e-05	0.416104	0.240462	8.96979	1.52758e-05	2.88292e-05	3.05002e-05	2.07174e-05	2.03223e-05	2.77056e-05	0.0636143	0.0459397	0.82024	4.71905e-07	1.51093e-06	1.06928e-06	7.39401e-07	7.62454e-07	3.56646e-07	0.20844	0.118392	0.239716	29.5961	595.887	1049.12	1206.53	-60.4039	0.0000000E+000	0.0000000E+000	0.0000000E+000	60.4039	0.0000000E+000	0.0000000E+000	0.0000000E+000	-60.4039	0.0000000E+000	0.0000000E+000	0.0000000E+000	-29.5961	0.0000000E+000	0.0000000E+000	0.0000000E+000	29.5961	1.76059	60.4039	-2.7241e-06
25116.9	3.69413	2.48696	4.45327	-33.9492	624.018	0.459689	-0.00314874	2.54791	0.794631	1	38	0.0147212	0.0033057	0	-3.53342e-05	0.463159	0.280949	8.72574	2.13274e-05	2.98505e-05	1.71136e-05	3.67535e-05	2.41557e-05	1.74616e-05	0.0554904	0.0523087	0.858449	5.4536e-07	1.10661e-06	6.74796e-07	3.80334e-07	4.54828e-07	7.75969e-07	0.186275	0.125404	0.224554	33.9492	794.631	1180.34	1422.9	-56.0508	0.0000000E+000	0.0000000E+000	0.0000000E+000	56.0508	0.0000000E+000	0.0000000E+000	0.0000000E+000	-56.0508	0.0000000E+000	0.0000000E+000	0.0000000E+000	-33.9492	0.0000000E+000	0.0000000E+000	0.0000000E+000	33.9492	1.4854	56.0508	4.3346e-07
19948.8	3.78836	3.03037	4.85127	-38.6568	625.166	0.459697	-0.00350626	2.63274	1.02728	1	38	0.0148076	0.00305231	0	-3.68548e-05	0.378086	0.326064	8.59853	3.33233e-05	2.48866e-05	1.05826e-05	1.96572e-05	2.1234e-05	1.53652e-05	0.0587561	0.0506503	0.942221	7.49387e-07	5.39224e-07	8.29533e-07	6.92361e-07	3.35929e-07	8.81013e-07	0.160968	0.128761	0.206132	38.6568	1027.28	1284.23	1644.55	-51.3432	0.0000000E+000	0.0000000E+000	0.0000000E+000	51.3432	0.0000000E+000	0.0000000E+000	0.0000000E+000	-51.3432	0.0000000E+000	0.0000000E+000	0.0000000E+000	-38.6568	0.0000000E+000	0.0000000E+000	0.0000000E+000	38.6568	1.25013	51.3432	-1.52052e-06
15847.7	3.89159	3.69899	5.36908	-43.5464	626.313	0.45968	-0.00313015	2.71501	1.28866	1	38	0.0148411	0.00276418	0	-3.34475e-05	0.490664	0.235354	8.63034	3.93664e-05	1.02348e-05	2.17032e-05	2.17461e-05	2.41452e-05	4.01562e-05	0.0982551	0.0261868	1.04941	1.82131e-06	1.48077e-06	7.89594e-07	7.14633e-07	3.26876e-07	7.1281e-07	0.134998	0.128317	0.186252	43.5464	1288.66	1355.76	1870.49	-46.4536	0.0000000E+000	0.0000000E+000	0.0000000E+000	46.4536	0.0000000E+000	0.0000000E+000	0.0000000E+000	-46.4536	0.0000000E+000	0.0000000E+000	0.0000000E+000	-43.5464	0.0000000E+000	0.0000000E+000	0.0000000E+000	43.5464	1.05207	46.4536	3.40724e-06
12590.9	4.03459	4.52585	6.0631	-48.2845	627.46	0.459693	-0.00333683	2.79294	1.55623	1	38	0.0147513	0.00243295	0	-3.41837e-05	0.440042	0.188346	8.88893	3.14236e-05	3.32924e-05	1.48797e-05	2.08517e-05	1.85865e-05	2.37749e-05	0.123582	0.0595276	1.17048	2.58202e-06	9.37939e-07	7.34938e-07	4.53655e-07	4.76721e-07	4.34382e-07	0.109751	0.123115	0.164932	48.2845	1556.23	1387.3	2084.81	-41.7155	0.0000000E+000	0.0000000E+000	0.0000000E+000	41.7155	0.0000000E+000	0.0000000E+000	0.0000000E+000	-41.7155	0.0000000E+000	0.0000000E+000	0.0000000E+000	-48.2845	0.0000000E+000	0.0000000E+000	0.0000000E+000	48.2845	0.891454	41.7155	-7.36189e-07
10002.2	4.2295	5.55229	6.97973	-52.7014	628.607	0.459719	-0.00391218	2.86584	1.81351	1	38	0.0145169	0.00207987	0	-3.36271e-05	0.388228	0.192982	8.88291	1.68521e-05	2.65169e-05	1.49853e-05	2.01135e-05	1.95072e-05	2.64656e-05	0.20044	0.0384818	1.39108	3.75162e-06	7.75341e-07	6.61999e-07	1.15843e-06	4.83306e-07	4.18134e-07	0.0868184	0.113971	0.143272	52.7014	1813.51	1381.45	2279.74	-37.2986	0.0000000E+000	0.0000000E+000	0.0000000E+000	37.2986	0.0000000E+000	0.0000000E+000	0.0000000E+000	-37.2986	0.0000000E+000	0.0000000E+000	0.0000000E+000	-52.7014	0.0000000E+000	0.0000000E+000	0.0000000E+000	52.7014	0.761758	37.2986	5.5657e-07
7944	4.46926	6.82126	8.15499	-56.7674	629.784	0.459579	-0.00423058	2.93709	2.05494	1	38	0.0145299	0.00178172	0	-3.33441e-05	0.585243	0.218698	8.89087	6.09001e-05	2.40562e-05	2.00961e-05	1.57893e-05	2.6043e-05	3.30829e-05	0.275147	0.0664286	1.62956	4.67183e-06	6.19607e-07	7.02541e-07	6.17453e-07	4.52042e-07	5.37859e-07	0.067203	0.102569	0.122624	56.7674	2054.94	1346.39	2456.73	-33.2326	0.0000000E+000	0.0000000E+000	0.0000000E+000	33.2326	0.0000000E+000	0.0000000E+000	0.0000000E+000	-33.2326	0.0000000E+000	0.0000000E+000	0.0000000E+000	-56.7674	0.0000000E+000	0.0000000E+000	0.0000000E+000	56.7674	0.655195	33.2326	2.83037e-07
6307.74	4.76372	8.37181	9.63225	-60.3593	630.837	0.459566	-0.00516342	3.01389	2.27673	1	38	0.0145321	0.0015087	0	-3.4877e-05	0.508076	0.186471	8.84853	4.71201e-05	2.17581e-05	3.17588e-05	1.207e-05	1.60014e-05	2.77117e-05	0.433023	0.0771969	1.90343	6.22278e-06	1.09223e-06	9.44038e-07	7.30049e-07	8.13897e-07	5.6876e-07	0.0513441	0.0902327	0.103818	60.3593	2276.73	1295.5	2619.5	-29.6407	0.0000000E+000	0.0000000E+000	0.0000000E+000	29.6407	0.0000000E+000	0.0000000E+000	0.0000000E+000	-29.6407	0.0000000E+000	0.0000000E+000	0.0000000E+000	-60.3593	0.0000000E+000	0.0000000E+000	0.0000000E+000	60.3593	0.569019	29.6407	-1.53286e-06
5011.6	5.15399	10.2642	11.4855	-63.3373	631.956	0.459561	-0.0042157	3.09398	2.47096	1	38	0.0138551	0.00120631	0	-3.52891e-05	0.510067	0.272939	9.43518	3.54891e-05	2.61634e-05	1.80492e-05	3.13052e-05	2.06769e-05	2.40257e-05	0.56574	0.0930208	2.4235	6.54343e-06	1.50582e-06	6.44499e-07	5.88891e-07	3.22309e-07	5.38786e-07	0.0390697	0.0778077	0.087066	63.3373	2470.96	1240.75	2764.98	-26.6627	0.0000000E+000	0.0000000E+000	0.0000000E+000	26.6627	0.0000000E+000	0.0000000E+000	0.0000000E+000	-26.6627	0.0000000E+000	0.0000000E+000	0.0000000E+000	-63.3373	0.0000000E+000	0.0000000E+000	0.0000000E+000	63.3373	0.502132	26.6627	-4.12118e-07
3981.28	5.65726	12.5768	13.7906	-65.7811	633.062	0.459571	-0.005439	3.17853	2.64363	1	38	0.0131859	0.000956145	0	-3.75096e-05	0.593202	0.349776	9.67114	4.77112e-05	3.2367e-05	2.66474e-05	2.31347e-05	2.27397e-05	2.4798e-05	0.597854	0.132257	2.95417	5.35565e-06	1.27346e-06	3.95357e-07	9.99845e-07	6.09141e-07	4.034e-07	0.0297466	0.0661307	0.072513	65.7811	2643.63	1189.15	2898.77	-24.2189	0.0000000E+000	0.0000000E+000	0.0000000E+000	24.2189	0.0000000E+000	0.0000000E+000	0.0000000E+000	-24.2189	0.0000000E+000	0.0000000E+000	0.0000000E+000	-65.7811	0.0000000E+000	0.0000000E+000	0.0000000E+000	65.7811	0.449815	24.2189	-2.22047e-06
3163.04	6.32347	15.3878	16.6364	-67.6602	634.167	0.459571	-0.0056494	3.26994	2.79752	1	38	0.0126809	0.000762239	0	-3.87306e-05	0.611216	0.262594	10.284	2.08168e-05	2.84392e-05	3.74833e-05	2.2693e-05	3.86877e-05	2.97807e-05	0.718538	0.194341	3.81887	4.78485e-06	2.23875e-06	4.15257e-07	1.19863e-06	2.24329e-07	4.17946e-07	0.0228474	0.0555978	0.0601092	67.6602	2797.52	1149.62	3024.52	-22.3398	0.0000000E+000	0.0000000E+000	0.0000000E+000	22.3398	0.0000000E+000	0.0000000E+000	0.0000000E+000	-22.3398	0.0000000E+000	0.0000000E+000	0.0000000E+000	-67.6602	0.0000000E+000	0.0000000E+000	0.0000000E+000	67.6602	0.410942	22.3398	-1.22104e-06
2512.41	7.13917	18.8279	20.1359	-69.2342	635.494	0.459587	-0.00478174	3.36456	2.94162	1	38	0.0139709	0.00069383	0	-4.16121e-05	0.5393	0.248344	9.34524	2.02394e-05	3.88447e-05	3.3997e-05	2.56505e-05	2.44156e-05	2.35248e-05	0.893155	0.0766307	4.15813	4.98017e-06	3.20027e-06	5.65971e-07	1.23333e-06	5.05931e-07	5.17883e-07	0.0176077	0.0464362	0.0496624	69.2342	2941.62	1115.41	3145.99	-20.7658	0.0000000E+000	0.0000000E+000	0.0000000E+000	20.7658	0.0000000E+000	0.0000000E+000	0.0000000E+000	-20.7658	0.0000000E+000	0.0000000E+000	0.0000000E+000	-69.2342	0.0000000E+000	0.0000000E+000	0.0000000E+000	69.2342	0.379181	20.7658	-2.88146e-06
1995.64	8.14861	22.9998	24.4007	-70.4913	636.6	0.459567	-0.00616516	3.46748	3.08077	1	38	0.0137024	0.00056156	0	-4.31695e-05	0.480389	0.417702	9.47325	2.77297e-05	2.50779e-05	1.36348e-05	2.18391e-05	2.99751e-05	1.68882e-05	0.761882	0.167034	5.15899	3.25577e-06	2.01848e-06	6.72987e-07	1.62305e-06	2.35193e-07	5.6496e-07	0.0136861	0.0386297	0.0409825	70.4913	3080.77	1091.49	3268.41	-19.5087	0.0000000E+000	0.0000000E+000	0.0000000E+000	19.5087	0.0000000E+000	0.0000000E+000	0.0000000E+000	-19.5087	0.0000000E+000	0.0000000E+000	0.0000000E+000	-70.4913	0.0000000E+000	0.0000000E+000	0.0000000E+000	70.4913	0.35429	19.5087	-1.55746e-06
1584.49	9.55758	28.0058	29.5917	-71.1567	637.707	0.459558	-0.00503311	3.58659	3.21245	1	38	0.0135384	0.000457508	0	-4.4767e-05	0.523264	0.32683	9.44043	2.44906e-05	2.82976e-05	3.35925e-05	2.67038e-05	1.90993e-05	2.63011e-05	0.901802	0.209353	6.31289	2.89472e-06	2.21514e-06	6.82045e-07	1.36067e-06	7.08676e-07	7.14617e-07	0.0109146	0.0319821	0.0337932	71.1567	3212.45	1096.32	3394.37	-18.8433	0.0000000E+000	0.0000000E+000	0.0000000E+000	18.8433	0.0000000E+000	0.0000000E+000	0.0000000E+000	-18.8433	0.0000000E+000	0.0000000E+000	0.0000000E+000	-71.1567	0.0000000E+000	0.0000000E+000	0.0000000E+000	71.1567	0.341272	18.8433	-1.59745e-06
1258.79	11.23	34.0519	35.8559	-71.748	639.066	0.45959	-0.000767715	3.713	3.34879	1	39	0.0152112	0.000424232	0	-4.46069e-05	0.580583	0.20928	8.36264	5.6069e-05	3.52963e-05	1.69787e-05	2.5565e-05	3.18173e-05	2.79923e-05	1.33345	0.111217	3.07798	5.09841e-06	2.34487e-06	8.90415e-08	5.37126e-07	2.77883e-07	2.65165e-07	0.00873491	0.0264863	0.0278894	71.748	3348.79	1104.4	3526.2	-18.252	0.0000000E+000	0.0000000E+000	0.0000000E+000	18.252	0.0000000E+000	0.0000000E+000	0.0000000E+000	-18.252	0.0000000E+000	0.0000000E+000	0.0000000E+000	-71.748	0.0000000E+000	0.0000000E+000	0.0000000E+000	71.748	0.32979	18.252	1.60075e-07
999.682	13.3047	41.4727	43.5546	-72.2134	640.174	0.459558	-0.000864263	3.83881	3.48059	1	39	0.0144841	0.00033255	0	-4.45573e-05	0.480006	0.213255	8.69866	2.11091e-05	4.06121e-05	2.83003e-05	2.34625e-05	2.43893e-05	1.4746e-05	1.18246	0.086541	3.91247	3.2635e-06	1.93462e-06	2.44409e-07	8.2224e-07	3.51281e-07	2.53436e-07	0.00701356	0.0218623	0.0229597	72.2134	3480.59	1116.6	3655.31	-17.7866	0.0000000E+000	0.0000000E+000	0.0000000E+000	17.7866	0.0000000E+000	0.0000000E+000	0.0000000E+000	-17.7866	0.0000000E+000	0.0000000E+000	0.0000000E+000	-72.2134	0.0000000E+000	0.0000000E+000	0.0000000E+000	72.2134	0.320807	17.7866	4.96141e-08
794.239	15.9407	50.2533	52.721	-72.4006	641.28	0.45954	-0.000570345	3.98753	3.62298	1	39	0.0140024	0.000265595	0	-4.48838e-05	0.638072	0.398296	8.88272	4.46807e-05	2.54628e-05	3.34882e-05	3.07045e-05	3.04838e-05	3.34523e-05	1.05659	0.16217	4.85689	2.07239e-06	1.40373e-06	2.82573e-07	1.11478e-06	2.33488e-07	3.54559e-07	0.0057351	0.01808	0.0189678	72.4006	3622.98	1149.24	3800.89	-17.5994	0.0000000E+000	0.0000000E+000	0.0000000E+000	17.5994	0.0000000E+000	0.0000000E+000	0.0000000E+000	-17.5994	0.0000000E+000	0.0000000E+000	0.0000000E+000	-72.4006	0.0000000E+000	0.0000000E+000	0.0000000E+000	72.4006	0.317207	17.5994	-3.26544e-07
631.01	19.119	60.9696	63.8971	-72.5895	642.384	0.459585	2.90507e-05	4.13686	3.76648	1	39	0.0137349	0.000214953	0	-4.48562e-05	0.485357	0.332394	9.23312	1.14556e-05	2.11417e-05	2.56183e-05	1.91151e-05	4.11827e-05	2.82923e-05	1.03689	0.219532	6.21776	1.43354e-06	1.10907e-06	3.20229e-07	1.10768e-06	3.54485e-07	4.12122e-07	0.00468278	0.0149332	0.0156502	72.5895	3766.48	1181.1	3947.33	-17.4105	0.0000000E+000	0.0000000E+000	0.0000000E+000	17.4105	0.0000000E+000	0.0000000E+000	0.0000000E+000	-17.4105	0.0000000E+000	0.0000000E+000	0.0000000E+000	-72.5895	0.0000000E+000	0.0000000E+000	0.0000000E+000	72.5895	0.313582	17.4105	2.75782e-08
501.122	23.4411	73.6236	77.2653	-72.339	643.489	0.459564	-0.000300283	4.31379	3.91674	1	39	0.0135233	0.000175024	0	-4.48595e-05	0.453142	0.261508	9.31849	1.64791e-05	2.17321e-05	1.06278e-05	3.44583e-05	2.65562e-05	2.3573e-05	0.918895	0.219369	7.38167	1.2464e-06	6.29834e-07	2.08681e-07	6.60636e-07	2.30943e-07	1.19355e-07	0.00392653	0.0123324	0.0129424	72.339	3916.74	1247.06	4110.48	-17.661	0.0000000E+000	0.0000000E+000	0.0000000E+000	17.661	0.0000000E+000	0.0000000E+000	0.0000000E+000	-17.661	0.0000000E+000	0.0000000E+000	0.0000000E+000	-72.339	0.0000000E+000	0.0000000E+000	0.0000000E+000	72.339	0.318391	17.661	-3.26715e-09
398.089	28.5877	88.6086	93.106	-72.1188	644.597	0.459579	-0.000595696	4.51195	4.08658	1	39	0.0133757	0.000143661	0	-4.49207e-05	0.618519	0.287856	9.33716	1.91498e-05	3.88508e-05	3.22381e-05	2.92651e-05	3.44985e-05	3.99915e-05	0.977829	0.340385	9.20057	9.54421e-07	5.09358e-07	3.79845e-07	5.81056e-07	3.65171e-07	2.41356e-07	0.00329779	0.0102216	0.0107404	72.1188	4086.58	1318.45	4294	-17.8812	0.0000000E+000	0.0000000E+000	0.0000000E+000	17.8812	0.0000000E+000	0.0000000E+000	0.0000000E+000	-17.8812	0.0000000E+000	0.0000000E+000	0.0000000E+000	-72.1188	0.0000000E+000	0.0000000E+000	0.0000000E+000	72.1188	0.322629	17.8812	-6.11596e-08
316.316	35.1323	107.141	112.754	-71.8453	645.701	0.459622	-0.00045908	4.69616	4.24024	1	39	0.0133196	0.000118129	0	-4.50835e-05	0.457126	0.226959	9.72058	1.4888e-05	2.37051e-05	2.79687e-05	2.41349e-05	2.38986e-05	2.31837e-05	1.04076	0.318093	11.4146	7.63596e-07	5.26285e-07	2.19046e-07	3.27681e-07	5.0187e-07	3.20648e-07	0.00276339	0.00842736	0.00886886	71.8453	4240.24	1390.4	4462.38	-18.1547	0.0000000E+000	0.0000000E+000	0.0000000E+000	18.1547	0.0000000E+000	0.0000000E+000	0.0000000E+000	-18.1547	0.0000000E+000	0.0000000E+000	0.0000000E+000	-71.8453	0.0000000E+000	0.0000000E+000	0.0000000E+000	71.8453	0.327907	18.1547	-1.62815e-07
251.206	43.4945	128.742	135.891	-71.3329	646.806	0.459592	-0.00064956	4.92119	4.41704	1	39	0.0132683	9.76398e-05	0	-4.50854e-05	0.463308	0.208425	9.41788	2.71419e-05	1.65425e-05	2.85386e-05	1.95625e-05	2.28877e-05	2.67049e-05	0.951464	0.311598	13.4167	5.53242e-07	4.85634e-07	1.18594e-07	2.21853e-07	3.22494e-07	2.81401e-07	0.00235535	0.00697174	0.00735886	71.3329	4417.04	1492.26	4662.3	-18.6671	0.0000000E+000	0.0000000E+000	0.0000000E+000	18.6671	0.0000000E+000	0.0000000E+000	0.0000000E+000	-18.6671	0.0000000E+000	0.0000000E+000	0.0000000E+000	-71.3329	0.0000000E+000	0.0000000E+000	0.0000000E+000	71.3329	0.337842	18.6671	-1.91016e-09
199.553	52.8698	154.792	163.572	-71.1422	647.914	0.459592	-0.000197777	5.15244	4.61416	1	39	0.0132499	8.10038e-05	0	-4.51373e-05	0.604313	0.360995	9.64773	2.49432e-05	3.86204e-05	4.17056e-05	3.04247e-05	1.86405e-05	2.57022e-05	1.20613	0.549981	16.6333	5.75704e-07	4.16264e-07	3.74869e-07	2.79751e-07	3.1844e-07	2.34933e-07	0.00197602	0.00578537	0.00611352	71.1422	4614.16	1575.98	4875.88	-18.8578	0.0000000E+000	0.0000000E+000	0.0000000E+000	18.8578	0.0000000E+000	0.0000000E+000	0.0000000E+000	-18.8578	0.0000000E+000	0.0000000E+000	0.0000000E+000	-71.1422	0.0000000E+000	0.0000000E+000	0.0000000E+000	71.1422	0.341554	18.8578	-5.19042e-08
158.529	65.8139	186.09	197.385	-70.523	649.026	0.459583	-0.000556558	5.39497	4.79518	1	39	0.0132134	6.69424e-05	0	-4.52207e-05	0.579879	0.159047	9.73313	2.34528e-05	2.7877e-05	4.89171e-05	1.61538e-05	2.26007e-05	3.07207e-05	1.51766	0.540814	20.0466	5.32792e-07	3.03537e-07	3.34624e-07	3.75834e-07	2.9823e-07	4.00158e-07	0.00168923	0.00477632	0.00506624	70.523	4795.18	1695.9	5086.24	-19.477	0.0000000E+000	0.0000000E+000	0.0000000E+000	19.477	0.0000000E+000	0.0000000E+000	0.0000000E+000	-19.477	0.0000000E+000	0.0000000E+000	0.0000000E+000	-70.523	0.0000000E+000	0.0000000E+000	0.0000000E+000	70.523	0.353667	19.477	-8.33572e-08
125.927	80.7534	222.965	237.138	-70.0906	650.381	0.459575	-9.6228e-05	5.66847	5.01114	1	40	0.0135363	5.7082e-05	0	-4.52374e-05	0.722543	0.429494	14.8619	3.21088e-05	2.42926e-05	3.56143e-05	4.30266e-05	4.00041e-05	4.58646e-05	1.00675	0.146153	4.65456	4.2489e-07	2.38612e-07	4.14205e-08	2.73966e-07	8.94632e-08	7.13197e-08	0.00143601	0.00396492	0.00421695	70.0906	5011.14	1814.93	5329.68	-19.9094	0.0000000E+000	0.0000000E+000	0.0000000E+000	19.9094	0.0000000E+000	0.0000000E+000	0.0000000E+000	-19.9094	0.0000000E+000	0.0000000E+000	0.0000000E+000	-70.0906	0.0000000E+000	0.0000000E+000	0.0000000E+000	70.0906	0.36218	19.9094	-1.67325e-08
99.9682	100.336	266.621	284.876	-69.3774	651.462	0.459596	-0.000101369	5.97123	5.23049	1	40	0.0134167	4.70969e-05	0	-4.52637e-05	0.665572	0.4354	14.9011	4.33057e-05	2.52128e-05	3.92978e-05	4.56592e-05	2.09833e-05	1.6159e-05	0.886984	0.158136	5.60871	3.19378e-07	1.95312e-07	5.93525e-08	1.40561e-07	4.29027e-08	3.40748e-08	0.00123637	0.00328537	0.0035103	69.3774	5230.49	1968.36	5588.6	-20.6226	0.0000000E+000	0.0000000E+000	0.0000000E+000	20.6226	0.0000000E+000	0.0000000E+000	0.0000000E+000	-20.6226	0.0000000E+000	0.0000000E+000	0.0000000E+000	-69.3774	0.0000000E+000	0.0000000E+000	0.0000000E+000	69.3774	0.376325	20.6226	-2.62974e-08
79.4157	125.312	317.698	341.519	-68.4739	652.532	0.459588	-9.93948e-05	6.3081	5.45881	1	40	0.0133282	3.90261e-05	0	-4.52393e-05	0.800899	0.410071	15.0624	4.59002e-05	4.13434e-05	5.13847e-05	2.21751e-05	3.80158e-05	5.0323e-05	0.868561	0.218449	6.80522	2.55038e-07	1.47858e-07	5.80759e-08	1.24196e-07	6.22114e-08	5.08818e-08	0.00107439	0.00272386	0.00292809	68.4739	5458.81	2153.16	5868.11	-21.5261	0.0000000E+000	0.0000000E+000	0.0000000E+000	21.5261	0.0000000E+000	0.0000000E+000	0.0000000E+000	-21.5261	0.0000000E+000	0.0000000E+000	0.0000000E+000	-68.4739	0.0000000E+000	0.0000000E+000	0.0000000E+000	68.4739	0.394437	21.5261	2.44053e-08
63.0823	156.398	378.283	409.339	-67.5378	653.615	0.459593	-0.000123144	6.66955	5.69592	1	40	0.0132887	3.24639e-05	0	-4.52772e-05	0.788072	0.254001	14.6077	4.15661e-05	4.76442e-05	3.62164e-05	2.8629e-05	3.09488e-05	4.30943e-05	0.905104	0.188062	7.83203	2.27361e-07	9.66906e-08	5.73254e-08	1.23965e-07	4.85844e-08	5.13503e-08	0.000933395	0.00225762	0.00244297	67.5378	5695.92	2354.93	6163.54	-22.4622	0.0000000E+000	0.0000000E+000	0.0000000E+000	22.4622	0.0000000E+000	0.0000000E+000	0.0000000E+000	-22.4622	0.0000000E+000	0.0000000E+000	0.0000000E+000	-67.5378	0.0000000E+000	0.0000000E+000	0.0000000E+000	67.5378	0.413442	22.4623	-3.79464e-08
50.1122	194.421	447.553	487.958	-66.5194	654.68	0.459596	-9.19072e-05	7.0963	5.96974	1	40	0.0132412	2.71359e-05	0	-4.53009e-05	0.798355	0.39247	14.9216	2.60375e-05	4.54974e-05	2.79155e-05	5.17039e-05	4.32192e-05	5.24336e-05	0.912241	0.238766	9.76002	1.69318e-07	9.68475e-08	4.71952e-08	9.80725e-08	3.77982e-08	6.69728e-08	0.000816542	0.00187966	0.00204936	66.5194	5969.74	2593.31	6508.7	-23.4806	0.0000000E+000	0.0000000E+000	0.0000000E+000	23.4806	0.0000000E+000	0.0000000E+000	0.0000000E+000	-23.4806	0.0000000E+000	0.0000000E+000	0.0000000E+000	-66.5194	0.0000000E+000	0.0000000E+000	0.0000000E+000	66.5194	0.43441	23.4806	-2.37023e-08
39.8089	246.354	526.611	581.386	-64.9293	655.749	0.459539	-2.76633e-05	7.59189	6.22875	1	40	0.0132008	2.27057e-05	0	-4.53116e-05	0.748551	0.426818	15.3321	2.01713e-05	2.79413e-05	4.55856e-05	4.39043e-05	5.14304e-05	3.21903e-05	1.04483	0.347694	11.7231	1.57199e-07	9.46307e-08	6.87349e-08	9.58131e-08	6.60274e-08	3.82857e-08	0.000728837	0.00155798	0.00172003	64.9293	6228.75	2913.87	6876.62	-25.0707	0.0000000E+000	0.0000000E+000	0.0000000E+000	25.0707	0.0000000E+000	0.0000000E+000	0.0000000E+000	-25.0707	0.0000000E+000	0.0000000E+000	0.0000000E+000	-64.9293	0.0000000E+000	0.0000000E+000	0.0000000E+000	64.9293	0.46781	25.0707	-1.0679e-08
31.6296	308.561	618.629	691.311	-63.4908	656.79	0.459578	-5.82114e-05	8.13386	6.51343	1	40	0.0131848	1.90721e-05	0	-4.53335e-05	0.749037	0.543236	14.8787	4.72645e-05	4.70672e-05	3.03623e-05	3.05584e-05	4.43005e-05	1.69178e-05	1.2794	0.499643	13.6304	1.67127e-07	1.08073e-07	6.57309e-08	8.7746e-08	6.07636e-08	2.4001e-08	0.000645644	0.00129444	0.00144653	63.4908	6513.42	3248.78	7278.69	-26.5092	0.0000000E+000	0.0000000E+000	0.0000000E+000	26.5092	0.0000000E+000	0.0000000E+000	0.0000000E+000	-26.5092	0.0000000E+000	0.0000000E+000	0.0000000E+000	-63.4908	0.0000000E+000	0.0000000E+000	0.0000000E+000	63.4908	0.498782	26.5092	-2.19277e-08
25.1206	387.292	724.944	821.912	-61.8872	657.858	0.459601	-8.71204e-05	8.73948	6.79899	1	40	0.0132068	1.60684e-05	0	-4.53806e-05	0.947087	0.368663	14.9695	5.29351e-05	6.13687e-05	4.14934e-05	5.65466e-05	2.63497e-05	4.82122e-05	1.07403	0.451547	16.3009	8.27952e-08	8.91938e-08	3.61037e-08	6.55339e-08	2.6628e-08	7.292e-08	0.000573308	0.00107313	0.00121668	61.8872	6798.99	3632.27	7708.41	-28.1128	0.0000000E+000	0.0000000E+000	0.0000000E+000	28.1128	0.0000000E+000	0.0000000E+000	0.0000000E+000	-28.1128	0.0000000E+000	0.0000000E+000	0.0000000E+000	-61.8872	0.0000000E+000	0.0000000E+000	0.0000000E+000	61.8872	0.534237	28.1128	-4.71135e-08
19.9553	490.394	834.08	967.562	-59.5468	658.927	0.459599	-6.83074e-05	9.5621	7.10577	1	40	0.0131717	1.36133e-05	0	-4.54083e-05	0.812858	0.476209	15.3516	3.49935e-05	4.4484e-05	5.23775e-05	4.77067e-05	3.6094e-05	2.81448e-05	1.18751	0.769063	19.2148	8.95939e-08	8.28172e-08	5.00461e-08	6.2492e-08	4.29226e-08	3.09239e-08	0.000523827	0.000890944	0.00103353	59.5468	7105.77	4177.81	8242.94	-30.4532	0.0000000E+000	0.0000000E+000	0.0000000E+000	30.4532	0.0000000E+000	0.0000000E+000	0.0000000E+000	-30.4532	0.0000000E+000	0.0000000E+000	0.0000000E+000	-59.5468	0.0000000E+000	0.0000000E+000	0.0000000E+000	59.5468	0.587946	30.4532	-2.77044e-08
15.8469	614.646	956.101	1136.63	-57.2644	659.968	0.459594	-7.52925e-05	10.5044	7.43268	1	40	0.0131787	1.15946e-05	0	-4.54362e-05	0.827953	0.419125	15.2228	5.53911e-05	2.18867e-05	4.88609e-05	3.97254e-05	3.94975e-05	3.75529e-05	1.42373	0.635805	22.7619	1.0102e-07	3.99505e-08	6.5973e-08	5.37994e-08	4.45902e-08	5.607e-08	0.000475762	0.000740063	0.000879797	57.2644	7432.68	4778.23	8836.07	-32.7356	0.0000000E+000	0.0000000E+000	0.0000000E+000	32.7356	0.0000000E+000	0.0000000E+000	0.0000000E+000	-32.7356	0.0000000E+000	0.0000000E+000	0.0000000E+000	-57.2644	0.0000000E+000	0.0000000E+000	0.0000000E+000	57.2644	0.642867	32.7356	-2.78401e-08
12.5873	769.144	1083.77	1328.96	-54.6369	661.43	0.459612	-6.93469e-05	11.6668	7.75889	1	41	0.0132118	9.94146e-06	0	-4.54069e-05	0.722568	0.347322	13.379	3.68129e-05	3.66096e-05	2.82785e-05	4.13492e-05	2.88099e-05	4.39483e-05	0.912022	0.0717886	3.66056	7.6686e-08	3.38442e-08	1.77888e-08	2.23041e-08	7.6961e-09	1.26255e-08	0.000435495	0.000613638	0.000752467	54.6369	7758.89	5506.43	9514.26	-35.3631	0.0000000E+000	0.0000000E+000	0.0000000E+000	35.3631	0.0000000E+000	0.0000000E+000	0.0000000E+000	-35.3631	0.0000000E+000	0.0000000E+000	0.0000000E+000	-54.6369	0.0000000E+000	0.0000000E+000	0.0000000E+000	54.6369	0.709694	35.3631	2.93103e-08
9.99682	956.698	1205.15	1538.72	-51.5561	662.49	0.459581	-7.79059e-05	13.2104	8.10364	1	41	0.0131888	8.57125e-06	0	-4.54642e-05	1.0469	0.545488	19.1093	5.49427e-05	4.29383e-05	4.50117e-05	7.20343e-05	5.94606e-05	3.94698e-05	1.03209	0.184869	5.85395	6.55908e-08	4.07374e-08	1.34536e-08	3.74721e-08	1.43461e-08	4.73716e-09	0.000404068	0.000509005	0.00064989	51.5561	8103.64	6432.99	10346.6	-38.4439	0.0000000E+000	0.0000000E+000	0.0000000E+000	38.4439	0.0000000E+000	0.0000000E+000	0.0000000E+000	-38.4439	0.0000000E+000	0.0000000E+000	0.0000000E+000	-51.5561	0.0000000E+000	0.0000000E+000	0.0000000E+000	51.5561	0.793839	38.4439	-5.73613e-08
7.93956	1173.22	1319.89	1765.94	-48.367	663.699	0.459601	-7.62439e-05	15.1874	8.48416	1	41	0.0131899	7.46902e-06	0	-4.55039e-05	0.78238	0.270628	13.5822	2.88265e-05	5.07119e-05	2.94798e-05	4.24981e-05	3.31198e-05	4.73724e-05	0.778037	0.132518	4.88296	4.94406e-08	1.866e-08	5.73278e-09	1.39342e-08	1.24527e-08	1.05384e-08	0.000376205	0.000423239	0.00056627	48.367	8484.16	7541.34	11351.3	-41.633	0.0000000E+000	0.0000000E+000	0.0000000E+000	41.633	0.0000000E+000	0.0000000E+000	0.0000000E+000	-41.633	0.0000000E+000	0.0000000E+000	0.0000000E+000	-48.367	0.0000000E+000	0.0000000E+000	0.0000000E+000	48.367	0.888872	41.633	-3.96398e-08
6.31058	1427.09	1412.15	2007.67	-44.6986	665.083	0.459592	-7.83185e-05	17.8595	8.83581	1	41	0.0132003	6.57495e-06	0	-4.5465e-05	0.865456	0.408679	13.7059	4.85481e-05	4.29098e-05	4.50577e-05	6.53675e-05	2.17981e-05	3.74465e-05	0.957023	0.135927	5.60756	5.04773e-08	2.51344e-08	1.31446e-08	2.2153e-08	5.07729e-09	7.01202e-09	0.00035405	0.000350345	0.000498089	44.6986	8835.81	8929.26	12562	-45.3014	0.0000000E+000	0.0000000E+000	0.0000000E+000	45.3014	0.0000000E+000	0.0000000E+000	0.0000000E+000	-45.3014	0.0000000E+000	0.0000000E+000	0.0000000E+000	-44.6986	0.0000000E+000	0.0000000E+000	0.0000000E+000	44.6986	1.01058	45.3014	3.88878e-08
5.01283	1698.48	1471.03	2246.94	-40.8953	666.701	0.459617	-7.67531e-05	21.5832	9.25066	1	41	0.0131736	5.86289e-06	0	-4.55053e-05	0.579734	0.313269	11.0308	1.7122e-05	1.65055e-05	3.84145e-05	2.06131e-05	2.98141e-05	3.66318e-05	0.85727	0.173451	5.12411	4.08984e-08	2.05119e-08	8.26522e-09	1.43274e-08	7.68121e-09	6.14359e-09	0.000336416	0.000291364	0.000445049	40.8953	9250.66	10681	14130.1	-49.1047	0.0000000E+000	0.0000000E+000	0.0000000E+000	49.1047	0.0000000E+000	0.0000000E+000	0.0000000E+000	-49.1047	0.0000000E+000	0.0000000E+000	0.0000000E+000	-40.8953	0.0000000E+000	0.0000000E+000	0.0000000E+000	40.8953	1.15462	49.1047	-4.0319e-08
3.9819	1988.23	1491.31	2485.37	-36.8726	668.622	0.459595	-7.65149e-05	26.8016	9.64976	1	41	0.0131696	5.29886e-06	0	-4.56022e-05	0.485532	0.324005	9.21534	3.05336e-05	2.72057e-05	2.5694e-05	1.56087e-05	2.33858e-05	1.93167e-05	0.816839	0.181975	4.84779	3.70501e-08	1.65137e-08	7.08229e-09	1.03525e-08	2.92383e-09	3.8368e-09	0.000321872	0.000241428	0.000402355	36.8726	9649.76	12865.1	16081.9	-53.1274	0.0000000E+000	0.0000000E+000	0.0000000E+000	53.1274	0.0000000E+000	0.0000000E+000	0.0000000E+000	-53.1274	0.0000000E+000	0.0000000E+000	0.0000000E+000	-36.8726	0.0000000E+000	0.0000000E+000	0.0000000E+000	36.8726	1.3332	53.1274	-9.68839e-08
3.16296	2277.61	1477.47	2714.85	-32.9712	670.932	0.459598	-7.68876e-05	34.0571	10.0868	1	41	0.0131737	4.85245e-06	0	-4.55821e-05	0.471124	0.261873	8.46163	1.59612e-05	2.93749e-05	2.87333e-05	3.21384e-05	1.14116e-05	8.75453e-06	0.798984	0.114715	4.84832	3.3526e-08	1.55732e-08	5.38563e-09	6.92792e-09	3.63824e-09	2.72789e-09	0.00030902	0.00020046	0.000368344	32.9712	10086.8	15549.4	18534.5	-57.0288	0.0000000E+000	0.0000000E+000	0.0000000E+000	57.0288	0.0000000E+000	0.0000000E+000	0.0000000E+000	-57.0288	0.0000000E+000	0.0000000E+000	0.0000000E+000	-32.9712	0.0000000E+000	0.0000000E+000	0.0000000E+000	32.9712	1.54156	57.0288	2.00645e-08
2.51085	2558.56	1422.36	2927.34	-29.0707	673.735	0.459605	-7.75465e-05	44.5646	10.5211	1	41	0.0131777	4.50161e-06	0	-4.56483e-05	0.363551	0.211405	7.20202	1.68642e-05	1.0589e-05	2.27694e-05	2.37325e-05	2.28189e-05	8.71603e-06	0.78624	0.150387	4.59678	3.06641e-08	1.53405e-08	4.32636e-09	4.37606e-09	3.31715e-09	2.49092e-09	0.000298572	0.000165983	0.000341607	29.0707	10521.1	18925.6	21653.4	-60.9293	0.0000000E+000	0.0000000E+000	0.0000000E+000	60.9293	0.0000000E+000	0.0000000E+000	0.0000000E+000	-60.9293	0.0000000E+000	0.0000000E+000	0.0000000E+000	-29.0707	0.0000000E+000	0.0000000E+000	0.0000000E+000	29.0707	1.79881	60.9293	-6.61996e-08
1.99553	2810.38	1338.43	3112.81	-25.4659	677.159	0.459612	-7.79846e-05	59.589	11.0167	1	41	0.0131738	4.23212e-06	0	-4.5735e-05	0.400212	0.228015	6.28933	2.17577e-05	3.04083e-05	1.34991e-05	2.07467e-05	1.098e-05	1.9364e-05	0.75736	0.157044	4.4071	2.74648e-08	1.38064e-08	2.10984e-09	6.60887e-09	2.61963e-09	3.75326e-09	0.00029004	0.00013813	0.000321253	25.4659	11016.7	23132.3	25621.7	-64.5341	0.0000000E+000	0.0000000E+000	0.0000000E+000	64.5341	0.0000000E+000	0.0000000E+000	0.0000000E+000	-64.5341	0.0000000E+000	0.0000000E+000	0.0000000E+000	-25.4659	0.0000000E+000	0.0000000E+000	0.0000000E+000	25.4659	2.09976	64.5341	-8.67007e-08
1.58533	3039.27	1235.45	3280.78	-22.1216	681.371	0.459611	-8.43666e-05	81.2595	11.5232	1	41	0.0131825	4.01809e-06	0	-4.6017e-05	0.272882	0.181241	5.7247	1.53203e-05	1.52788e-05	1.17166e-05	1.81797e-05	1.07994e-05	1.03708e-05	0.828743	0.136448	4.34683	2.93446e-08	1.43501e-08	2.66169e-09	4.49656e-09	2.21578e-09	1.85893e-09	0.000282368	0.000114782	0.000304806	22.1216	11523.2	28347.6	30600.2	-67.8784	0.0000000E+000	0.0000000E+000	0.0000000E+000	67.8784	0.0000000E+000	0.0000000E+000	0.0000000E+000	-67.8784	0.0000000E+000	0.0000000E+000	0.0000000E+000	-22.1216	0.0000000E+000	0.0000000E+000	0.0000000E+000	22.1216	2.46004	67.8784	-2.81921e-07
1.25825	3226.75	1118.91	3415.24	-19.1246	688.22	0.459599	-8.40982e-05	113.046	12.134	1	42	0.0131662	3.85512e-06	0	-4.60306e-05	0.349219	0.198822	5.42965	1.82531e-05	2.60025e-05	1.79027e-05	2.01861e-05	1.31704e-05	8.70564e-06	0.730261	0.0296338	1.38126	2.48286e-08	1.23535e-08	6.36942e-10	4.59288e-09	1.10971e-09	4.56354e-10	0.000276644	9.59296e-05	0.000292805	19.1246	12134	34992.4	37036.5	-70.8754	0.0000000E+000	0.0000000E+000	0.0000000E+000	70.8754	0.0000000E+000	0.0000000E+000	0.0000000E+000	-70.8754	0.0000000E+000	0.0000000E+000	0.0000000E+000	-19.1246	0.0000000E+000	0.0000000E+000	0.0000000E+000	19.1246	2.88383	70.8754	-1.36325e-08
1.00006	3392.19	996.238	3535.46	-16.3668	694.68	0.459598	-8.63094e-05	159.746	12.6843	1	42	0.0131737	3.72617e-06	0	-4.63579e-05	0.262156	0.159104	4.56519	1.3214e-05	8.97443e-06	1.10672e-05	1.52581e-05	1.75062e-05	1.23412e-05	0.727455	0.0447241	1.31703	2.39157e-08	1.20166e-08	6.58361e-10	4.11495e-09	6.21938e-10	5.56222e-10	0.000271387	7.97026e-05	0.000282849	16.3668	12684.3	43190	45014	-73.6332	0.0000000E+000	0.0000000E+000	0.0000000E+000	73.6332	0.0000000E+000	0.0000000E+000	0.0000000E+000	-73.6332	0.0000000E+000	0.0000000E+000	0.0000000E+000	-16.3668	0.0000000E+000	0.0000000E+000	0.0000000E+000	16.3668	3.405	73.6332	-3.27304e-07
0.79456	3526.06	882.139	3634.73	-14.0458	702.696	0.459585	-8.82182e-05	227.068	13.3747	1	42	0.013173	3.6242e-06	0	-4.62256e-05	0.204354	0.13162	3.97208	4.86284e-06	1.66497e-05	9.69686e-06	8.11379e-06	1.21331e-05	7.14497e-06	0.730336	0.034066	1.33773	2.33865e-08	1.16125e-08	6.68038e-10	4.1891e-09	5.17689e-10	3.23896e-10	0.000266898	6.67716e-05	0.000275123	14.0458	13374.7	53461.2	55108.8	-75.9542	0.0000000E+000	0.0000000E+000	0.0000000E+000	75.9542	0.0000000E+000	0.0000000E+000	0.0000000E+000	-75.9542	0.0000000E+000	0.0000000E+000	0.0000000E+000	-14.0458	0.0000000E+000	0.0000000E+000	0.0000000E+000	14.0458	3.99718	75.9542	1.32286e-07
0.630906	3637.22	772.248	3718.3	-11.9869	712.693	0.459588	-8.89309e-05	326.662	14.0904	1	42	0.0131724	3.54258e-06	0	-4.67869e-05	0.271661	0.123096	3.61464	6.40018e-06	1.62348e-05	1.43583e-05	1.54198e-05	1.25518e-05	1.36201e-05	0.731583	0.0620088	1.45894	2.31087e-08	1.11338e-08	7.00408e-10	3.38562e-09	9.56494e-10	4.64396e-10	0.000263076	5.58558e-05	0.00026894	11.9869	14090.4	66364.7	67844	-78.0131	0.0000000E+000	0.0000000E+000	0.0000000E+000	78.0131	0.0000000E+000	0.0000000E+000	0.0000000E+000	-78.0131	0.0000000E+000	0.0000000E+000	0.0000000E+000	-11.9869	0.0000000E+000	0.0000000E+000	0.0000000E+000	11.9869	4.70991	78.0131	-5.61274e-07
0.500946	3729.95	671.034	3789.83	-10.1987	725.199	0.459585	-8.50257e-05	473.462	14.8435	1	42	0.0131703	3.47518e-06	0	-4.72425e-05	0.200417	0.0772624	3.23785	1.29412e-05	1.60744e-05	2.54039e-06	8.83736e-06	1.05064e-05	5.93129e-06	0.712965	0.0494197	1.43304	2.21629e-08	1.05718e-08	6.75082e-10	3.08781e-09	2.3349e-10	4.95865e-10	0.000259695	4.67203e-05	0.000263864	10.1987	14843.5	82507.5	83832	-79.8013	0.0000000E+000	0.0000000E+000	0.0000000E+000	79.8013	0.0000000E+000	0.0000000E+000	0.0000000E+000	-79.8013	0.0000000E+000	0.0000000E+000	0.0000000E+000	-10.1987	0.0000000E+000	0.0000000E+000	0.0000000E+000	10.1987	5.55851	79.8013	-4.55665e-07
0.398211	3806.72	581.562	3850.89	-8.68605	740.849	0.459602	-8.21311e-05	687.244	15.674	1	42	0.0131734	3.42087e-06	0	-4.71432e-05	0.159162	0.0855982	2.76413	4.9795e-06	1.17324e-05	5.16703e-06	1.18848e-05	8.65421e-06	3.202e-06	0.716406	0.0342074	1.45013	2.19875e-08	1.03558e-08	3.64859e-10	3.05734e-09	3.22262e-10	2.98486e-10	0.000256702	3.9217e-05	0.00025968	8.68605	15674	102597	103788	-81.314	0.0000000E+000	0.0000000E+000	0.0000000E+000	81.314	0.0000000E+000	0.0000000E+000	0.0000000E+000	-81.314	0.0000000E+000	0.0000000E+000	0.0000000E+000	-8.68605	0.0000000E+000	0.0000000E+000	0.0000000E+000	8.68605	6.54569	81.314	9.93259e-08
0.316193	3870.36	500.955	3902.64	-7.37501	760.476	0.4596	-8.29523e-05	1004.78	16.5558	1	42	0.0131687	3.37429e-06	0	-4.73184e-05	0.148752	0.05352	2.50132	4.84912e-06	1.06135e-05	7.23186e-06	9.68051e-06	5.44917e-06	3.26352e-06	0.736371	0.0364727	1.45394	2.25105e-08	1.01304e-08	2.37215e-10	2.77485e-09	3.293e-10	2.42548e-10	0.000254117	3.28913e-05	0.000256237	7.37501	16555.8	127909	128976	-82.625	0.0000000E+000	0.0000000E+000	0.0000000E+000	82.625	0.0000000E+000	0.0000000E+000	0.0000000E+000	-82.625	0.0000000E+000	0.0000000E+000	0.0000000E+000	-7.37501	0.0000000E+000	0.0000000E+000	0.0000000E+000	7.37501	7.72595	82.625	-1.75185e-07
0.251222	3925.06	430.369	3948.59	-6.25728	785.095	0.4596	-8.49797e-05	1472.05	17.4872	1	42	0.0131704	3.33548e-06	0	-4.83179e-05	0.140837	0.0736802	2.24131	5.67791e-06	1.0596e-05	4.70207e-06	6.14656e-06	7.45334e-06	6.5574e-06	0.7465	0.0198101	1.44362	2.25705e-08	1.00996e-08	2.25952e-10	2.84494e-09	3.20795e-10	4.12778e-10	0.000251746	2.76031e-05	0.000253255	6.25728	17487.2	159487	160443	-83.7427	0.0000000E+000	0.0000000E+000	0.0000000E+000	83.7427	0.0000000E+000	0.0000000E+000	0.0000000E+000	-83.7427	0.0000000E+000	0.0000000E+000	0.0000000E+000	-6.25728	0.0000000E+000	0.0000000E+000	0.0000000E+000	6.25728	9.12023	83.7427	-9.99465e-07
0.199573	3972.5	365.643	3989.29	-5.25889	816.003	0.459601	-8.14608e-05	2181.02	18.3224	1	42	0.0131737	3.30227e-06	0	-4.97128e-05	0.138969	0.0483592	1.94989	4.4968e-06	1.08845e-05	7.51831e-06	7.91827e-06	4.38096e-06	5.8453e-06	0.743176	0.0397133	1.44869	2.22678e-08	9.89782e-09	3.38443e-10	2.83328e-09	3.03636e-10	2.74393e-10	0.000249616	2.29756e-05	0.000250671	5.25889	18322.4	199063	199904	-84.7411	0.0000000E+000	0.0000000E+000	0.0000000E+000	84.7411	0.0000000E+000	0.0000000E+000	0.0000000E+000	-84.7411	0.0000000E+000	0.0000000E+000	0.0000000E+000	-5.25889	0.0000000E+000	0.0000000E+000	0.0000000E+000	5.25889	10.8644	84.7411	-1.39498e-06
0.158419	4011.84	312.355	4023.98	-4.45197	854.859	0.459588	-8.22961e-05	3216.36	19.3799	1	42	0.0131699	3.27285e-06	0	-5.08038e-05	0.123113	0.0768093	1.79488	3.9637e-06	7.41438e-06	4.292e-06	9.68891e-06	5.76783e-06	5.46979e-06	0.763179	0.0334588	1.44831	2.2735e-08	1.00026e-08	2.40883e-10	2.60617e-09	2.3206e-10	1.41313e-10	0.00024776	1.92902e-05	0.00024851	4.45197	19379.9	248912	249665	-85.548	0.0000000E+000	0.0000000E+000	0.0000000E+000	85.548	0.0000000E+000	0.0000000E+000	0.0000000E+000	-85.548	0.0000000E+000	0.0000000E+000	0.0000000E+000	-4.45197	0.0000000E+000	0.0000000E+000	0.0000000E+000	4.45197	12.8438	85.548	-1.09097e-06
0.125939	4045.95	263.706	4054.53	-3.72913	903.656	0.459575	-8.28341e-05	4792.28	20.2721	1	42	0.01317	3.24821e-06	0	-5.12919e-05	0.138349	0.0712511	1.54545	3.51056e-06	9.76777e-06	3.79437e-06	1.06056e-05	7.46986e-06	4.5163e-06	0.767195	0.0384558	1.41174	2.2763e-08	9.79026e-09	3.12451e-10	2.61491e-09	1.19985e-10	2.1104e-10	0.000246115	1.60412e-05	0.000246638	3.72913	20272.1	311028	311688	-86.2709	0.0000000E+000	0.0000000E+000	0.0000000E+000	86.2709	0.0000000E+000	0.0000000E+000	0.0000000E+000	-86.2709	0.0000000E+000	0.0000000E+000	0.0000000E+000	-3.72913	0.0000000E+000	0.0000000E+000	0.0000000E+000	3.72913	15.3427	86.2709	-4.88081e-07
0.0999518	4078.5	221.19	4084.49	-3.10429	965.058	0.459584	-8.3145e-05	7198.88	21.1115	1	42	0.0131732	3.22517e-06	0	-5.15532e-05	0.11125	0.0677342	1.46942	3.39305e-06	1.05429e-05	4.43112e-06	6.04629e-06	3.85284e-06	3.10147e-06	0.77158	0.0376047	1.41874	2.28966e-08	9.33667e-09	3.36198e-10	2.75798e-09	1.18679e-10	1.57941e-10	0.000244469	1.32583e-05	0.000244829	3.10429	21111.5	389273	389845	-86.8957	0.0000000E+000	0.0000000E+000	0.0000000E+000	86.8957	0.0000000E+000	0.0000000E+000	0.0000000E+000	-86.8957	0.0000000E+000	0.0000000E+000	0.0000000E+000	-3.10429	0.0000000E+000	0.0000000E+000	0.0000000E+000	3.10429	18.4389	86.8957	-2.61335e-07