File: Python/Data/RDE/240219-EIS-Fe2Fe3_5mM-HCl1M-226RPM-Ag_AgCl_BLF8-GC-RDE_C15.mpt
EC-Lab ASCII FILE
Nb header lines : 66

Potentio Electrochemical Impedance Spectroscopy

Run on channel : 15 (SN 19485)
User :
Electrode connection : standard
Potential control : Ewe
Ewe ctrl range : min = -1.00 V, max = 1.00 V
Ewe,I filtering : <None>
Safety Limits :
	Do not start on E overload
Channel : Floating
Acquisition started on : 02/19/2024 15:59:30.354
Loaded Setting File :  NONE
Saved on :
	File : 240219-EIS-Fe2Fe3_5mM-HCl1M-226RPM-Ag_AgCl_BLF8-GC-RDE_C15.mpr
	Directory : C:\Data\mathias\RDE-RPM-variation\
	Host : 192.168.0.1
Device : VMP-300 (SN 0826)
Address : USB
EC-Lab for windows v11.52 (software)
Internet server v11.52 (firmware)
Command interpretor v11.52 (firmware)
Electrode material :
Initial state :
Electrolyte :
Comments :
Cable : special
Electrode surface area : 0.001 cm²
Characteristic mass : 0.001 g
Equivalent Weight : 0.000 g/eq.
Density : 0.000 g/cm3
Volume (V) : 0.001 cm³
Record EIS quality indicators
Cycle Definition : Charge/Discharge alternance
Mode                Single sine
E (V)               0.0000
vs.                 Ref
tE (h:m:s)          0:00:30.0000
record              0
dI                  0.000
unit dI             mA
dt (s)              0.000
fi                  400.000
unit fi             kHz
ff                  100.000
unit ff             mHz
Nd                  10
Points              per decade
spacing             Logarithmic
Va (mV)             7.0
pw                  0.10
Na                  3
corr                0
E range min (V)     -1.000
E range max (V)     1.000
I Range             Auto
Bandwidth           8
nc cycles           2
goto Ns'            0
nr cycles           0
inc. cycle          1

freq/Hz	Re(Z)/Ohm	-Im(Z)/Ohm	|Z|/Ohm	Phase(Z)/deg	time/s	<Ewe>/V	<I>/mA	Cs/µF	Cp/µF	cycle number	I Range	|Ewe|/V	|I|/A	Ns	(Q-Qo)/mA.h	THD Ewe/%	NSD Ewe/%	NSR Ewe/%	|Ewe h2|/V	|Ewe h3|/V	|Ewe h4|/V	|Ewe h5|/V	|Ewe h6|/V	|Ewe h7|/V	THD I/%	NSD I/%	NSR I/%	|I h2|/A	|I h3|/A	|I h4|/A	|I h5|/A	|I h6|/A	|I h7|/A	Re(Y)/Ohm-1	Im(Y)/Ohm-1	|Y|/Ohm-1	Phase(Y)/deg	Re(C)/nF	Im(C)/nF	|C|/nF	Phase(C)/deg	Re(M)	Im(M)	|M|	Phase(M)/deg	Re(Permittivity)	Im(Permittivity)	|Permittivity|	Phase(Permittivity)/deg	Re(Resistivity)/Ohm.cm	Im(Resistivity)/Ohm.cm	|Resistivity|/Ohm.cm	Phase(Resistivity)/deg	Re(Conductivity)/mS/cm	Im(Conductivity)/mS/cm	|Conductivity|/mS/cm	Phase(Conductivity)/deg	Tan(Delta)	Loss Angle(Delta)/deg	dq/mA.h
399996	3.73934	1.3024	3.95966	-19.2031	32.1955	-0.000136083	-0.178381	0.305506	0.0330517	1	38	0.00650287	0.00164228	0	-0.00156076	-1	-1	-1	0	0	0	0	0	0	-1	-1	-1	0	0	0	0	0	0	0.238495	0.0830671	0.252547	19.2031	33.0517	94.895	100.486	-70.7969	0.0000000E+000	0.0000000E+000	0.0000000E+000	70.7969	0.0000000E+000	0.0000000E+000	0.0000000E+000	-70.7969	0.0000000E+000	0.0000000E+000	0.0000000E+000	-19.2031	0.0000000E+000	0.0000000E+000	0.0000000E+000	19.2031	2.87111	70.7969	-0.00156076
200434	3.5945	0.805747	3.6837	-12.6346	35.6365	-0.000140557	-0.178204	0.985485	0.0471496	1	38	0.00720085	0.00195479	0	-0.0017382	-1	-1	-1	0	0	0	0	0	0	-1	-1	-1	0	0	0	0	0	0	0.264892	0.0593785	0.271466	12.6346	47.1496	210.338	215.558	-77.3654	0.0000000E+000	0.0000000E+000	0.0000000E+000	77.3654	0.0000000E+000	0.0000000E+000	0.0000000E+000	-77.3654	0.0000000E+000	0.0000000E+000	0.0000000E+000	-12.6346	0.0000000E+000	0.0000000E+000	0.0000000E+000	12.6346	4.46108	77.3654	-5.65099e-05
100431	3.58033	0.820265	3.67309	-12.9039	39.0775	-0.000133958	-0.178143	1.93197	0.0963484	1	38	0.00722257	0.00196634	0	-0.00190952	0.760084	0.732344	14.6185	9.99602e-06	2.48554e-05	2.68985e-05	2.30956e-05	1.30164e-05	2.3399e-05	0.0906818	0.147772	1.4351	1.00553e-06	5.8938e-07	9.09394e-07	4.36776e-07	2.81225e-07	6.50827e-07	0.265375	0.0607981	0.27225	12.9039	96.3483	420.546	431.442	-77.0961	0.0000000E+000	0.0000000E+000	0.0000000E+000	77.0961	0.0000000E+000	0.0000000E+000	0.0000000E+000	-77.0961	0.0000000E+000	0.0000000E+000	0.0000000E+000	-12.9039	0.0000000E+000	0.0000000E+000	0.0000000E+000	12.9039	4.36485	77.0961	-5.6311e-05
50326.6	3.67763	1.17563	3.86096	-17.7276	42.5205	-0.00013297	-0.176435	2.68999	0.249404	1	38	0.00727871	0.00188521	0	-0.00207201	0.533959	0.774778	14.3339	9.52617e-06	1.99254e-05	1.61907e-05	1.45761e-05	8.70436e-06	1.63492e-05	0.0818036	0.163319	1.49083	8.45745e-07	7.51538e-07	7.07024e-07	8.91974e-08	4.49604e-07	4.24844e-07	0.246704	0.0788644	0.259003	17.7276	249.404	780.187	819.081	-72.2724	0.0000000E+000	0.0000000E+000	0.0000000E+000	72.2724	0.0000000E+000	0.0000000E+000	0.0000000E+000	-72.2724	0.0000000E+000	0.0000000E+000	0.0000000E+000	-17.7276	0.0000000E+000	0.0000000E+000	0.0000000E+000	17.7276	3.1282	72.2724	-5.744e-05
25219	3.82652	2.0155	4.32487	-27.7766	45.9615	-0.000133082	-0.179102	3.13119	0.680031	1	38	0.00729639	0.00168707	0	-0.00223709	0.742416	0.700682	14.4502	1.06533e-05	3.36431e-05	1.43781e-05	1.88005e-05	1.51239e-05	2.21251e-05	0.086936	0.226264	1.67217	6.82923e-07	6.27226e-07	2.73549e-07	5.44943e-07	4.88539e-07	6.02603e-07	0.204577	0.107755	0.231221	27.7766	680.031	1291.07	1459.21	-62.2234	0.0000000E+000	0.0000000E+000	0.0000000E+000	62.2234	0.0000000E+000	0.0000000E+000	0.0000000E+000	-62.2234	0.0000000E+000	0.0000000E+000	0.0000000E+000	-27.7766	0.0000000E+000	0.0000000E+000	0.0000000E+000	27.7766	1.89855	62.2234	-5.50765e-05
12637.3	4.1256	3.66338	5.51733	-41.6039	49.4025	-0.000147454	-0.176592	3.43782	1.51562	1	38	0.00734479	0.00133122	0	-0.00240857	0.758047	0.746612	14.2744	2.68202e-05	1.05948e-05	2.75744e-05	2.74443e-05	1.83743e-05	1.26828e-05	0.142689	0.47695	2.14073	9.75041e-07	6.55365e-07	9.36109e-07	5.60708e-07	5.00409e-07	6.02832e-07	0.135528	0.120344	0.181247	41.6039	1515.62	1706.85	2282.63	-48.3961	0.0000000E+000	0.0000000E+000	0.0000000E+000	48.3961	0.0000000E+000	0.0000000E+000	0.0000000E+000	-48.3961	0.0000000E+000	0.0000000E+000	0.0000000E+000	-41.6039	0.0000000E+000	0.0000000E+000	0.0000000E+000	41.6039	1.12617	48.3961	-5.86308e-05
6332.63	4.72065	6.7522	8.23873	-55.0415	52.9619	-0.000248133	-0.178223	3.72212	2.50012	1	38	0.00717569	0.00087097	0	-0.00257985	0.876543	0.573852	14.5654	3.18434e-05	3.52908e-05	1.84729e-05	1.48767e-05	2.47408e-05	1.52072e-05	0.188744	0.454267	3.27095	5.95617e-07	7.1289e-07	7.73149e-07	6.82885e-07	5.72822e-07	3.65848e-07	0.0695474	0.0994774	0.121378	55.0415	2500.12	1747.9	3050.53	-34.9585	0.0000000E+000	0.0000000E+000	0.0000000E+000	34.9585	0.0000000E+000	0.0000000E+000	0.0000000E+000	-34.9585	0.0000000E+000	0.0000000E+000	0.0000000E+000	-55.0415	0.0000000E+000	0.0000000E+000	0.0000000E+000	55.0415	0.699127	34.9584	-6.08777e-05
3171.96	6.05075	12.4104	13.8069	-64.0083	56.294	-0.00025982	-0.178472	4.04302	3.26654	1	38	0.00645751	0.000467702	0	-0.00274306	0.971971	0.560506	16.3367	1.22932e-05	3.17888e-05	2.48965e-05	2.13449e-05	2.4002e-05	2.18068e-05	0.501644	0.387103	6.03996	1.31378e-06	1.30825e-06	5.79137e-07	6.85299e-07	6.53735e-07	4.99631e-07	0.0317407	0.0651021	0.0724276	64.0083	3266.54	1592.61	3634.1	-25.9917	0.0000000E+000	0.0000000E+000	0.0000000E+000	25.9917	0.0000000E+000	0.0000000E+000	0.0000000E+000	-25.9917	0.0000000E+000	0.0000000E+000	0.0000000E+000	-64.0083	0.0000000E+000	0.0000000E+000	0.0000000E+000	64.0083	0.487554	25.9917	-5.45981e-05
1589.49	8.85115	22.4176	24.1017	-68.4544	59.8328	-0.000261032	-0.17834	4.46655	3.86417	1	38	0.00664424	0.000275675	0	-0.00291616	0.681702	0.396631	15.9112	9.69956e-06	1.6345e-05	1.24922e-05	1.81848e-05	2.07319e-05	2.08935e-05	0.595511	0.213784	10.3896	7.93246e-07	5.99445e-07	3.88772e-07	7.90687e-07	6.85759e-07	4.65479e-07	0.0152372	0.0385917	0.0414908	68.4544	3864.17	1525.69	4154.46	-21.5456	0.0000000E+000	0.0000000E+000	0.0000000E+000	21.5456	0.0000000E+000	0.0000000E+000	0.0000000E+000	-21.5456	0.0000000E+000	0.0000000E+000	0.0000000E+000	-68.4544	0.0000000E+000	0.0000000E+000	0.0000000E+000	68.4544	0.39483	21.5456	-5.41782e-05
796.787	14.9471	39.8213	42.5342	-69.4261	63.4053	-0.000272794	-0.175014	5.01605	4.39661	1	39	0.0069264	0.000162843	0	-0.00308848	0.762041	0.345097	14.7144	1.39318e-05	2.43833e-05	1.49835e-05	2.6464e-05	1.69335e-05	1.76218e-05	0.718514	0.207975	7.69117	5.63264e-07	6.11647e-07	2.23212e-07	6.04638e-07	3.62829e-07	1.59547e-07	0.00826195	0.022011	0.0235105	69.4261	4396.61	1650.29	4696.13	-20.5739	0.0000000E+000	0.0000000E+000	0.0000000E+000	20.5739	0.0000000E+000	0.0000000E+000	0.0000000E+000	-20.5739	0.0000000E+000	0.0000000E+000	0.0000000E+000	-69.4261	0.0000000E+000	0.0000000E+000	0.0000000E+000	69.4261	0.375355	20.5739	-5.32834e-05
399.106	26.4843	69.3797	74.2628	-69.1067	66.7292	-0.000212398	-0.173013	5.74777	5.01674	1	39	0.00658212	8.86329e-05	0	-0.0032475	1.00382	0.4819	15.6764	2.10952e-05	2.61725e-05	2.82164e-05	3.49303e-05	2.64588e-05	1.73421e-05	0.900231	0.540269	14.5605	1.77386e-07	3.63804e-07	3.72331e-07	3.80734e-07	3.08208e-07	1.15547e-07	0.00480226	0.0125803	0.0134657	69.1067	5016.74	1915.04	5369.83	-20.8933	0.0000000E+000	0.0000000E+000	0.0000000E+000	20.8933	0.0000000E+000	0.0000000E+000	0.0000000E+000	-20.8933	0.0000000E+000	0.0000000E+000	0.0000000E+000	-69.1067	0.0000000E+000	0.0000000E+000	0.0000000E+000	69.1067	0.38173	20.8933	-5.26259e-05
199.936	47.3807	117.194	126.41	-67.9869	70.0438	-0.000197188	-0.175127	6.79239	5.83813	1	39	0.00647739	5.12413e-05	0	-0.00340654	0.941976	0.611617	15.9724	2.13411e-05	2.72949e-05	2.05902e-05	2.89201e-05	2.17679e-05	2.19439e-05	1.45882	0.8101	24.2527	3.88062e-07	2.38064e-07	9.07852e-08	3.67083e-07	1.73127e-07	3.71352e-07	0.00296512	0.00733408	0.00791079	67.9869	5838.13	2360.32	6297.21	-22.0131	0.0000000E+000	0.0000000E+000	0.0000000E+000	22.0131	0.0000000E+000	0.0000000E+000	0.0000000E+000	-22.0131	0.0000000E+000	0.0000000E+000	0.0000000E+000	-67.9869	0.0000000E+000	0.0000000E+000	0.0000000E+000	67.9869	0.404293	22.0131	-5.32493e-05
100.224	86.9374	196.565	214.932	-66.141	73.3583	-0.000215232	-0.17207	8.07868	6.75693	1	39	0.00643706	2.99493e-05	0	-0.00356566	0.753312	0.592669	16.1385	1.24117e-05	1.69744e-05	1.647e-05	3.03777e-05	1.78016e-05	1.59466e-05	1.95751	1.48144	42.2357	2.14936e-07	2.21151e-07	1.63613e-07	3.21029e-07	2.72979e-07	1.09252e-07	0.00188193	0.00425503	0.00465263	66.141	6756.93	2988.48	7388.31	-23.859	0.0000000E+000	0.0000000E+000	0.0000000E+000	23.859	0.0000000E+000	0.0000000E+000	0.0000000E+000	-23.859	0.0000000E+000	0.0000000E+000	0.0000000E+000	-66.141	0.0000000E+000	0.0000000E+000	0.0000000E+000	66.141	0.442284	23.859	-5.24453e-05
50.2089	154.36	318.653	354.072	-64.1539	76.8409	-0.000188464	-0.173996	9.94767	8.05704	1	40	0.00644556	1.82041e-05	0	-0.00373011	1.89281	1.48826	31.9586	7.83851e-05	2.90344e-05	3.3227e-05	3.36862e-05	3.81506e-05	5.16166e-05	1.0631	0.716053	14.7218	1.217e-07	5.55584e-08	3.7655e-08	6.88318e-08	5.21219e-08	8.92982e-08	0.00123127	0.00254177	0.00282429	64.1539	8057.04	3902.93	8952.59	-25.8461	0.0000000E+000	0.0000000E+000	0.0000000E+000	25.8461	0.0000000E+000	0.0000000E+000	0.0000000E+000	-25.8461	0.0000000E+000	0.0000000E+000	0.0000000E+000	-64.1539	0.0000000E+000	0.0000000E+000	0.0000000E+000	64.1539	0.484413	25.8461	-5.10826e-05
25.1691	282.28	508.913	581.957	-60.9841	80.0174	-0.000205184	-0.174061	12.4254	9.50197	1	40	0.00645564	1.1093e-05	0	-0.00388218	1.95124	0.821484	30.4138	3.84795e-05	4.33867e-05	4.49045e-05	5.16279e-05	5.24975e-05	5.82382e-05	1.52141	0.489763	23.6188	5.37379e-08	7.10112e-08	4.86802e-08	7.07553e-08	7.73366e-08	6.30253e-08	0.000833485	0.00150266	0.00171834	60.9841	9501.97	5270.48	10865.8	-29.0159	0.0000000E+000	0.0000000E+000	0.0000000E+000	29.0159	0.0000000E+000	0.0000000E+000	0.0000000E+000	-29.0159	0.0000000E+000	0.0000000E+000	0.0000000E+000	-60.9841	0.0000000E+000	0.0000000E+000	0.0000000E+000	60.9841	0.554672	29.0159	-5.09912e-05
12.6144	481.702	783.849	920.031	-58.4279	83.2946	-0.000192714	-0.171555	16.0962	11.6838	1	40	0.00645785	7.01917e-06	0	-0.0040383	1.12791	0.731251	21.5477	3.113e-05	1.88507e-05	2.06191e-05	1.83625e-05	3.94951e-05	3.40405e-05	1.48258	1.97586	26.959	4.07137e-08	2.84391e-08	3.72552e-08	4.40482e-08	4.06041e-08	4.23022e-08	0.00056908	0.000926036	0.00108692	58.4279	11683.8	7180.07	13713.6	-31.5721	0.0000000E+000	0.0000000E+000	0.0000000E+000	31.5721	0.0000000E+000	0.0000000E+000	0.0000000E+000	-31.5721	0.0000000E+000	0.0000000E+000	0.0000000E+000	-58.4279	0.0000000E+000	0.0000000E+000	0.0000000E+000	58.4279	0.614534	31.5721	-5.51232e-05
6.31569	812.484	1147.43	1405.96	-54.6981	86.9425	-0.000242671	-0.172991	21.9621	14.6278	1	40	0.00643955	4.58017e-06	0	-0.00421117	0.888064	0.401657	21.5825	2.31032e-05	2.63899e-05	2.51139e-05	1.99802e-05	9.34594e-06	2.50245e-05	2.51532	3.33413	40.3957	7.79236e-08	2.46382e-08	5.11789e-08	3.8695e-08	2.29893e-08	2.81261e-08	0.000411025	0.00058047	0.000711257	54.6981	14627.8	10357.8	17923.6	-35.3019	0.0000000E+000	0.0000000E+000	0.0000000E+000	35.3019	0.0000000E+000	0.0000000E+000	0.0000000E+000	-35.3019	0.0000000E+000	0.0000000E+000	0.0000000E+000	-54.6981	0.0000000E+000	0.0000000E+000	0.0000000E+000	54.6981	0.70809	35.3019	-6.55362e-05
3.16616	1329.25	1624.31	2098.88	-50.7049	92.7867	-0.000194388	-0.173454	30.947	18.5345	1	40	0.00643554	3.06618e-06	0	-0.0044917	0.81818	0.445183	13.1155	1.92457e-05	2.59296e-05	1.9817e-05	1.91218e-05	2.60739e-05	7.49508e-06	4.88925	14.9939	37.7075	9.23437e-08	7.07992e-08	6.15006e-08	4.76398e-08	3.65583e-08	2.38809e-08	0.00030174	0.000368718	0.000476445	50.7049	18534.5	15167.7	23949.7	-39.2951	0.0000000E+000	0.0000000E+000	0.0000000E+000	39.2951	0.0000000E+000	0.0000000E+000	0.0000000E+000	-39.2951	0.0000000E+000	0.0000000E+000	0.0000000E+000	-50.7049	0.0000000E+000	0.0000000E+000	0.0000000E+000	50.7049	0.818349	39.2951	-0.000110908
1.5871	2266.14	2155.26	3127.38	-43.5635	103.219	-0.000198758	-0.175089	46.5282	22.098	1	40	0.00644042	2.05936e-06	0	-0.00499305	0.431787	0.263413	9.19243	9.65692e-06	9.36487e-06	1.03084e-05	1.20304e-05	1.21132e-05	9.32349e-06	10.2863	30.2459	41.2725	1.47883e-07	9.76888e-08	7.55724e-08	4.77962e-08	5.35175e-08	4.28193e-08	0.000231699	0.000220362	0.000319756	43.5635	22098	23234.8	32065.3	-46.4365	0.0000000E+000	0.0000000E+000	0.0000000E+000	46.4365	0.0000000E+000	0.0000000E+000	0.0000000E+000	-46.4365	0.0000000E+000	0.0000000E+000	0.0000000E+000	-43.5635	0.0000000E+000	0.0000000E+000	0.0000000E+000	43.5635	1.05144	46.4365	-0.000202391
0.79456	2830.26	3014.2	4134.71	-46.8026	122.894	-0.000197413	-0.173726	66.4541	35.3164	1	40	0.00643039	1.55522e-06	0	-0.00593961	0.290597	0.21941	6.16465	4.45539e-06	4.58538e-06	8.59872e-06	1.12874e-05	5.88802e-06	6.42392e-06	10.2036	86.8423	38.6894	1.04935e-07	5.8789e-08	5.04305e-08	4.96231e-08	2.7163e-08	2.45879e-08	0.000165553	0.000176312	0.000241855	46.8026	35316.4	33161.3	48445	-43.1974	0.0000000E+000	0.0000000E+000	0.0000000E+000	43.1974	0.0000000E+000	0.0000000E+000	0.0000000E+000	-43.1974	0.0000000E+000	0.0000000E+000	0.0000000E+000	-46.8026	0.0000000E+000	0.0000000E+000	0.0000000E+000	46.8026	0.938976	43.1974	-0.000386451
0.398211	3889.73	3495.79	5229.78	-41.9468	161.022	-0.000201219	-0.173479	114.33	51.0841	1	40	0.00643592	1.23063e-06	0	-0.00777644	0.227424	0.0982049	4.20723	4.96778e-06	6.15082e-06	5.42222e-06	4.05414e-06	3.73761e-06	6.77955e-06	33.3892	82.7793	37.4525	3.59538e-07	1.34973e-07	6.76129e-08	3.37758e-08	2.44342e-08	1.84266e-08	0.000142218	0.000127814	0.000191213	41.9468	51084.1	56840.8	76422.9	-48.0532	0.0000000E+000	0.0000000E+000	0.0000000E+000	48.0532	0.0000000E+000	0.0000000E+000	0.0000000E+000	-48.0532	0.0000000E+000	0.0000000E+000	0.0000000E+000	-41.9468	0.0000000E+000	0.0000000E+000	0.0000000E+000	41.9468	1.11269	48.0532	-0.00075473
0.199573	6027.01	11841.9	13287.4	-63.026	236.174	-0.00022638	-0.173109	67.3433	53.4881	1	40	0.00643406	4.84221e-07	0	-0.0113937	0.197221	0.13567	3.20885	3.62046e-06	8.32619e-06	4.06151e-06	5.06546e-06	2.44593e-06	4.18938e-06	243.339	420.965	220.844	4.1684e-07	1.23582e-07	1.70377e-07	1.35234e-07	5.92373e-08	5.08172e-08	3.41365e-05	6.70717e-05	7.5259e-05	63.026	53488.1	27223	60017.2	-26.974	0.0000000E+000	0.0000000E+000	0.0000000E+000	26.974	0.0000000E+000	0.0000000E+000	0.0000000E+000	-26.974	0.0000000E+000	0.0000000E+000	0.0000000E+000	-63.026	0.0000000E+000	0.0000000E+000	0.0000000E+000	63.026	0.508955	26.974	-0.00148563
0.0999518	8017.01	1549.91	8165.46	-10.9419	385.229	-0.000234946	-0.173003	1027.36	37.0148	1	40	0.00643522	7.88104e-07	0	-0.0185581	0.196532	0.0953991	2.33776	4.28543e-06	6.67772e-06	3.14771e-06	7.58286e-06	2.20288e-06	4.21268e-06	190.061	191.216	180.598	4.26224e-07	4.54599e-07	3.91053e-07	2.32814e-07	1.46511e-07	1.14518e-07	0.000120241	2.32459e-05	0.000122467	10.9419	37014.9	191461	195007	-79.0581	0.0000000E+000	0.0000000E+000	0.0000000E+000	79.0581	0.0000000E+000	0.0000000E+000	0.0000000E+000	-79.0581	0.0000000E+000	0.0000000E+000	0.0000000E+000	-10.9419	0.0000000E+000	0.0000000E+000	0.0000000E+000	10.9419	5.17256	79.0581	-0.00294983
252347	3.62429	0.932577	3.74235	-14.4299	389.766	-0.000138283	-0.176031	0.676295	0.0419969	2	38	0.00721626	0.00192827	0	-0.0187785	-1	-1	-1	0	0	0	0	0	0	-1	-1	-1	0	0	0	0	0	0	0.258782	0.066588	0.267212	14.4299	41.9969	163.213	168.53	-75.5701	0.0000000E+000	0.0000000E+000	0.0000000E+000	75.5701	0.0000000E+000	0.0000000E+000	0.0000000E+000	-75.5701	0.0000000E+000	0.0000000E+000	0.0000000E+000	-14.4299	0.0000000E+000	0.0000000E+000	0.0000000E+000	14.4299	3.88632	75.5701	-5.8299e-05
126447	3.57219	0.804338	3.66163	-12.6895	393.205	-0.000133269	-0.173389	1.56485	0.0755094	2	38	0.00722708	0.00197373	0	-0.018949	-1	-1	-1	0	0	0	0	0	0	-1	-1	-1	0	0	0	0	0	0	0.266432	0.0599916	0.273103	12.6895	75.5093	335.349	343.745	-77.3105	0.0000000E+000	0.0000000E+000	0.0000000E+000	77.3105	0.0000000E+000	0.0000000E+000	0.0000000E+000	-77.3105	0.0000000E+000	0.0000000E+000	0.0000000E+000	-12.6895	0.0000000E+000	0.0000000E+000	0.0000000E+000	12.6895	4.44116	77.3105	-5.13466e-05
63362.9	3.63434	1.05942	3.78561	-16.2516	396.648	-0.000134331	-0.174756	2.37091	0.185688	2	38	0.00723964	0.00191241	0	-0.0191134	0.795259	0.7604	14.5443	2.42282e-05	2.03378e-05	1.64303e-05	1.59345e-05	1.52426e-05	3.27356e-05	0.114574	0.179566	1.46782	8.11384e-07	7.11843e-07	8.31917e-07	5.79575e-07	8.37793e-07	8.9375e-07	0.253603	0.0739263	0.264158	16.2516	185.688	637.001	663.513	-73.7484	0.0000000E+000	0.0000000E+000	0.0000000E+000	73.7484	0.0000000E+000	0.0000000E+000	0.0000000E+000	-73.7484	0.0000000E+000	0.0000000E+000	0.0000000E+000	-16.2516	0.0000000E+000	0.0000000E+000	0.0000000E+000	16.2516	3.43049	73.7484	-5.53791e-05
31751	3.75908	1.72853	4.13745	-24.6943	400.09	-0.000108719	-0.173983	2.89992	0.506143	2	38	0.00724715	0.0017516	0	-0.0192769	0.668485	0.925132	14.706	1.94926e-05	2.09188e-05	2.22925e-05	1.57695e-05	1.61812e-05	1.38046e-05	0.0922756	0.155965	1.60189	5.41264e-07	6.15286e-07	6.58164e-07	7.51748e-07	4.20275e-07	5.07006e-07	0.219592	0.100974	0.241695	24.6943	506.143	1100.72	1211.52	-65.3057	0.0000000E+000	0.0000000E+000	0.0000000E+000	65.3057	0.0000000E+000	0.0000000E+000	0.0000000E+000	-65.3057	0.0000000E+000	0.0000000E+000	0.0000000E+000	-24.6943	0.0000000E+000	0.0000000E+000	0.0000000E+000	24.6943	2.17473	65.3057	-5.16494e-05
15912.6	4.00177	3.1114	5.06902	-37.8653	403.531	-0.00013558	-0.174041	3.21457	1.21112	2	38	0.00730899	0.00144189	0	-0.019439	0.667071	0.571974	14.5118	1.98753e-05	1.92766e-05	1.47243e-05	1.52395e-05	1.88268e-05	2.55686e-05	0.138854	0.24647	1.97108	7.3882e-07	5.40838e-07	1.00933e-06	8.7033e-07	7.31431e-07	5.61692e-07	0.155741	0.12109	0.197277	37.8653	1211.12	1557.69	1973.12	-52.1347	0.0000000E+000	0.0000000E+000	0.0000000E+000	52.1347	0.0000000E+000	0.0000000E+000	0.0000000E+000	-52.1347	0.0000000E+000	0.0000000E+000	0.0000000E+000	-37.8653	0.0000000E+000	0.0000000E+000	0.0000000E+000	37.8653	1.28616	52.1347	-5.3559e-05
7967.67	4.50147	5.76976	7.31801	-52.0392	407	-0.000265431	-0.177597	3.46204	2.15209	2	38	0.00742789	0.00101502	0	-0.0196028	0.594556	0.584875	14.128	1.64886e-05	8.00765e-06	2.03786e-05	1.91072e-05	1.59603e-05	2.09254e-05	0.169997	0.346476	2.79111	9.52764e-07	5.49905e-07	5.10365e-07	4.62002e-07	8.02152e-07	5.91072e-07	0.0840559	0.107739	0.136649	52.0392	2152.09	1679.02	2729.58	-37.9608	0.0000000E+000	0.0000000E+000	0.0000000E+000	37.9608	0.0000000E+000	0.0000000E+000	0.0000000E+000	-37.9608	0.0000000E+000	0.0000000E+000	0.0000000E+000	-52.0392	0.0000000E+000	0.0000000E+000	0.0000000E+000	52.0392	0.780184	37.9608	-5.64052e-05
3993.72	5.60449	10.5974	11.9881	-62.1277	410.464	-0.000262915	-0.175329	3.76048	2.93859	2	38	0.0065362	0.000545222	0	-0.0197691	0.87611	0.580435	16.416	1.52739e-05	2.57485e-05	2.3188e-05	2.11284e-05	2.62041e-05	1.78052e-05	0.464342	0.21277	5.25812	1.77875e-06	1.30983e-06	5.04001e-07	6.06907e-07	5.47751e-07	5.83411e-07	0.0389971	0.0737388	0.0834158	62.1277	2938.59	1554.09	3324.23	-27.8723	0.0000000E+000	0.0000000E+000	0.0000000E+000	27.8723	0.0000000E+000	0.0000000E+000	0.0000000E+000	-27.8723	0.0000000E+000	0.0000000E+000	0.0000000E+000	-62.1277	0.0000000E+000	0.0000000E+000	0.0000000E+000	62.1277	0.528855	27.8723	-5.40204e-05
2001.92	7.85275	19.1713	20.7173	-67.7256	414.002	-0.000263772	-0.176514	4.14688	3.55108	2	38	0.00657564	0.000317398	0	-0.0199419	1.06442	0.612213	16.4162	2.42221e-05	3.61953e-05	2.87198e-05	2.6976e-05	2.89593e-05	1.81448e-05	0.559618	0.300108	8.95143	5.56381e-07	1.17092e-06	4.45434e-07	5.8252e-07	2.80886e-07	7.80482e-07	0.018296	0.044667	0.0482689	67.7256	3551.08	1454.55	3837.43	-22.2744	0.0000000E+000	0.0000000E+000	0.0000000E+000	22.2744	0.0000000E+000	0.0000000E+000	0.0000000E+000	-22.2744	0.0000000E+000	0.0000000E+000	0.0000000E+000	-67.7256	0.0000000E+000	0.0000000E+000	0.0000000E+000	67.7256	0.409609	22.2744	-5.36578e-05
1002.75	12.8094	34.5295	36.8289	-69.6467	417.576	-0.000247536	-0.173686	4.59659	4.04054	2	39	0.00702943	0.000190867	0	-0.0201134	0.929827	0.552403	15.4756	1.28299e-05	3.53811e-05	2.18279e-05	3.24489e-05	1.753e-05	1.62801e-05	0.585988	0.19139	7.04634	7.22195e-07	6.46875e-07	2.75134e-07	2.92574e-07	2.58663e-07	2.08374e-07	0.00944389	0.0254573	0.0271526	69.6467	4040.54	1498.92	4309.61	-20.3533	0.0000000E+000	0.0000000E+000	0.0000000E+000	20.3533	0.0000000E+000	0.0000000E+000	0.0000000E+000	-20.3533	0.0000000E+000	0.0000000E+000	0.0000000E+000	-69.6467	0.0000000E+000	0.0000000E+000	0.0000000E+000	69.6467	0.37097	20.3533	-6.38277e-05
502.588	22.5891	59.7147	63.8444	-69.2791	420.898	-0.000219985	-0.173586	5.30307	4.6392	2	39	0.00645868	0.000101163	0	-0.0202708	0.996314	0.537105	15.7265	1.77319e-05	1.93401e-05	3.26129e-05	3.71824e-05	1.637e-05	1.49234e-05	0.946263	0.358546	12.4887	2.74796e-07	6.15016e-07	2.46819e-07	5.13123e-07	1.94091e-07	1.4687e-07	0.00554184	0.0146499	0.0156631	69.2791	4639.2	1754.94	4960.04	-20.7209	0.0000000E+000	0.0000000E+000	0.0000000E+000	20.7209	0.0000000E+000	0.0000000E+000	0.0000000E+000	-20.7209	0.0000000E+000	0.0000000E+000	0.0000000E+000	-69.2791	0.0000000E+000	0.0000000E+000	0.0000000E+000	69.2791	0.378285	20.7209	-5.28227e-05
251.853	40.8048	101.857	109.726	-68.1686	424.211	-0.000228467	-0.171971	6.20414	5.34615	2	39	0.00632549	5.76479e-05	0	-0.0204284	0.842343	0.445457	16.6921	2.21002e-05	7.41541e-06	2.99769e-05	2.26252e-05	1.33878e-05	2.43089e-05	1.27995	0.467543	22.4859	2.88375e-07	2.10305e-07	3.88586e-07	1.25015e-07	2.63276e-07	3.47703e-07	0.00338913	0.00845997	0.00911358	68.1686	5346.15	2141.71	5759.19	-21.8314	0.0000000E+000	0.0000000E+000	0.0000000E+000	21.8314	0.0000000E+000	0.0000000E+000	0.0000000E+000	-21.8314	0.0000000E+000	0.0000000E+000	0.0000000E+000	-68.1686	0.0000000E+000	0.0000000E+000	0.0000000E+000	68.1686	0.400608	21.8315	-5.21918e-05
126.171	74.7051	172.922	188.369	-66.6349	427.528	-0.000255589	-0.171996	7.29473	6.1474	2	39	0.0063179	3.354e-05	0	-0.0205865	1.00058	0.536631	16.6023	2.9392e-05	2.60127e-05	1.58002e-05	2.45384e-05	2.75416e-05	2.00481e-05	2.36238	1.20755	38.3828	2.9285e-07	3.50701e-07	2.68665e-07	3.08893e-07	3.33935e-07	2.74545e-07	0.00210538	0.00487339	0.00530872	66.6349	6147.4	2655.77	6696.54	-23.3651	0.0000000E+000	0.0000000E+000	0.0000000E+000	23.3651	0.0000000E+000	0.0000000E+000	0.0000000E+000	-23.3651	0.0000000E+000	0.0000000E+000	0.0000000E+000	-66.6349	0.0000000E+000	0.0000000E+000	0.0000000E+000	66.6349	0.432016	23.3651	-5.22875e-05
63.2394	134.518	280.725	311.29	-64.3972	431.049	-0.000251451	-0.173729	8.96501	7.29092	2	40	0.00634624	2.03869e-05	0	-0.0207521	1.36112	0.872767	31.0806	3.43434e-05	2.70217e-05	5.43082e-05	2.34738e-05	2.68548e-05	1.78783e-05	0.764944	0.39347	12.8314	6.29955e-08	4.9663e-08	7.75281e-08	6.54408e-08	4.56441e-08	2.87823e-08	0.00138819	0.00289701	0.00321243	64.3972	7290.92	3493.66	8084.75	-25.6028	0.0000000E+000	0.0000000E+000	0.0000000E+000	25.6028	0.0000000E+000	0.0000000E+000	0.0000000E+000	-25.6028	0.0000000E+000	0.0000000E+000	0.0000000E+000	-64.3972	0.0000000E+000	0.0000000E+000	0.0000000E+000	64.3972	0.479179	25.6028	-5.17424e-05
31.6723	245.16	443.374	506.64	-61.06	434.444	-0.000251693	-0.172708	11.3337	8.67986	2	40	0.00690228	1.36236e-05	0	-0.0209145	1.53175	0.681335	27.7846	3.75438e-05	5.55973e-05	5.01135e-05	2.48903e-05	3.38515e-05	4.10715e-05	1.16587	0.61591	18.7586	9.22672e-08	7.02789e-08	7.37178e-08	3.94632e-08	3.68727e-08	3.32974e-08	0.000955104	0.00172732	0.00197379	61.06	8679.86	4799.45	9918.4	-28.94	0.0000000E+000	0.0000000E+000	0.0000000E+000	28.94	0.0000000E+000	0.0000000E+000	0.0000000E+000	-28.94	0.0000000E+000	0.0000000E+000	0.0000000E+000	-61.06	0.0000000E+000	0.0000000E+000	0.0000000E+000	61.06	0.552941	28.94	-4.97377e-05
15.879	434.791	674.099	802.155	-57.1781	437.618	-0.000281015	-0.174294	14.8687	10.5003	2	40	0.00690443	8.60734e-06	0	-0.0210662	1.45443	0.737225	28.509	2.9525e-05	5.5103e-05	1.29875e-05	4.96577e-05	3.80053e-05	2.78213e-05	1.87347	1.22311	30.2603	8.18976e-08	6.96344e-08	2.35296e-08	6.77132e-08	5.58381e-08	4.61117e-08	0.000675716	0.00104763	0.00124664	57.1781	10500.3	6772.66	12495	-32.8219	0.0000000E+000	0.0000000E+000	0.0000000E+000	32.8219	0.0000000E+000	0.0000000E+000	0.0000000E+000	-32.8219	0.0000000E+000	0.0000000E+000	0.0000000E+000	-57.1781	0.0000000E+000	0.0000000E+000	0.0000000E+000	57.1781	0.644996	32.8219	-5.00373e-05
7.95573	706.323	1000.98	1225.09	-54.792	441.053	-0.000222213	-0.173467	19.9855	13.3422	2	40	0.00690324	5.63488e-06	0	-0.0212293	1.00043	0.381346	19.2322	2.31374e-05	2.23738e-05	3.2059e-05	3.04114e-05	2.42573e-05	2.87478e-05	1.83825	1.14929	31.2849	5.11301e-08	3.5064e-08	4.20943e-08	4.3944e-08	2.99589e-08	3.98273e-08	0.000470615	0.000666941	0.000816265	54.792	13342.2	9414.69	16329.4	-35.208	0.0000000E+000	0.0000000E+000	0.0000000E+000	35.208	0.0000000E+000	0.0000000E+000	0.0000000E+000	-35.208	0.0000000E+000	0.0000000E+000	0.0000000E+000	-54.792	0.0000000E+000	0.0000000E+000	0.0000000E+000	54.792	0.705632	35.208	-5.7275e-05
3.98597	1098.9	1351.89	1742.18	-50.8939	445.973	-0.00020819	-0.173505	29.5354	17.7846	2	40	0.00689146	3.95565e-06	0	-0.0214646	0.9131	0.397105	14.5931	2.9911e-05	2.09956e-05	3.33655e-05	1.31865e-05	1.7498e-05	2.36677e-05	3.22687	8.49444	34.0388	9.76833e-08	3.4383e-08	3.52497e-08	1.43518e-08	3.47277e-08	4.96953e-08	0.000362052	0.000445407	0.000573994	50.8939	17784.6	14456.3	22918.9	-39.1061	0.0000000E+000	0.0000000E+000	0.0000000E+000	39.1061	0.0000000E+000	0.0000000E+000	0.0000000E+000	-39.1061	0.0000000E+000	0.0000000E+000	0.0000000E+000	-50.8939	0.0000000E+000	0.0000000E+000	0.0000000E+000	50.8939	0.812856	39.1061	-9.21403e-05
1.99783	1750.03	2045.94	2692.3	-49.4575	454.502	-0.000237076	-0.174607	38.9376	22.4858	2	40	0.00688932	2.5589e-06	0	-0.0218728	0.536906	0.324987	9.64627	9.44552e-06	1.35273e-05	1.21729e-05	1.49456e-05	1.19104e-05	1.85425e-05	5.61063	22.8765	35.9339	9.73426e-08	4.42017e-08	3.67423e-08	3.9516e-08	3.76961e-08	4.23721e-08	0.000241434	0.000282259	0.00037143	49.4575	22485.8	19233.6	29589.6	-40.5425	0.0000000E+000	0.0000000E+000	0.0000000E+000	40.5425	0.0000000E+000	0.0000000E+000	0.0000000E+000	-40.5425	0.0000000E+000	0.0000000E+000	0.0000000E+000	-49.4575	0.0000000E+000	0.0000000E+000	0.0000000E+000	49.4575	0.855365	40.5425	-0.000164217
1.00122	2457.76	2972.72	3857.15	-50.417	470.366	-0.000230073	-0.172594	53.4735	31.7623	2	40	0.00689002	1.7863e-06	0	-0.0226347	0.423895	0.222964	6.78357	1.20881e-05	9.84201e-06	1.45704e-05	7.69793e-06	9.96246e-06	8.93752e-06	8.86625	23.2197	37.6231	1.05282e-07	6.19248e-08	6.40718e-08	3.36968e-08	3.4694e-08	3.33164e-08	0.000165198	0.000199811	0.000259259	50.417	31762.3	26260.2	41212.2	-39.583	0.0000000E+000	0.0000000E+000	0.0000000E+000	39.583	0.0000000E+000	0.0000000E+000	0.0000000E+000	-39.583	0.0000000E+000	0.0000000E+000	0.0000000E+000	-50.417	0.0000000E+000	0.0000000E+000	0.0000000E+000	50.417	0.826772	39.583	-0.000309773
0.501541	1997.39	5198.09	5568.64	-68.9805	500.862	-0.000225679	-0.172236	61.0478	53.1936	2	40	0.00689953	1.239e-06	0	-0.0240973	0.214801	0.12927	4.66904	2.97716e-06	7.66007e-06	4.12181e-06	5.71363e-06	5.46176e-06	7.60781e-06	15.8173	67.4826	37.9079	1.40234e-07	9.95106e-08	4.26403e-08	3.08574e-08	2.23317e-08	1.39103e-08	6.44118e-05	0.000167628	0.000179577	68.9805	53193.6	20439.9	56985.5	-21.0195	0.0000000E+000	0.0000000E+000	0.0000000E+000	21.0195	0.0000000E+000	0.0000000E+000	0.0000000E+000	-21.0195	0.0000000E+000	0.0000000E+000	0.0000000E+000	-68.9805	0.0000000E+000	0.0000000E+000	0.0000000E+000	68.9805	0.384255	21.0195	-0.000599671
0.251222	5617.27	7083.97	9040.81	-51.5872	560.756	-0.000229894	-0.172166	89.4306	54.9066	2	40	0.00689392	7.62534e-07	0	-0.0269675	0.195451	0.135506	3.32569	4.03367e-06	7.04279e-06	5.09269e-06	5.63264e-06	1.91346e-06	4.54785e-06	64.0715	140.349	76.6108	3.71008e-07	1.1812e-07	7.82096e-08	2.70813e-08	6.02226e-08	2.62618e-08	6.87242e-05	8.66686e-05	0.00011061	51.5872	54906.6	43538.5	70073.8	-38.4128	0.0000000E+000	0.0000000E+000	0.0000000E+000	38.4128	0.0000000E+000	0.0000000E+000	0.0000000E+000	-38.4128	0.0000000E+000	0.0000000E+000	0.0000000E+000	-51.5872	0.0000000E+000	0.0000000E+000	0.0000000E+000	51.5872	0.792955	38.4128	-0.00117744
0.125939	9923.32	13034.8	16382.2	-52.7181	679.318	-0.000212079	-0.172957	96.9521	61.3788	2	40	0.00689388	4.20814e-07	0	-0.0326609	0.158121	0.0965847	2.32576	3.23742e-06	5.70928e-06	3.31272e-06	5.60381e-06	2.68841e-06	2.65379e-06	285.294	220.051	199.452	5.66349e-07	3.74261e-07	2.55384e-07	2.25368e-07	1.19753e-07	1.22763e-07	3.69752e-05	4.85688e-05	6.10417e-05	52.7181	61378.8	46727.4	77141.4	-37.2819	0.0000000E+000	0.0000000E+000	0.0000000E+000	37.2819	0.0000000E+000	0.0000000E+000	0.0000000E+000	-37.2819	0.0000000E+000	0.0000000E+000	0.0000000E+000	-52.7181	0.0000000E+000	0.0000000E+000	0.0000000E+000	52.7181	0.761296	37.2819	-0.0023436
317705	3.67852	1.08647	3.83561	-16.4548	744.11	-0.000161919	-0.173518	0.461082	0.036995	3	38	0.00713098	0.00185915	0	-0.0357793	-1	-1	-1	0	0	0	0	0	0	-1	-1	-1	0	0	0	0	0	0	0.250037	0.0738495	0.260714	16.4548	36.995	125.256	130.605	-73.5452	0.0000000E+000	0.0000000E+000	0.0000000E+000	73.5452	0.0000000E+000	0.0000000E+000	0.0000000E+000	-73.5452	0.0000000E+000	0.0000000E+000	0.0000000E+000	-16.4548	0.0000000E+000	0.0000000E+000	0.0000000E+000	16.4548	3.38576	73.5452	-5.37399e-05
159201	3.58468	0.79213	3.67115	-12.4608	747.549	-0.000144565	-0.174948	1.26206	0.058758	3	38	0.00723844	0.00197171	0	-0.0359408	-1	-1	-1	0	0	0	0	0	0	-1	-1	-1	0	0	0	0	0	0	0.265977	0.0587749	0.272394	12.4608	58.758	265.901	272.316	-77.5392	0.0000000E+000	0.0000000E+000	0.0000000E+000	77.5392	0.0000000E+000	0.0000000E+000	0.0000000E+000	-77.5392	0.0000000E+000	0.0000000E+000	0.0000000E+000	-12.4608	0.0000000E+000	0.0000000E+000	0.0000000E+000	12.4608	4.52536	77.5392	-5.13481e-05
79767.3	3.60256	0.939747	3.72311	-14.6201	750.99	-0.000137817	-0.174823	2.12317	0.135268	3	38	0.00728862	0.00195767	0	-0.0361005	0.813751	0.768814	13.7458	9.03945e-06	2.35399e-05	2.67295e-05	3.10666e-05	1.66473e-05	2.26651e-05	0.0724872	0.146278	1.41669	3.412e-07	6.62104e-07	9.23229e-07	3.0312e-07	3.36832e-07	5.39985e-07	0.259896	0.0677953	0.268593	14.6201	135.268	518.555	535.907	-75.3799	0.0000000E+000	0.0000000E+000	0.0000000E+000	75.3799	0.0000000E+000	0.0000000E+000	0.0000000E+000	-75.3799	0.0000000E+000	0.0000000E+000	0.0000000E+000	-14.6201	0.0000000E+000	0.0000000E+000	0.0000000E+000	14.6201	3.83354	75.3799	-5.58189e-05
39971.8	3.7052	1.46677	3.98497	-21.5971	754.43	-0.000143241	-0.17427	2.71458	0.367774	3	38	0.00725186	0.00181981	0	-0.0362645	0.743835	0.61133	13.4322	2.11165e-05	1.5378e-05	1.4483e-05	1.08717e-05	1.94035e-05	3.18322e-05	0.0917869	0.178169	1.54094	6.26845e-07	8.75838e-07	5.49147e-07	7.09661e-07	6.74738e-07	4.13533e-07	0.233326	0.0923664	0.250943	21.5971	367.774	929.029	999.176	-68.4029	0.0000000E+000	0.0000000E+000	0.0000000E+000	68.4029	0.0000000E+000	0.0000000E+000	0.0000000E+000	-68.4029	0.0000000E+000	0.0000000E+000	0.0000000E+000	-21.5971	0.0000000E+000	0.0000000E+000	0.0000000E+000	21.5971	2.52609	68.4029	-5.35997e-05
20032.3	3.91121	2.58614	4.68889	-33.4732	757.871	-0.000135505	-0.172926	3.07211	0.934548	3	38	0.00732188	0.00156154	0	-0.0364296	0.598766	0.744277	13.397	2.23484e-05	1.08923e-05	1.4032e-05	1.08756e-05	2.1696e-05	1.6585e-05	0.11501	0.300638	1.81818	7.6403e-07	8.36484e-07	4.22253e-07	8.65402e-07	6.56998e-07	5.64024e-07	0.177898	0.117628	0.21327	33.4732	934.548	1413.38	1694.41	-56.5268	0.0000000E+000	0.0000000E+000	0.0000000E+000	56.5268	0.0000000E+000	0.0000000E+000	0.0000000E+000	-56.5268	0.0000000E+000	0.0000000E+000	0.0000000E+000	-33.4732	0.0000000E+000	0.0000000E+000	0.0000000E+000	33.4732	1.51237	56.5268	-5.54686e-05
10039.3	4.30315	4.77087	6.42482	-47.9507	761.311	-0.000134536	-0.17338	3.3229	1.83228	3	38	0.00726591	0.00113091	0	-0.036597	0.872108	0.617052	13.5843	2.44018e-05	2.09981e-05	3.00992e-05	1.50129e-05	2.02511e-05	3.34063e-05	0.151193	0.488399	2.45776	8.62547e-07	7.75771e-07	2.26216e-07	7.15184e-07	4.90002e-07	6.05649e-07	0.104247	0.115578	0.155646	47.9507	1832.28	1652.64	2467.48	-42.0493	0.0000000E+000	0.0000000E+000	0.0000000E+000	42.0493	0.0000000E+000	0.0000000E+000	0.0000000E+000	-42.0493	0.0000000E+000	0.0000000E+000	0.0000000E+000	-47.9507	0.0000000E+000	0.0000000E+000	0.0000000E+000	47.9507	0.901962	42.0493	-5.3113e-05
5028.39	5.17111	8.76692	10.1784	-59.466	764.658	-0.000263959	-0.173574	3.61031	2.67844	3	38	0.00736587	0.000723679	0	-0.0367531	0.880171	0.35631	13.5545	2.29134e-05	1.51075e-05	2.63429e-05	2.73797e-05	3.17684e-05	2.60829e-05	0.276774	0.235753	3.88319	1.20094e-06	1.05394e-06	5.41709e-07	6.51753e-07	4.60331e-07	6.10099e-07	0.0499146	0.0846234	0.0982476	59.466	2678.44	1579.86	3109.66	-30.534	0.0000000E+000	0.0000000E+000	0.0000000E+000	30.534	0.0000000E+000	0.0000000E+000	0.0000000E+000	-30.534	0.0000000E+000	0.0000000E+000	0.0000000E+000	-59.466	0.0000000E+000	0.0000000E+000	0.0000000E+000	59.466	0.589844	30.534	-5.25045e-05
2519.19	6.95104	15.9504	17.3992	-66.4528	767.977	-0.000255272	-0.175674	3.96085	3.32869	3	38	0.00655323	0.00037664	0	-0.0369127	0.903471	0.535195	14.9962	2.74867e-05	3.6901e-05	1.32418e-05	1.69652e-05	1.88786e-05	1.71523e-05	0.590204	0.216829	7.45563	7.88623e-07	1.24402e-06	7.8874e-07	1.01304e-06	5.90865e-07	5.1819e-07	0.0229611	0.0526882	0.057474	66.4528	3328.69	1450.61	3631.04	-23.5472	0.0000000E+000	0.0000000E+000	0.0000000E+000	23.5472	0.0000000E+000	0.0000000E+000	0.0000000E+000	-23.5472	0.0000000E+000	0.0000000E+000	0.0000000E+000	-66.4528	0.0000000E+000	0.0000000E+000	0.0000000E+000	66.4528	0.435792	23.5472	-5.38111e-05
1262.98	10.8619	28.7381	30.7224	-69.2953	771.516	-0.000258236	-0.176178	4.38496	3.83685	3	38	0.0070571	0.000229706	0	-0.0370847	0.806215	0.253769	14.022	2.99528e-05	2.20029e-05	1.69214e-05	2.65804e-05	1.45104e-05	1.80686e-05	0.798635	0.400859	12.083	1.05063e-06	5.72151e-07	5.81708e-07	8.44125e-07	4.19946e-07	6.50355e-07	0.011508	0.0304474	0.0325496	69.2953	3836.85	1450.18	4101.76	-20.7047	0.0000000E+000	0.0000000E+000	0.0000000E+000	20.7047	0.0000000E+000	0.0000000E+000	0.0000000E+000	-20.7047	0.0000000E+000	0.0000000E+000	0.0000000E+000	-69.2953	0.0000000E+000	0.0000000E+000	0.0000000E+000	69.2953	0.377963	20.7047	-6.46017e-05
632.773	18.662	50.5151	53.852	-69.724	775.09	-0.000236911	-0.171695	4.97911	4.38116	3	39	0.00722172	0.000134103	0	-0.0372541	0.852382	0.498295	14.0799	2.72606e-05	1.64881e-05	1.41325e-05	3.08156e-05	2.97679e-05	1.60867e-05	0.782839	0.21817	9.37426	4.86421e-07	6.44559e-07	2.45023e-07	4.46018e-07	2.19765e-07	2.08933e-07	0.00643508	0.0174187	0.0185694	69.724	4381.16	1618.55	4670.57	-20.276	0.0000000E+000	0.0000000E+000	0.0000000E+000	20.276	0.0000000E+000	0.0000000E+000	0.0000000E+000	-20.276	0.0000000E+000	0.0000000E+000	0.0000000E+000	-69.724	0.0000000E+000	0.0000000E+000	0.0000000E+000	69.724	0.369435	20.276	-5.25238e-05
316.927	33.5763	86.6853	92.9608	-68.8269	778.411	-0.000229138	-0.170057	5.79316	5.03741	3	39	0.00699339	7.52294e-05	0	-0.0374108	0.832506	0.438044	14.5674	1.82592e-05	1.68754e-05	2.61622e-05	2.73849e-05	2.05895e-05	1.70493e-05	0.957025	0.530707	16.8877	3.28271e-07	2.49714e-07	2.73882e-07	3.57133e-07	1.94617e-07	2.09876e-07	0.00388537	0.010031	0.0107572	68.8269	5037.41	1951.16	5402.08	-21.1731	0.0000000E+000	0.0000000E+000	0.0000000E+000	21.1731	0.0000000E+000	0.0000000E+000	0.0000000E+000	-21.1731	0.0000000E+000	0.0000000E+000	0.0000000E+000	-68.8269	0.0000000E+000	0.0000000E+000	0.0000000E+000	68.8269	0.387335	21.1731	-5.18154e-05
158.831	61.2243	145.265	157.64	-67.1462	781.729	-0.00022403	-0.174179	6.89804	5.85754	3	39	0.00692024	4.38991e-05	0	-0.0375693	0.804388	0.366362	14.5681	1.33229e-05	1.91271e-05	3.43558e-05	2.80196e-05	1.25991e-05	1.76544e-05	1.48362	0.950227	29.1556	3.03416e-07	2.59916e-07	2.60908e-07	2.19357e-07	1.82102e-07	2.3522e-07	0.00246373	0.00584561	0.00634359	67.1462	5857.54	2468.76	6356.54	-22.8538	0.0000000E+000	0.0000000E+000	0.0000000E+000	22.8538	0.0000000E+000	0.0000000E+000	0.0000000E+000	-22.8538	0.0000000E+000	0.0000000E+000	0.0000000E+000	-67.1462	0.0000000E+000	0.0000000E+000	0.0000000E+000	67.1462	0.421467	22.8538	-5.30908e-05
79.6177	112.37	240.697	265.635	-64.9744	785.269	-0.000278834	-0.170773	8.30501	6.81884	3	40	0.00700092	2.63554e-05	0	-0.0377355	1.2578	0.787048	27.5773	2.56834e-05	3.36268e-05	4.07896e-05	2.5561e-05	4.41452e-05	3.54127e-05	0.662896	0.245887	9.84985	1.10778e-07	5.35417e-08	5.20474e-08	7.51911e-08	5.7238e-08	4.74408e-08	0.0015925	0.00341114	0.00376456	64.9744	6818.84	3183.39	7525.33	-25.0256	0.0000000E+000	0.0000000E+000	0.0000000E+000	25.0256	0.0000000E+000	0.0000000E+000	0.0000000E+000	-25.0256	0.0000000E+000	0.0000000E+000	0.0000000E+000	-64.9744	0.0000000E+000	0.0000000E+000	0.0000000E+000	64.9744	0.466852	25.0256	-5.03751e-05
39.8851	206.614	385.382	437.274	-61.803	788.484	-0.000236463	-0.170659	10.3542	8.04254	3	40	0.00692304	1.58323e-05	0	-0.0378875	1.50707	0.752755	28.0495	3.30899e-05	3.41883e-05	5.55044e-05	2.94506e-05	3.29328e-05	4.13431e-05	1.02741	0.449075	16.3579	8.36857e-08	6.6655e-08	7.28448e-08	5.72589e-08	4.51727e-08	4.60387e-08	0.00108057	0.0020155	0.00228689	61.803	8042.54	4311.83	9125.47	-28.197	0.0000000E+000	0.0000000E+000	0.0000000E+000	28.197	0.0000000E+000	0.0000000E+000	0.0000000E+000	-28.197	0.0000000E+000	0.0000000E+000	0.0000000E+000	-61.803	0.0000000E+000	0.0000000E+000	0.0000000E+000	61.803	0.536128	28.197	-5.02062e-05
19.9808	362.86	592.36	694.664	-58.5097	791.659	-0.000235681	-0.171827	13.4469	9.77785	3	40	0.00692227	9.96493e-06	0	-0.0380378	1.28891	0.961198	28.6214	4.57084e-05	3.039e-05	3.05097e-05	2.52369e-05	4.36572e-05	2.66652e-05	1.59142	1.0075	26.4426	1.1016e-07	3.33199e-08	4.58003e-08	5.76916e-08	5.13884e-08	4.64079e-08	0.000751952	0.00122754	0.00143955	58.5097	9777.84	5989.59	11466.5	-31.4903	0.0000000E+000	0.0000000E+000	0.0000000E+000	31.4903	0.0000000E+000	0.0000000E+000	0.0000000E+000	-31.4903	0.0000000E+000	0.0000000E+000	0.0000000E+000	-58.5097	0.0000000E+000	0.0000000E+000	0.0000000E+000	58.5097	0.612567	31.4903	-5.05019e-05
10.016	607.972	872.007	1063.03	-55.1154	794.927	-0.000175807	-0.172101	18.2223	12.2618	3	40	0.0068961	6.48723e-06	0	-0.0381932	1.5744	0.63527	27.1209	2.8533e-05	4.80482e-05	4.04498e-05	2.39515e-05	6.31091e-05	4.03452e-05	2.56215	1.5062	39.7445	8.22182e-08	8.30656e-08	3.72684e-08	4.24341e-08	8.3341e-08	5.09495e-08	0.000538016	0.00077167	0.000940711	55.1154	12261.8	8549.08	14947.9	-34.8846	0.0000000E+000	0.0000000E+000	0.0000000E+000	34.8846	0.0000000E+000	0.0000000E+000	0.0000000E+000	-34.8846	0.0000000E+000	0.0000000E+000	0.0000000E+000	-55.1154	0.0000000E+000	0.0000000E+000	0.0000000E+000	55.1154	0.69721	34.8846	-5.04865e-05
5.01766	959.152	1261.74	1584.92	-52.7586	799.134	-0.000229622	-0.174114	25.139	15.9322	3	40	0.0069001	4.3536e-06	0	-0.0383927	0.676964	0.448359	15.2433	1.22612e-05	1.46885e-05	1.30378e-05	2.71293e-05	1.83384e-05	2.04919e-05	2.25103	3.90741	32.2159	5.77182e-08	5.11155e-08	8.8427e-09	4.24789e-08	2.63713e-08	1.77618e-08	0.000381834	0.000502293	0.000630948	52.7586	15932.2	12111.4	20013	-37.2414	0.0000000E+000	0.0000000E+000	0.0000000E+000	37.2414	0.0000000E+000	0.0000000E+000	0.0000000E+000	-37.2414	0.0000000E+000	0.0000000E+000	0.0000000E+000	-52.7586	0.0000000E+000	0.0000000E+000	0.0000000E+000	52.7586	0.760181	37.2414	-7.73652e-05
2.51368	1585.98	1919.37	2489.85	-50.433	806.16	-0.000224855	-0.171084	32.9876	19.6031	3	40	0.00690339	2.77262e-06	0	-0.0387279	0.511735	0.239784	10.5422	1.39378e-05	1.37315e-05	1.0618e-05	1.04915e-05	1.32755e-05	1.69408e-05	6.07574	19.9397	36.7145	1.22288e-07	7.2002e-08	5.45164e-08	3.1381e-08	2.64027e-08	2.7268e-08	0.000255831	0.00030961	0.000401631	50.433	19603.1	16198.1	25429.5	-39.567	0.0000000E+000	0.0000000E+000	0.0000000E+000	39.567	0.0000000E+000	0.0000000E+000	0.0000000E+000	-39.567	0.0000000E+000	0.0000000E+000	0.0000000E+000	-50.433	0.0000000E+000	0.0000000E+000	0.0000000E+000	50.433	0.826302	39.567	-0.000133347
1.25968	1965.43	2390.93	3095.07	-50.5786	818.996	-0.000227355	-0.171232	52.8437	31.5345	3	40	0.00688847	2.22562e-06	0	-0.0393434	0.452931	0.297307	7.5663	1.03704e-05	1.45575e-05	1.08015e-05	1.32002e-05	1.15138e-05	7.4359e-06	7.04693	27.9553	32.8965	9.72557e-08	1.09203e-07	3.6397e-08	3.88344e-08	2.70351e-08	2.34266e-08	0.000205171	0.000249589	0.000323094	50.5786	31534.5	25922.5	40821.6	-39.4214	0.0000000E+000	0.0000000E+000	0.0000000E+000	39.4214	0.0000000E+000	0.0000000E+000	0.0000000E+000	-39.4214	0.0000000E+000	0.0000000E+000	0.0000000E+000	-50.5786	0.0000000E+000	0.0000000E+000	0.0000000E+000	50.5786	0.822035	39.4214	-0.000249004
0.631645	3207.04	3647.52	4856.91	-48.6768	843.451	-0.000219694	-0.172286	69.0795	38.9606	3	40	0.0068907	1.41874e-06	0	-0.0405142	0.24204	0.112346	5.35016	6.10966e-06	7.06808e-06	4.81764e-06	7.43993e-06	5.65857e-06	6.35461e-06	15.0245	78.6807	39.8606	1.35654e-07	7.31011e-08	3.56993e-08	2.21038e-08	7.8043e-08	2.3848e-08	0.000135952	0.000154625	0.000205892	48.6768	38960.6	34255.7	51878.5	-41.3232	0.0000000E+000	0.0000000E+000	0.0000000E+000	41.3232	0.0000000E+000	0.0000000E+000	0.0000000E+000	-41.3232	0.0000000E+000	0.0000000E+000	0.0000000E+000	-48.6768	0.0000000E+000	0.0000000E+000	0.0000000E+000	48.6768	0.879238	41.3232	-0.000478421
0.316193	3176.97	4510.41	5516.97	-54.8406	891.218	-0.000207088	-0.172404	111.597	74.5904	3	40	0.00689428	1.24965e-06	0	-0.0428002	0.200858	0.151552	3.72083	6.03396e-06	9.14977e-06	2.65674e-06	3.49069e-06	3.74406e-06	5.25766e-06	27.9143	104.678	39.0954	2.06446e-07	1.23722e-07	1.13336e-07	4.45703e-08	7.06693e-08	2.73458e-08	0.000104379	0.000148189	0.000181259	54.8406	74590.4	52538.7	91236.3	-35.1594	0.0000000E+000	0.0000000E+000	0.0000000E+000	35.1594	0.0000000E+000	0.0000000E+000	0.0000000E+000	-35.1594	0.0000000E+000	0.0000000E+000	0.0000000E+000	-54.8406	0.0000000E+000	0.0000000E+000	0.0000000E+000	54.8406	0.704363	35.1595	-0.000938397
0.158419	6879.39	6857.59	9713.53	-44.9091	985.6	-0.000192669	-0.172978	146.502	73.0182	3	40	0.00689201	7.09528e-07	0	-0.0473267	0.21535	0.0588719	2.6501	3.95545e-06	8.41484e-06	2.43556e-06	8.62375e-06	3.39947e-06	4.4477e-06	118.889	182.811	88.416	5.61191e-07	2.38033e-07	1.56855e-07	1.31681e-07	6.37928e-08	7.77601e-08	7.29116e-05	7.26805e-05	0.000102949	44.9091	73018.2	73250.4	103428	-45.0909	0.0000000E+000	0.0000000E+000	0.0000000E+000	45.0909	0.0000000E+000	0.0000000E+000	0.0000000E+000	-45.0909	0.0000000E+000	0.0000000E+000	0.0000000E+000	-44.9091	0.0000000E+000	0.0000000E+000	0.0000000E+000	44.9091	1.00318	45.0909	-0.00186335
0.0999518	4514.62	2600.27	5209.92	-29.9405	1095.8	-0.000234197	-0.172686	612.366	152.541	3	40	0.00689483	1.3234e-06	0	-0.0526075	0.171847	0.10479	2.22461	3.84432e-06	6.2058e-06	4.4454e-06	5.3008e-06	3.13214e-06	3.33328e-06	68.5721	43.3809	53.4322	3.57721e-07	6.02582e-07	3.22461e-07	3.25889e-07	1.34391e-07	6.64242e-08	0.000166326	9.5798e-05	0.000191942	29.9405	152541	264844	305632	-60.0595	0.0000000E+000	0.0000000E+000	0.0000000E+000	60.0595	0.0000000E+000	0.0000000E+000	0.0000000E+000	-60.0595	0.0000000E+000	0.0000000E+000	0.0000000E+000	-29.9405	0.0000000E+000	0.0000000E+000	0.0000000E+000	29.9405	1.73621	60.0595	-0.00294162