File: Python/Data/RDE/240223-OCV-EIS-Fe2Fe3_5mM-HCl1M-1225RPM-Ag_AgCl_BLF8-GC-RDE-1minRestVSEoc-3ppf-14p1mVAmplitude_02_PEIS_C15.mpt
EC-Lab ASCII FILE
Nb header lines : 67

Potentio Electrochemical Impedance Spectroscopy

Run on channel : 15 (SN 19485)
User :
Electrode connection : standard
Potential control : Ewe
Ewe ctrl range : min = -1.00 V, max = 1.00 V
Ewe,I filtering : 50 kHz
Safety Limits :
	Do not start on E overload
Channel : Floating
Acquisition started on : 02/23/2024 14:49:54.683
Loaded Setting File :  NONE
Saved on :
	File : 240223-OCV-EIS-Fe2Fe3_5mM-HCl1M-1225RPM-Ag_AgCl_BLF8-GC-RDE-1minRestVSEoc-3ppf-14p1mVAmplitude_02_PEIS_C15.mpr
	Directory : C:\Data\mathias\RDE-RPM-variation\
	Host : 192.168.0.1
Device : VMP-300 (SN 0826)
Address : USB
EC-Lab for windows v11.52 (software)
Internet server v11.52 (firmware)
Command interpretor v11.52 (firmware)
Electrode material :
Initial state :
Electrolyte :
Comments :
Cable : special
Reference electrode : SCE Saturated Calomel Electrode (0.241 V)
Electrode surface area : 0.001 cm²
Characteristic mass : 0.001 g
Equivalent Weight : 0.000 g/eq.
Density : 0.000 g/cm3
Volume (V) : 0.001 cm³
Record EIS quality indicators
Cycle Definition : Charge/Discharge alternance
Mode                Single sine
E (V)               0.0000
vs.                 Eoc
tE (h:m:s)          0:01:0.0000
record              0
dI                  0.000
unit dI             mA
dt (s)              0.000
fi                  1.000
unit fi             MHz
ff                  100.000
unit ff             mHz
Nd                  10
Points              per decade
spacing             Logarithmic
Va (mV)             14.1
pw                  0.10
Na                  3
corr                0
E range min (V)     -1.000
E range max (V)     1.000
I Range             Auto
Bandwidth           8
nc cycles           0
goto Ns'            0
nr cycles           0
inc. cycle          1

freq/Hz	Re(Z)/Ohm	-Im(Z)/Ohm	|Z|/Ohm	Phase(Z)/deg	time/s	<Ewe>/V	<I>/mA	Cs/µF	Cp/µF	cycle number	I Range	|Ewe|/V	|I|/A	Ns	(Q-Qo)/mA.h	THD Ewe/%	NSD Ewe/%	NSR Ewe/%	|Ewe h2|/V	|Ewe h3|/V	|Ewe h4|/V	|Ewe h5|/V	|Ewe h6|/V	|Ewe h7|/V	THD I/%	NSD I/%	NSR I/%	|I h2|/A	|I h3|/A	|I h4|/A	|I h5|/A	|I h6|/A	|I h7|/A	Re(Y)/Ohm-1	Im(Y)/Ohm-1	|Y|/Ohm-1	Phase(Y)/deg	Re(C)/nF	Im(C)/nF	|C|/nF	Phase(C)/deg	Re(M)	Im(M)	|M|	Phase(M)/deg	Re(Permittivity)	Im(Permittivity)	|Permittivity|	Phase(Permittivity)/deg	Re(Resistivity)/Ohm.cm	Im(Resistivity)/Ohm.cm	|Resistivity|/Ohm.cm	Phase(Resistivity)/deg	Re(Conductivity)/mS/cm	Im(Conductivity)/mS/cm	|Conductivity|/mS/cm	Phase(Conductivity)/deg	Tan(Delta)	Loss Angle(Delta)/deg	dq/mA.h
1.00002e+06	3.53991	4.07945	5.40119	-49.0505	119.764	0.459611	-0.0113842	0.0390131	0.0222554	1	38	0.011146	0.00206362	0	-3.46054e-06	-1	-1	-1	0	0	0	0	0	0	-1	-1	-1	0	0	0	0	0	0	0.121342	0.139837	0.185144	49.0505	22.2554	19.3119	29.4661	-40.9495	0.0000000E+000	0.0000000E+000	0.0000000E+000	40.9495	0.0000000E+000	0.0000000E+000	0.0000000E+000	-40.9495	0.0000000E+000	0.0000000E+000	0.0000000E+000	-49.0505	0.0000000E+000	0.0000000E+000	0.0000000E+000	49.0505	0.86774	40.9495	-3.46054e-06
794333	3.5933	3.19572	4.80879	-41.6485	120.775	0.4596	-0.00166108	0.0626972	0.0276895	1	38	0.0139374	0.00289832	0	-6.70459e-06	-1	-1	-1	0	0	0	0	0	0	-1	-1	-1	0	0	0	0	0	0	0.15539	0.138197	0.207953	41.6485	27.6895	31.1343	41.666	-48.3515	0.0000000E+000	0.0000000E+000	0.0000000E+000	48.3515	0.0000000E+000	0.0000000E+000	0.0000000E+000	-48.3515	0.0000000E+000	0.0000000E+000	0.0000000E+000	-41.6485	0.0000000E+000	0.0000000E+000	0.0000000E+000	41.6485	1.12441	48.3515	-3.24406e-06
630957	3.57275	2.52104	4.37267	-35.208	121.923	0.459601	-0.00251196	0.100055	0.0332589	1	38	0.0144678	0.00330868	0	-1.15318e-05	-1	-1	-1	0	0	0	0	0	0	-1	-1	-1	0	0	0	0	0	0	0.186857	0.131852	0.228693	35.208	33.2589	47.1336	57.6865	-54.792	0.0000000E+000	0.0000000E+000	0.0000000E+000	54.792	0.0000000E+000	0.0000000E+000	0.0000000E+000	-54.792	0.0000000E+000	0.0000000E+000	0.0000000E+000	-35.208	0.0000000E+000	0.0000000E+000	0.0000000E+000	35.208	1.41717	54.792	-4.82717e-06
501206	3.53045	2.00927	4.06217	-29.6453	123.071	0.459638	-0.00196454	0.15804	0.0386657	1	38	0.0145571	0.00358359	0	-1.14749e-05	-1	-1	-1	0	0	0	0	0	0	-1	-1	-1	0	0	0	0	0	0	0.213951	0.121765	0.246174	29.6453	38.6657	67.9388	78.171	-60.3547	0.0000000E+000	0.0000000E+000	0.0000000E+000	60.3547	0.0000000E+000	0.0000000E+000	0.0000000E+000	-60.3547	0.0000000E+000	0.0000000E+000	0.0000000E+000	-29.6453	0.0000000E+000	0.0000000E+000	0.0000000E+000	29.6453	1.75708	60.3547	5.69002e-08
398103	3.49443	1.62109	3.85214	-24.8869	124.218	0.459627	-0.00304818	0.246614	0.0436745	1	38	0.0145638	0.00378071	0	-8.50137e-06	-1	-1	-1	0	0	0	0	0	0	-1	-1	-1	0	0	0	0	0	0	0.23549	0.109246	0.259596	24.8869	43.6745	94.1449	103.782	-65.1131	0.0000000E+000	0.0000000E+000	0.0000000E+000	65.1131	0.0000000E+000	0.0000000E+000	0.0000000E+000	-65.1131	0.0000000E+000	0.0000000E+000	0.0000000E+000	-24.8869	0.0000000E+000	0.0000000E+000	0.0000000E+000	24.8869	2.1556	65.1131	2.97349e-06
316230	3.45056	1.34888	3.70484	-21.3514	125.365	0.459603	-0.00244305	0.373115	0.0494598	1	38	0.0145558	0.00392886	0	-1.71482e-05	-1	-1	-1	0	0	0	0	0	0	-1	-1	-1	0	0	0	0	0	0	0.251391	0.0982732	0.269917	21.3514	49.4598	126.522	135.846	-68.6486	0.0000000E+000	0.0000000E+000	0.0000000E+000	68.6486	0.0000000E+000	0.0000000E+000	0.0000000E+000	-68.6486	0.0000000E+000	0.0000000E+000	0.0000000E+000	-21.3514	0.0000000E+000	0.0000000E+000	0.0000000E+000	21.3514	2.55809	68.6486	-8.64679e-06
251188	3.42983	1.16691	3.6229	-18.7896	126.512	0.459605	-0.00228105	0.542979	0.0563311	1	38	0.01458	0.00402441	0	-2.61198e-05	-1	-1	-1	0	0	0	0	0	0	-1	-1	-1	0	0	0	0	0	0	0.261312	0.088905	0.276022	18.7896	56.3311	165.57	174.89	-71.2104	0.0000000E+000	0.0000000E+000	0.0000000E+000	71.2104	0.0000000E+000	0.0000000E+000	0.0000000E+000	-71.2104	0.0000000E+000	0.0000000E+000	0.0000000E+000	-18.7896	0.0000000E+000	0.0000000E+000	0.0000000E+000	18.7896	2.93923	71.2104	-8.97161e-06
199544	3.41887	1.05067	3.57667	-17.0829	127.66	0.459593	-0.00190123	0.759134	0.0655074	1	38	0.0145996	0.00408189	0	-2.82719e-05	-1	-1	-1	0	0	0	0	0	0	-1	-1	-1	0	0	0	0	0	0	0.267255	0.0821311	0.27959	17.0829	65.5074	213.161	223	-72.9171	0.0000000E+000	0.0000000E+000	0.0000000E+000	72.9171	0.0000000E+000	0.0000000E+000	0.0000000E+000	-72.9171	0.0000000E+000	0.0000000E+000	0.0000000E+000	-17.0829	0.0000000E+000	0.0000000E+000	0.0000000E+000	17.0829	3.254	72.9171	-2.15214e-06
158486	3.40948	1.00075	3.55331	-16.358	128.806	0.459627	-0.00187516	1.00347	0.0795951	1	38	0.0145869	0.00410516	0	-2.41319e-05	-1	-1	-1	0	0	0	0	0	0	-1	-1	-1	0	0	0	0	0	0	0.270036	0.0792606	0.281428	16.358	79.5951	271.175	282.615	-73.642	0.0000000E+000	0.0000000E+000	0.0000000E+000	73.642	0.0000000E+000	0.0000000E+000	0.0000000E+000	-73.642	0.0000000E+000	0.0000000E+000	0.0000000E+000	-16.358	0.0000000E+000	0.0000000E+000	0.0000000E+000	16.358	3.40693	73.642	4.13997e-06
125909	3.41404	0.991231	3.55503	-16.1901	129.954	0.459599	-0.001702	1.27523	0.0991407	1	38	0.0145448	0.00409133	0	-2.70265e-05	-1	-1	-1	0	0	0	0	0	0	-1	-1	-1	0	0	0	0	0	0	0.270136	0.0784313	0.281292	16.1901	99.1407	341.464	355.565	-73.8099	0.0000000E+000	0.0000000E+000	0.0000000E+000	73.8099	0.0000000E+000	0.0000000E+000	0.0000000E+000	-73.8099	0.0000000E+000	0.0000000E+000	0.0000000E+000	-16.1901	0.0000000E+000	0.0000000E+000	0.0000000E+000	16.1901	3.44424	73.8099	-2.89455e-06
100004	3.42617	1.04459	3.58188	-16.9557	131.102	0.459608	-0.00186771	1.52356	0.129577	1	38	0.0145632	0.00406581	0	-1.87659e-05	0.519906	0.360683	8.96818	2.98627e-05	3.16071e-05	1.94478e-05	2.30024e-05	2.52122e-05	4.23243e-05	0.067056	0.0233487	0.701671	2.32082e-06	8.28131e-07	7.47809e-07	4.63003e-07	4.77269e-07	4.59742e-07	0.267047	0.0814187	0.279183	16.9557	129.577	425.004	444.318	-73.0443	0.0000000E+000	0.0000000E+000	0.0000000E+000	73.0443	0.0000000E+000	0.0000000E+000	0.0000000E+000	-73.0443	0.0000000E+000	0.0000000E+000	0.0000000E+000	-16.9557	0.0000000E+000	0.0000000E+000	0.0000000E+000	16.9557	3.27993	73.0443	8.26058e-06
79433.3	3.45182	1.14146	3.63566	-18.2983	132.249	0.459621	-0.00162008	1.75532	0.173027	1	38	0.014578	0.00400972	0	-1.96171e-05	0.48451	0.216829	8.93801	3.20474e-05	2.62972e-05	3.90212e-05	2.43657e-05	1.68059e-05	2.60254e-05	0.0684516	0.0227239	0.71818	1.70739e-06	1.42912e-06	8.47849e-07	6.21322e-07	4.13442e-07	6.10205e-07	0.261145	0.0863568	0.275054	18.2983	173.027	523.239	551.106	-71.7017	0.0000000E+000	0.0000000E+000	0.0000000E+000	71.7017	0.0000000E+000	0.0000000E+000	0.0000000E+000	-71.7017	0.0000000E+000	0.0000000E+000	0.0000000E+000	-18.2983	0.0000000E+000	0.0000000E+000	0.0000000E+000	18.2983	3.02403	71.7017	-8.51173e-07
63093.8	3.48003	1.2855	3.70987	-20.2738	133.397	0.459607	-0.00215633	1.96229	0.235606	1	38	0.0145481	0.00392145	0	-1.26134e-05	0.441727	0.247652	8.85952	2.59803e-05	3.12698e-05	1.62221e-05	2.52473e-05	2.93359e-05	1.71216e-05	0.0499196	0.0386212	0.731757	1.00447e-06	1.05029e-06	5.40668e-07	6.12176e-07	5.18659e-07	3.87764e-07	0.252852	0.0934014	0.269551	20.2738	235.606	637.822	679.946	-69.7262	0.0000000E+000	0.0000000E+000	0.0000000E+000	69.7262	0.0000000E+000	0.0000000E+000	0.0000000E+000	-69.7262	0.0000000E+000	0.0000000E+000	0.0000000E+000	-20.2738	0.0000000E+000	0.0000000E+000	0.0000000E+000	20.2738	2.70715	69.7262	7.00368e-06
50122.5	3.52122	1.49408	3.82508	-22.9919	134.543	0.459585	-0.00214514	2.12527	0.32425	1	38	0.0146475	0.00382932	0	-1.68518e-05	0.3607	0.34908	8.92314	1.5437e-05	2.32453e-05	2.1568e-05	1.21974e-05	2.40804e-05	1.71776e-05	0.0465366	0.0352641	0.735964	5.43448e-07	1.1827e-06	3.75797e-07	5.70923e-07	8.26503e-07	4.41684e-07	0.240664	0.102116	0.261432	22.9919	324.25	764.185	830.131	-67.0081	0.0000000E+000	0.0000000E+000	0.0000000E+000	67.0081	0.0000000E+000	0.0000000E+000	0.0000000E+000	-67.0081	0.0000000E+000	0.0000000E+000	0.0000000E+000	-22.9919	0.0000000E+000	0.0000000E+000	0.0000000E+000	22.9919	2.35678	67.0081	-4.23837e-06
39814.1	3.55801	1.75969	3.96938	-26.3157	135.69	0.459607	-0.00202971	2.27168	0.446452	1	38	0.0146234	0.00368406	0	-1.89372e-05	0.499867	0.348478	8.85888	3.63192e-05	2.05583e-05	2.89491e-05	2.49926e-05	3.00586e-05	2.94789e-05	0.0619772	0.0570816	0.789722	8.74441e-07	9.83795e-07	6.66618e-07	6.42552e-07	9.05869e-07	1.19168e-06	0.22582	0.111684	0.251929	26.3157	446.452	902.705	1007.07	-63.6843	0.0000000E+000	0.0000000E+000	0.0000000E+000	63.6843	0.0000000E+000	0.0000000E+000	0.0000000E+000	-63.6843	0.0000000E+000	0.0000000E+000	0.0000000E+000	-26.3157	0.0000000E+000	0.0000000E+000	0.0000000E+000	26.3157	2.02195	63.6843	-2.08548e-06
31621.1	3.61806	2.10796	4.18734	-30.226	136.837	0.45962	-0.00174297	2.38771	0.605101	1	38	0.0146531	0.00349939	0	-2.18099e-05	0.503438	0.356105	8.58765	3.16263e-05	3.04673e-05	3.49932e-05	1.90198e-05	2.51652e-05	2.49561e-05	0.0554618	0.0485591	0.822244	4.3207e-07	1.32271e-06	6.86671e-07	8.65512e-07	3.38365e-07	5.22416e-07	0.206347	0.120222	0.238815	30.226	605.101	1038.58	1202	-59.774	0.0000000E+000	0.0000000E+000	0.0000000E+000	59.774	0.0000000E+000	0.0000000E+000	0.0000000E+000	-59.774	0.0000000E+000	0.0000000E+000	0.0000000E+000	-30.226	0.0000000E+000	0.0000000E+000	0.0000000E+000	30.226	1.71638	59.774	-2.87266e-06
25116.9	3.69082	2.55479	4.48878	-34.6911	137.985	0.459618	-0.00228666	2.48027	0.803441	1	38	0.0147439	0.00328462	0	-2.18073e-05	0.482714	0.250818	8.85909	8.88905e-06	3.98872e-05	3.95778e-05	2.03881e-05	1.73402e-05	2.26486e-05	0.0532515	0.0426392	0.87092	4.75617e-07	5.71356e-07	8.77936e-07	7.3413e-07	6.57827e-07	5.44192e-07	0.183175	0.126794	0.222778	34.6911	803.441	1160.7	1411.65	-55.3089	0.0000000E+000	0.0000000E+000	0.0000000E+000	55.3089	0.0000000E+000	0.0000000E+000	0.0000000E+000	-55.3089	0.0000000E+000	0.0000000E+000	0.0000000E+000	-34.6911	0.0000000E+000	0.0000000E+000	0.0000000E+000	34.6911	1.44466	55.3089	2.61827e-09
19948.8	3.77715	3.11267	4.89444	-39.4912	139.133	0.45963	-0.00242448	2.56313	1.03664	1	38	0.0147359	0.00301074	0	-2.27426e-05	0.365036	0.208639	8.86935	1.93562e-05	2.85179e-05	1.11981e-05	2.11112e-05	2.24833e-05	1.54893e-05	0.0831233	0.0381406	0.96887	1.52705e-06	7.98317e-07	7.97383e-07	1.00184e-06	8.20726e-07	6.73291e-07	0.157673	0.129935	0.204313	39.4912	1036.64	1257.94	1630.05	-50.5088	0.0000000E+000	0.0000000E+000	0.0000000E+000	50.5088	0.0000000E+000	0.0000000E+000	0.0000000E+000	-50.5088	0.0000000E+000	0.0000000E+000	0.0000000E+000	-39.4912	0.0000000E+000	0.0000000E+000	0.0000000E+000	39.4912	1.21348	50.5088	-9.35264e-07
15847.7	3.90258	3.80313	5.44921	-44.2606	140.28	0.459581	-0.00165736	2.64066	1.28626	1	38	0.0148345	0.00272233	0	-2.00276e-05	0.48858	0.290502	8.8465	4.20637e-05	2.09916e-05	1.7646e-05	2.98193e-05	3.31898e-05	1.80587e-05	0.0982874	0.0346573	1.09168	1.87463e-06	1.01242e-06	7.76933e-07	7.62519e-07	6.99568e-07	7.13464e-07	0.131427	0.128078	0.183513	44.2606	1286.26	1319.89	1842.98	-45.7394	0.0000000E+000	0.0000000E+000	0.0000000E+000	45.7394	0.0000000E+000	0.0000000E+000	0.0000000E+000	-45.7394	0.0000000E+000	0.0000000E+000	0.0000000E+000	-44.2606	0.0000000E+000	0.0000000E+000	0.0000000E+000	44.2606	1.02615	45.7394	2.71493e-06
12590.9	4.03492	4.65568	6.16084	-49.0857	141.428	0.459616	-0.00116768	2.71506	1.55048	1	38	0.0147196	0.00238922	0	-1.9385e-05	0.424838	0.246243	8.82018	3.12826e-05	1.3846e-05	2.55354e-05	1.95724e-05	2.46259e-05	2.03555e-05	0.128941	0.0516966	1.20686	2.65739e-06	9.38413e-07	6.14412e-07	5.177e-07	5.78884e-07	5.88902e-07	0.106305	0.12266	0.162316	49.0857	1550.48	1343.75	2051.74	-40.9143	0.0000000E+000	0.0000000E+000	0.0000000E+000	40.9143	0.0000000E+000	0.0000000E+000	0.0000000E+000	-40.9143	0.0000000E+000	0.0000000E+000	0.0000000E+000	-49.0857	0.0000000E+000	0.0000000E+000	0.0000000E+000	49.0857	0.866666	40.9144	6.42606e-07
10002.2	4.21512	5.7177	7.10347	-53.6021	142.575	0.459635	-0.00169461	2.78293	1.80303	1	38	0.0145934	0.0020544	0	-2.4657e-05	0.577501	0.212177	8.88332	5.61825e-05	2.41153e-05	3.1258e-05	9.99698e-06	3.47922e-05	2.33637e-05	0.200171	0.0374223	1.41549	3.66634e-06	5.10403e-07	9.16557e-07	1.09819e-06	6.28988e-07	5.25205e-07	0.083535	0.113313	0.140776	53.6021	1803.03	1329.21	2240.02	-36.3979	0.0000000E+000	0.0000000E+000	0.0000000E+000	36.3979	0.0000000E+000	0.0000000E+000	0.0000000E+000	-36.3979	0.0000000E+000	0.0000000E+000	0.0000000E+000	-53.6021	0.0000000E+000	0.0000000E+000	0.0000000E+000	53.6021	0.737206	36.3979	-5.27199e-06
7944	4.45941	7.03026	8.32532	-57.6123	143.751	0.459502	-0.00217127	2.84977	2.03213	1	38	0.0146087	0.00175473	0	-2.39307e-05	0.5198	0.207236	8.7048	4.09297e-05	3.52962e-05	1.89506e-05	2.68549e-05	2.51148e-05	1.85149e-05	0.300027	0.0868855	1.65631	5.01867e-06	6.404e-07	5.33349e-07	6.53165e-07	8.21172e-07	5.48745e-07	0.0643393	0.101431	0.120116	57.6123	2032.13	1289.01	2406.47	-32.3877	0.0000000E+000	0.0000000E+000	0.0000000E+000	32.3877	0.0000000E+000	0.0000000E+000	0.0000000E+000	-32.3877	0.0000000E+000	0.0000000E+000	0.0000000E+000	-57.6123	0.0000000E+000	0.0000000E+000	0.0000000E+000	57.6123	0.634317	32.3877	7.26351e-07
6307.74	4.77917	8.63759	9.8716	-61.0443	144.803	0.459483	-0.00200185	2.92115	2.23648	1	38	0.014526	0.00147149	0	-2.52419e-05	0.572923	0.416673	8.83921	4.14978e-05	3.09702e-05	3.64416e-05	3.20998e-05	1.66468e-05	3.06694e-05	0.466744	0.0716348	1.97827	6.63218e-06	8.68173e-07	6.68568e-07	5.69673e-07	6.01561e-07	9.25778e-07	0.049043	0.0886376	0.101301	61.0443	2236.48	1237.44	2555.99	-28.9557	0.0000000E+000	0.0000000E+000	0.0000000E+000	28.9557	0.0000000E+000	0.0000000E+000	0.0000000E+000	-28.9557	0.0000000E+000	0.0000000E+000	0.0000000E+000	-61.0443	0.0000000E+000	0.0000000E+000	0.0000000E+000	61.0443	0.553298	28.9557	-1.31126e-06
5011.6	5.16271	10.6005	11.7909	-64.0327	145.922	0.459514	-0.00256975	2.99583	2.42147	1	38	0.013817	0.00117184	0	-2.50778e-05	0.525021	0.204048	9.17806	3.07177e-05	2.55391e-05	2.54788e-05	2.99334e-05	3.09281e-05	2.26768e-05	0.595773	0.079923	2.47082	6.56128e-06	1.66569e-06	4.90043e-07	1.0923e-06	4.66544e-07	9.65676e-07	0.0371353	0.0762493	0.0848115	64.0327	2421.47	1179.32	2693.38	-25.9673	0.0000000E+000	0.0000000E+000	0.0000000E+000	25.9673	0.0000000E+000	0.0000000E+000	0.0000000E+000	-25.9673	0.0000000E+000	0.0000000E+000	0.0000000E+000	-64.0327	0.0000000E+000	0.0000000E+000	0.0000000E+000	64.0327	0.487025	25.9673	1.64106e-07
3981.28	5.6772	13.0012	14.1867	-66.4106	147.027	0.459496	-0.00238915	3.07479	2.58238	1	38	0.0131485	0.000926821	0	-2.60753e-05	0.48313	0.365906	9.7596	2.43876e-05	2.06147e-05	2.73944e-05	2.40759e-05	2.51849e-05	2.59192e-05	0.697137	0.147471	3.07848	6.15504e-06	1.60694e-06	5.65379e-07	3.89842e-07	5.98185e-07	2.6612e-07	0.0282081	0.0645985	0.0704888	66.4106	2582.38	1127.64	2817.85	-23.5894	0.0000000E+000	0.0000000E+000	0.0000000E+000	23.5894	0.0000000E+000	0.0000000E+000	0.0000000E+000	-23.5894	0.0000000E+000	0.0000000E+000	0.0000000E+000	-66.4106	0.0000000E+000	0.0000000E+000	0.0000000E+000	66.4106	0.436668	23.5894	-9.97502e-07
3163.04	6.37973	15.9141	17.1453	-68.1549	148.353	0.459513	-0.00220668	3.16179	2.72402	1	38	0.0138316	0.00080673	0	-2.69588e-05	0.538306	0.397455	9.50382	2.83613e-05	3.50463e-05	3.1595e-05	1.53428e-05	3.76163e-05	1.68863e-05	0.851703	0.167857	3.55357	6.11684e-06	2.75798e-06	5.94605e-07	7.65013e-07	4.98815e-07	7.05686e-07	0.0217027	0.054137	0.0583251	68.1549	2724.02	1092.02	2934.75	-21.8451	0.0000000E+000	0.0000000E+000	0.0000000E+000	21.8451	0.0000000E+000	0.0000000E+000	0.0000000E+000	-21.8451	0.0000000E+000	0.0000000E+000	0.0000000E+000	-68.1549	0.0000000E+000	0.0000000E+000	0.0000000E+000	68.1549	0.400885	21.8451	-8.83526e-07
2512.41	7.16396	19.4934	20.7682	-69.8213	149.458	0.459473	-0.00265355	3.24968	2.863	1	38	0.0134603	0.000648121	0	-2.84113e-05	0.563165	0.299781	9.71691	2.70128e-05	3.39271e-05	2.48165e-05	1.86621e-05	2.13599e-05	4.29092e-05	0.862634	0.137074	4.54171	4.45619e-06	2.87519e-06	4.75037e-07	1.36944e-06	4.79873e-07	4.29047e-07	0.0166095	0.0451952	0.0481506	69.8213	2863	1052.17	3050.22	-20.1787	0.0000000E+000	0.0000000E+000	0.0000000E+000	20.1787	0.0000000E+000	0.0000000E+000	0.0000000E+000	-20.1787	0.0000000E+000	0.0000000E+000	0.0000000E+000	-69.8213	0.0000000E+000	0.0000000E+000	0.0000000E+000	69.8213	0.367507	20.1787	-1.45244e-06
1995.64	8.28469	23.809	25.2092	-70.8139	150.564	0.45952	-0.00332385	3.34963	2.98787	1	38	0.0132318	0.00052488	0	-2.96825e-05	0.547059	0.226523	9.7816	2.61428e-05	1.87405e-05	1.49889e-05	2.95422e-05	5.02534e-05	1.2532e-05	0.829967	0.175768	5.40619	3.16767e-06	2.28378e-06	6.7746e-07	1.53062e-06	4.25103e-07	4.65948e-07	0.0130364	0.0374647	0.0396681	70.8139	2987.87	1039.67	3163.58	-19.1861	0.0000000E+000	0.0000000E+000	0.0000000E+000	19.1861	0.0000000E+000	0.0000000E+000	0.0000000E+000	-19.1861	0.0000000E+000	0.0000000E+000	0.0000000E+000	-70.8139	0.0000000E+000	0.0000000E+000	0.0000000E+000	70.8139	0.347965	19.1861	-1.27126e-06
1584.49	9.6119	28.9513	30.5052	-71.6337	151.671	0.459514	-0.00286395	3.46946	3.125	1	38	0.0130341	0.000427274	0	-3.0716e-05	0.436632	0.320761	9.98175	2.18116e-05	8.77175e-06	2.25699e-05	2.87364e-05	1.65303e-05	1.96505e-05	0.947424	0.196585	6.78941	2.89363e-06	1.69922e-06	5.10512e-07	1.80408e-06	5.9551e-07	9.31357e-07	0.0103291	0.0311115	0.0327813	71.6337	3125	1037.51	3292.73	-18.3663	0.0000000E+000	0.0000000E+000	0.0000000E+000	18.3663	0.0000000E+000	0.0000000E+000	0.0000000E+000	-18.3663	0.0000000E+000	0.0000000E+000	0.0000000E+000	-71.6337	0.0000000E+000	0.0000000E+000	0.0000000E+000	71.6337	0.332002	18.3663	-1.03347e-06
1258.79	11.2664	35.2989	37.0532	-72.2985	153.03	0.459474	-0.000290397	3.58184	3.25069	1	39	0.0146052	0.000394169	0	-3.16408e-05	0.763202	0.215755	8.56791	8.15551e-05	3.15009e-05	3.1062e-05	3.27451e-05	1.35206e-05	3.35052e-05	1.33966	0.0984651	3.31023	4.65824e-06	2.3331e-06	2.1495e-07	6.73525e-07	2.38545e-07	2.75836e-07	0.00820599	0.0257104	0.0269882	72.2985	3250.69	1037.52	3412.25	-17.7015	0.0000000E+000	0.0000000E+000	0.0000000E+000	17.7015	0.0000000E+000	0.0000000E+000	0.0000000E+000	-17.7015	0.0000000E+000	0.0000000E+000	0.0000000E+000	-72.2985	0.0000000E+000	0.0000000E+000	0.0000000E+000	72.2985	0.31917	17.7015	-9.24821e-07
999.682	13.4731	43.0307	45.0907	-72.6144	154.137	0.459486	-0.000383592	3.69981	3.36948	1	39	0.0139359	0.000309064	0	-3.19583e-05	0.512147	0.297174	8.84602	2.75342e-05	3.60005e-05	2.20413e-05	9.31916e-06	3.64866e-05	2.4775e-05	1.185	0.19672	4.13647	2.88136e-06	2.05894e-06	1.81046e-07	7.86567e-07	2.20966e-07	2.11953e-07	0.00662667	0.0211644	0.0221775	72.6144	3369.48	1055	3530.79	-17.3856	0.0000000E+000	0.0000000E+000	0.0000000E+000	17.3856	0.0000000E+000	0.0000000E+000	0.0000000E+000	-17.3856	0.0000000E+000	0.0000000E+000	0.0000000E+000	-72.6144	0.0000000E+000	0.0000000E+000	0.0000000E+000	72.6144	0.313105	17.3856	-3.1746e-07
794.239	16.1046	52.1149	54.5465	-72.8277	155.245	0.459505	-0.000458331	3.84509	3.50992	1	39	0.0134842	0.000247206	0	-3.19713e-05	0.633116	0.530325	9.25761	5.7193e-05	2.72203e-05	2.57538e-05	1.54699e-05	2.64711e-05	2.60092e-05	1.08267	0.182458	5.24109	1.82702e-06	1.45901e-06	2.66145e-07	1.16852e-06	2.10881e-07	2.74783e-07	0.00541274	0.0175157	0.018333	72.8277	3509.92	1084.64	3673.68	-17.1723	0.0000000E+000	0.0000000E+000	0.0000000E+000	17.1723	0.0000000E+000	0.0000000E+000	0.0000000E+000	-17.1723	0.0000000E+000	0.0000000E+000	0.0000000E+000	-72.8277	0.0000000E+000	0.0000000E+000	0.0000000E+000	72.8277	0.309022	17.1723	-1.30477e-08
631.01	19.6495	63.1259	66.1134	-72.7099	156.349	0.45958	-3.78594e-05	3.99555	3.64261	1	39	0.0132059	0.000199747	0	-3.20722e-05	0.596739	0.239873	9.48526	3.05583e-05	3.70688e-05	2.34425e-05	3.94392e-05	2.88485e-05	2.47204e-05	1.07565	0.138799	6.48715	1.53874e-06	8.45985e-07	3.35759e-07	1.07735e-06	2.99053e-07	3.46324e-07	0.00449545	0.014442	0.0151255	72.7099	3642.61	1133.85	3815	-17.2901	0.0000000E+000	0.0000000E+000	0.0000000E+000	17.2901	0.0000000E+000	0.0000000E+000	0.0000000E+000	-17.2901	0.0000000E+000	0.0000000E+000	0.0000000E+000	-72.7099	0.0000000E+000	0.0000000E+000	0.0000000E+000	72.7099	0.311275	17.2901	-1.00822e-07
501.122	23.7955	76.584	80.1956	-72.7394	157.454	0.45954	-0.000226664	4.14704	3.78193	1	39	0.0130574	0.00016282	0	-3.1975e-05	0.514593	0.246912	9.74596	2.94142e-05	2.42684e-05	2.99385e-05	1.4366e-05	2.64408e-05	1.79913e-05	1.13347	0.162188	8.03704	1.36793e-06	7.98438e-07	3.56636e-07	7.71392e-07	2.23309e-07	2.24995e-07	0.00369994	0.011908	0.0124695	72.7394	3781.93	1175.09	3960.28	-17.2606	0.0000000E+000	0.0000000E+000	0.0000000E+000	17.2606	0.0000000E+000	0.0000000E+000	0.0000000E+000	-17.2606	0.0000000E+000	0.0000000E+000	0.0000000E+000	-72.7394	0.0000000E+000	0.0000000E+000	0.0000000E+000	72.7394	0.310711	17.2606	9.71849e-08
398.089	29.198	92.2525	96.7628	-72.4374	158.563	0.459573	-9.69449e-05	4.33373	3.93914	1	39	0.0129278	0.000133603	0	-3.19848e-05	0.61023	0.263437	9.81545	3.53318e-05	2.8463e-05	2.53425e-05	2.69616e-05	3.34038e-05	3.16064e-05	1.16347	0.319862	9.98023	9.24438e-07	7.90876e-07	2.96161e-07	7.60837e-07	3.06698e-07	2.59167e-07	0.00311843	0.00985283	0.0103345	72.4374	3939.14	1246.74	4131.72	-17.5626	0.0000000E+000	0.0000000E+000	0.0000000E+000	17.5626	0.0000000E+000	0.0000000E+000	0.0000000E+000	-17.5626	0.0000000E+000	0.0000000E+000	0.0000000E+000	-72.4374	0.0000000E+000	0.0000000E+000	0.0000000E+000	72.4374	0.316501	17.5626	-9.85589e-09
316.316	35.7333	111.579	117.161	-72.2423	159.667	0.459551	-0.000496542	4.50938	4.08991	1	39	0.0128653	0.000109809	0	-3.21584e-05	0.43772	0.186375	9.85014	3.01406e-05	1.81153e-05	2.21761e-05	2.34307e-05	2.08703e-05	1.68134e-05	0.96474	0.305885	11.9357	7.11162e-07	3.74364e-07	2.48114e-07	5.35309e-07	2.06646e-07	2.46762e-07	0.00260319	0.00812859	0.00853525	72.2423	4089.91	1309.8	4294.53	-17.7577	0.0000000E+000	0.0000000E+000	0.0000000E+000	17.7577	0.0000000E+000	0.0000000E+000	0.0000000E+000	-17.7577	0.0000000E+000	0.0000000E+000	0.0000000E+000	-72.2423	0.0000000E+000	0.0000000E+000	0.0000000E+000	72.2423	0.320252	17.7578	-1.7355e-07
251.206	43.9564	133.793	140.829	-71.8126	160.772	0.459563	-0.000364027	4.73539	4.27405	1	39	0.012803	9.09119e-05	0	-3.22347e-05	0.471948	0.335916	9.83956	3.17568e-05	1.69043e-05	2.25363e-05	2.87303e-05	1.08516e-05	2.225e-05	1.05701	0.510467	14.6542	6.2324e-07	3.24886e-07	3.279e-07	3.471e-07	6.73247e-08	2.71912e-07	0.00221634	0.00674606	0.00710081	71.8126	4274.05	1404.19	4498.81	-18.1874	0.0000000E+000	0.0000000E+000	0.0000000E+000	18.1874	0.0000000E+000	0.0000000E+000	0.0000000E+000	-18.1874	0.0000000E+000	0.0000000E+000	0.0000000E+000	-71.8126	0.0000000E+000	0.0000000E+000	0.0000000E+000	71.8126	0.328539	18.1874	-7.63275e-08
199.553	54.2962	161.507	170.39	-71.4182	161.88	0.459539	-0.000170753	4.9382	4.43676	1	39	0.0127888	7.50563e-05	0	-3.22196e-05	0.538239	0.342272	9.56299	3.5114e-05	3.50929e-05	2.25744e-05	2.32641e-05	1.68716e-05	1.9087e-05	1.2197	0.392308	16.9515	6.17206e-07	3.61315e-07	2.49165e-07	2.79943e-07	2.31364e-07	2.16052e-07	0.00187017	0.00556294	0.00586889	71.4182	4436.76	1491.57	4680.77	-18.5818	0.0000000E+000	0.0000000E+000	0.0000000E+000	18.5818	0.0000000E+000	0.0000000E+000	0.0000000E+000	-18.5818	0.0000000E+000	0.0000000E+000	0.0000000E+000	-71.4182	0.0000000E+000	0.0000000E+000	0.0000000E+000	71.4182	0.336184	18.5818	1.5146e-08
158.529	68.0948	193.397	205.035	-70.6029	162.992	0.459548	-0.000329548	5.19112	4.61855	1	39	0.0127434	6.21525e-05	0	-3.22206e-05	0.430376	0.170875	9.82412	2.13769e-05	2.3814e-05	1.34238e-05	1.39423e-05	2.07871e-05	2.89569e-05	1.28166	0.4768	20.6699	4.36208e-07	3.96374e-07	2.06619e-07	1.64632e-07	2.90038e-07	2.77944e-07	0.00161979	0.00460038	0.00487721	70.6029	4618.55	1626.18	4896.47	-19.3971	0.0000000E+000	0.0000000E+000	0.0000000E+000	19.3971	0.0000000E+000	0.0000000E+000	0.0000000E+000	-19.3971	0.0000000E+000	0.0000000E+000	0.0000000E+000	-70.6029	0.0000000E+000	0.0000000E+000	0.0000000E+000	70.6029	0.352098	19.3971	-1.00404e-09
125.927	82.4188	232.181	246.376	-70.4563	164.346	0.459507	-7.28699e-05	5.44346	4.8343	1	40	0.0130388	5.29223e-05	0	-3.22851e-05	0.905438	0.356168	14.9567	4.30123e-05	5.83723e-05	3.39472e-05	3.93879e-05	4.14281e-05	5.35996e-05	0.991632	0.166204	4.77836	3.68408e-07	2.09892e-07	6.08774e-08	2.69904e-07	7.15247e-08	8.52152e-08	0.00135779	0.003825	0.00405884	70.4563	4834.3	1716.06	5129.85	-19.5437	0.0000000E+000	0.0000000E+000	0.0000000E+000	19.5437	0.0000000E+000	0.0000000E+000	0.0000000E+000	-19.5437	0.0000000E+000	0.0000000E+000	0.0000000E+000	-70.4563	0.0000000E+000	0.0000000E+000	0.0000000E+000	70.4563	0.354977	19.5437	-6.45769e-08
99.9682	103.555	277.421	296.118	-69.5306	165.428	0.459533	-8.03022e-05	5.73877	5.03695	1	40	0.0129144	4.36121e-05	0	-3.2282e-05	0.912464	0.50131	15.2267	4.07251e-05	3.30648e-05	4.92944e-05	5.17117e-05	6.41073e-05	2.0766e-05	0.918342	0.176534	5.88326	3.0338e-07	1.91852e-07	6.52693e-08	1.19934e-07	9.22887e-08	3.82504e-08	0.00118097	0.0031638	0.00337703	69.5306	5036.95	1880.17	5376.42	-20.4694	0.0000000E+000	0.0000000E+000	0.0000000E+000	20.4694	0.0000000E+000	0.0000000E+000	0.0000000E+000	-20.4694	0.0000000E+000	0.0000000E+000	0.0000000E+000	-69.5306	0.0000000E+000	0.0000000E+000	0.0000000E+000	69.5306	0.373276	20.4694	3.13302e-09
79.4157	128.707	330.647	354.814	-68.7312	166.498	0.459588	-0.0001449	6.06107	5.26353	1	40	0.0128321	3.61658e-05	0	-3.2267e-05	0.709805	0.356128	15.5111	3.17329e-05	3.00505e-05	3.31171e-05	4.44103e-05	1.88418e-05	4.45624e-05	0.944691	0.191886	7.1864	2.58551e-07	1.32968e-07	5.21737e-08	1.44917e-07	4.61722e-08	6.25591e-08	0.00102235	0.00262642	0.00281838	68.7312	5263.53	2048.87	5648.24	-21.2688	0.0000000E+000	0.0000000E+000	0.0000000E+000	21.2688	0.0000000E+000	0.0000000E+000	0.0000000E+000	-21.2688	0.0000000E+000	0.0000000E+000	0.0000000E+000	-68.7312	0.0000000E+000	0.0000000E+000	0.0000000E+000	68.7312	0.389257	21.2688	1.50311e-08
63.0823	161.455	395.036	426.757	-67.7697	167.581	0.459548	-0.000111968	6.38669	5.47254	1	40	0.0128293	3.00623e-05	0	-3.22918e-05	0.818461	0.394676	14.9167	4.51397e-05	3.19456e-05	3.00469e-05	3.5682e-05	4.45035e-05	4.32418e-05	1.02322	0.215738	8.49999	2.35185e-07	1.31884e-07	3.48969e-08	9.10751e-08	6.50686e-08	6.80145e-08	0.000886526	0.00216908	0.00234326	67.7697	5472.54	2236.68	5911.97	-22.2303	0.0000000E+000	0.0000000E+000	0.0000000E+000	22.2303	0.0000000E+000	0.0000000E+000	0.0000000E+000	-22.2303	0.0000000E+000	0.0000000E+000	0.0000000E+000	-67.7697	0.0000000E+000	0.0000000E+000	0.0000000E+000	67.7697	0.40871	22.2303	-2.48149e-08
50.1122	201.598	467.418	509.04	-66.6694	168.645	0.459525	-6.14896e-05	6.79471	5.729	1	40	0.0127724	2.50912e-05	0	-3.23344e-05	0.734528	0.452623	15.7198	2.10358e-05	2.8505e-05	3.47125e-05	4.95763e-05	4.55431e-05	2.49035e-05	1.01197	0.233563	10.4429	1.71969e-07	9.61973e-08	4.52907e-08	1.33481e-07	4.91351e-08	4.35896e-08	0.000778006	0.00180386	0.00196448	66.6694	5729	2470.92	6239.14	-23.3306	0.0000000E+000	0.0000000E+000	0.0000000E+000	23.3306	0.0000000E+000	0.0000000E+000	0.0000000E+000	-23.3306	0.0000000E+000	0.0000000E+000	0.0000000E+000	-66.6694	0.0000000E+000	0.0000000E+000	0.0000000E+000	66.6694	0.431301	23.3306	-4.25587e-08
39.8089	255.099	554.215	610.106	-65.2839	169.715	0.459506	-6.48798e-05	7.21376	5.9526	1	40	0.0127871	2.09589e-05	0	-3.23198e-05	0.955534	0.745385	15.6568	4.46174e-05	4.10829e-05	4.79405e-05	4.09125e-05	5.71962e-05	4.20634e-05	0.999432	0.63668	12.4311	1.35677e-07	8.56789e-08	5.20224e-08	6.24007e-08	7.20106e-08	5.84691e-08	0.000685328	0.00148891	0.00163906	65.2839	5952.6	2739.92	6552.91	-24.7161	0.0000000E+000	0.0000000E+000	0.0000000E+000	24.7161	0.0000000E+000	0.0000000E+000	0.0000000E+000	-24.7161	0.0000000E+000	0.0000000E+000	0.0000000E+000	-65.2839	0.0000000E+000	0.0000000E+000	0.0000000E+000	65.2839	0.46029	24.7161	1.4555e-08
31.6296	321.732	649.222	724.569	-63.6385	170.755	0.459535	-0.00011344	7.75057	6.22243	1	40	0.0127524	1.75999e-05	0	-3.23164e-05	0.91766	0.413089	15.3229	4.2678e-05	5.5501e-05	4.42515e-05	2.90639e-05	4.15014e-05	5.09226e-05	1.28101	0.415616	14.493	1.61493e-07	9.04712e-08	5.44037e-08	7.10111e-08	4.73944e-08	4.76012e-08	0.000612823	0.00123661	0.00138013	63.6385	6222.43	3083.63	6944.59	-26.3615	0.0000000E+000	0.0000000E+000	0.0000000E+000	26.3615	0.0000000E+000	0.0000000E+000	0.0000000E+000	-26.3615	0.0000000E+000	0.0000000E+000	0.0000000E+000	-63.6385	0.0000000E+000	0.0000000E+000	0.0000000E+000	63.6385	0.495566	26.3615	3.41576e-09
25.1206	399.726	756.384	855.511	-62.1449	171.824	0.459523	-0.000117799	8.37621	6.5476	1	40	0.0127302	1.48803e-05	0	-3.23186e-05	0.78297	0.292885	15.684	4.99279e-05	3.86472e-05	2.20913e-05	4.15239e-05	4.10593e-05	2.76441e-05	1.05333	0.412644	17.7617	1.20788e-07	7.3696e-08	3.04513e-08	2.5374e-08	2.86832e-08	3.46447e-08	0.00054615	0.00103346	0.00116889	62.1449	6547.6	3460.21	7405.68	-27.8551	0.0000000E+000	0.0000000E+000	0.0000000E+000	27.8551	0.0000000E+000	0.0000000E+000	0.0000000E+000	-27.8551	0.0000000E+000	0.0000000E+000	0.0000000E+000	-62.1449	0.0000000E+000	0.0000000E+000	0.0000000E+000	62.1449	0.52847	27.8551	-2.19582e-09
19.9553	506.459	874.259	1010.36	-59.9162	172.893	0.459537	-0.000114185	9.12265	6.83043	1	40	0.0127275	1.2597e-05	0	-3.23602e-05	0.77966	0.345725	15.9247	2.71302e-05	3.29558e-05	5.03289e-05	2.3131e-05	3.69706e-05	3.96165e-05	1.28591	0.500855	21.4355	1.09503e-07	5.16196e-08	4.27306e-08	4.8187e-08	6.13751e-08	4.02995e-08	0.000496125	0.00085642	0.000989745	59.9162	6830.43	3956.87	7893.77	-30.0838	0.0000000E+000	0.0000000E+000	0.0000000E+000	30.0838	0.0000000E+000	0.0000000E+000	0.0000000E+000	-30.0838	0.0000000E+000	0.0000000E+000	0.0000000E+000	-59.9162	0.0000000E+000	0.0000000E+000	0.0000000E+000	59.9162	0.579301	30.0838	-4.16294e-08
15.8469	633.86	1003.08	1186.57	-57.7107	173.934	0.459542	-0.000123126	10.0125	7.15526	1	40	0.0127054	1.07076e-05	0	-3.23494e-05	0.776392	0.596936	16.0527	3.61704e-05	4.19262e-05	3.57515e-05	3.07956e-05	3.9824e-05	3.32173e-05	1.39938	0.830035	25.167	1.11549e-07	5.71537e-08	4.30284e-08	3.0308e-08	4.99314e-08	3.12568e-08	0.000450201	0.000712441	0.000842765	57.7107	7155.26	4521.5	8464.15	-32.2893	0.0000000E+000	0.0000000E+000	0.0000000E+000	32.2893	0.0000000E+000	0.0000000E+000	0.0000000E+000	-32.2893	0.0000000E+000	0.0000000E+000	0.0000000E+000	-57.7107	0.0000000E+000	0.0000000E+000	0.0000000E+000	57.7107	0.631913	32.2893	1.08381e-08
12.5873	799.216	1137.68	1390.35	-54.9121	175.396	0.459511	-7.3713e-05	11.1139	7.44152	1	41	0.0127451	9.16683e-06	0	-3.24106e-05	0.761659	0.401172	14.1141	3.40722e-05	3.68771e-05	2.34186e-05	4.95075e-05	2.74561e-05	4.30635e-05	0.856021	0.0991718	3.98155	6.69443e-08	3.11118e-08	1.52236e-08	1.84877e-08	3.86712e-09	8.8798e-09	0.000413446	0.000588538	0.000719246	54.9121	7441.52	5227.64	9094.2	-35.0879	0.0000000E+000	0.0000000E+000	0.0000000E+000	35.0879	0.0000000E+000	0.0000000E+000	0.0000000E+000	-35.0879	0.0000000E+000	0.0000000E+000	0.0000000E+000	-54.9121	0.0000000E+000	0.0000000E+000	0.0000000E+000	54.9121	0.702497	35.0879	-6.12186e-08
9.99682	994.174	1269.67	1612.59	-51.9384	176.677	0.459529	-9.26792e-05	12.5391	7.77323	1	41	0.0141188	8.75535e-06	0	-3.24094e-05	0.992771	0.584643	17.6761	3.01816e-05	3.64964e-05	6.35409e-05	4.14103e-05	3.75333e-05	8.59821e-05	1.02482	0.257544	5.65661	7.49332e-08	4.15948e-08	1.5973e-08	1.08536e-08	7.1259e-09	1.40531e-08	0.000382309	0.000488251	0.000620121	51.9384	7773.23	6086.58	9872.67	-38.0616	0.0000000E+000	0.0000000E+000	0.0000000E+000	38.0616	0.0000000E+000	0.0000000E+000	0.0000000E+000	-38.0616	0.0000000E+000	0.0000000E+000	0.0000000E+000	-51.9384	0.0000000E+000	0.0000000E+000	0.0000000E+000	51.9384	0.783018	38.0616	1.17158e-09
7.93956	1219.27	1394.05	1852.02	-48.8262	177.886	0.459526	-9.0912e-05	14.3796	8.14721	1	41	0.014115	7.62139e-06	0	-3.24945e-05	0.671863	0.258858	12.4805	2.58513e-05	2.57903e-05	2.67836e-05	5.17364e-05	4.47344e-05	2.16074e-05	0.945585	0.115804	4.67098	5.84672e-08	2.76424e-08	6.5582e-09	2.60298e-08	1.40029e-08	6.69086e-09	0.000355474	0.00040643	0.000539951	48.8262	8147.21	7125.76	10823.7	-41.1738	0.0000000E+000	0.0000000E+000	0.0000000E+000	41.1738	0.0000000E+000	0.0000000E+000	0.0000000E+000	-41.1738	0.0000000E+000	0.0000000E+000	0.0000000E+000	-48.8262	0.0000000E+000	0.0000000E+000	0.0000000E+000	48.8262	0.874626	41.1738	-8.50488e-08
6.31058	1484.05	1490.49	2103.32	-45.1242	179.27	0.459591	-0.000107241	16.9208	8.49707	1	41	0.0140976	6.70256e-06	0	-3.25309e-05	0.782641	0.441107	12.4794	3.88607e-05	2.90375e-05	4.72136e-05	3.08753e-05	4.80171e-05	5.64973e-05	0.97794	0.170784	5.32331	5.29745e-08	2.86616e-08	1.00923e-08	1.78374e-08	7.76532e-09	1.11675e-08	0.000335457	0.000336914	0.000475439	45.1242	8497.07	8460.33	11990.7	-44.8758	0.0000000E+000	0.0000000E+000	0.0000000E+000	44.8758	0.0000000E+000	0.0000000E+000	0.0000000E+000	-44.8758	0.0000000E+000	0.0000000E+000	0.0000000E+000	-45.1242	0.0000000E+000	0.0000000E+000	0.0000000E+000	45.1242	0.995675	44.8758	-3.64392e-08
5.01283	1773.73	1561.11	2362.88	-41.352	180.888	0.459513	-8.88727e-05	20.3377	8.87746	1	41	0.0140939	5.96472e-06	0	-3.2586e-05	0.640712	0.239514	9.98056	2.94756e-05	4.02116e-05	3.28066e-05	3.15844e-05	2.67722e-05	4.57336e-05	0.883712	0.131861	4.89886	4.38301e-08	2.13134e-08	7.98252e-09	1.46412e-08	4.66368e-09	8.39372e-09	0.000317691	0.000279609	0.000423212	41.352	8877.46	10086.5	13436.8	-48.648	0.0000000E+000	0.0000000E+000	0.0000000E+000	48.648	0.0000000E+000	0.0000000E+000	0.0000000E+000	-48.648	0.0000000E+000	0.0000000E+000	0.0000000E+000	-41.352	0.0000000E+000	0.0000000E+000	0.0000000E+000	41.352	1.1362	48.648	-5.51054e-08
3.9819	2083.6	1593.09	2622.85	-37.401	182.809	0.45953	-9.22785e-05	25.0893	9.25601	1	41	0.014104	5.37737e-06	0	-3.25245e-05	0.432467	0.348132	8.65544	1.42089e-05	2.5612e-05	2.67532e-05	1.4361e-05	2.90332e-05	2.87194e-05	0.88449	0.137852	4.83807	3.96378e-08	2.1406e-08	5.34306e-09	1.01544e-08	4.29986e-09	7.82811e-09	0.000302878	0.000231576	0.000381265	37.401	9256.01	12105.9	15239	-52.599	0.0000000E+000	0.0000000E+000	0.0000000E+000	52.599	0.0000000E+000	0.0000000E+000	0.0000000E+000	-52.599	0.0000000E+000	0.0000000E+000	0.0000000E+000	-37.401	0.0000000E+000	0.0000000E+000	0.0000000E+000	37.401	1.3079	52.599	6.14662e-08
3.16296	2393.7	1574.94	2865.36	-33.343	185.117	0.459536	-9.39485e-05	31.9493	9.65238	1	41	0.0140996	4.92073e-06	0	-3.26883e-05	0.29928	0.319215	7.82292	1.76497e-05	1.46921e-05	1.42055e-05	2.07059e-05	1.14782e-05	1.85544e-05	0.859588	0.170519	4.70546	3.68953e-08	1.73479e-08	3.274e-09	8.67712e-09	3.23667e-09	3.89661e-09	0.00029155	0.000191826	0.000348997	33.343	9652.38	14670.3	17561	-56.657	0.0000000E+000	0.0000000E+000	0.0000000E+000	56.657	0.0000000E+000	0.0000000E+000	0.0000000E+000	-56.657	0.0000000E+000	0.0000000E+000	0.0000000E+000	-33.343	0.0000000E+000	0.0000000E+000	0.0000000E+000	33.343	1.51987	56.657	-1.63781e-07
2.51085	2695.28	1524.82	3096.71	-29.4984	187.921	0.459521	-9.25858e-05	41.5701	10.079	1	41	0.0141126	4.55729e-06	0	-3.2769e-05	0.355801	0.1444	6.61653	1.02423e-05	1.73131e-05	2.10449e-05	1.61279e-05	2.11806e-05	2.69521e-05	0.875248	0.0922724	4.49919	3.43238e-08	1.66418e-08	3.65271e-09	8.74724e-09	4.64017e-09	4.24629e-09	0.000281062	0.000159007	0.000322923	29.4984	10079	17815.7	20469.1	-60.5016	0.0000000E+000	0.0000000E+000	0.0000000E+000	60.5016	0.0000000E+000	0.0000000E+000	0.0000000E+000	-60.5016	0.0000000E+000	0.0000000E+000	0.0000000E+000	-29.4984	0.0000000E+000	0.0000000E+000	0.0000000E+000	29.4984	1.76761	60.5016	-8.06392e-08
1.99553	2961.51	1436.26	3291.41	-25.8723	191.344	0.459521	-9.32627e-05	55.53	10.5738	1	41	0.0140927	4.28167e-06	0	-3.27714e-05	0.330275	0.207483	5.89697	1.28361e-05	1.62531e-05	1.20956e-05	2.53848e-05	1.59509e-05	2.29805e-05	0.882773	0.0860255	4.33674	3.28041e-08	1.60057e-08	2.11765e-09	7.39887e-09	3.64846e-09	4.07222e-09	0.000273369	0.000132577	0.000303821	25.8723	10573.8	21802.7	24231.4	-64.1277	0.0000000E+000	0.0000000E+000	0.0000000E+000	64.1277	0.0000000E+000	0.0000000E+000	0.0000000E+000	-64.1277	0.0000000E+000	0.0000000E+000	0.0000000E+000	-25.8723	0.0000000E+000	0.0000000E+000	0.0000000E+000	25.8723	2.06196	64.1277	-2.43913e-09
1.58533	3201.87	1329.86	3467.06	-22.5549	195.557	0.459522	-9.35579e-05	75.4912	11.1066	1	41	0.0140939	4.06508e-06	0	-3.27915e-05	0.300679	0.17077	5.34101	9.78924e-06	1.61308e-05	1.50385e-05	2.47302e-05	1.50549e-05	8.57397e-06	0.8519	0.112406	4.27031	2.98147e-08	1.46435e-08	2.85842e-09	8.28188e-09	2.43876e-09	2.05381e-09	0.000266367	0.000110632	0.000288429	22.5549	11106.6	26741.3	28956.1	-67.4451	0.0000000E+000	0.0000000E+000	0.0000000E+000	67.4451	0.0000000E+000	0.0000000E+000	0.0000000E+000	-67.4451	0.0000000E+000	0.0000000E+000	0.0000000E+000	-22.5549	0.0000000E+000	0.0000000E+000	0.0000000E+000	22.5549	2.40768	67.4451	-2.01332e-08
1.25825	3409.69	1211.12	3618.39	-19.555	202.406	0.459535	-9.20818e-05	104.439	11.7006	1	42	0.0140921	3.89457e-06	0	-3.32011e-05	0.278829	0.153279	5.00167	1.27308e-05	1.85141e-05	1.20426e-05	1.41918e-05	1.63065e-05	1.25766e-05	0.838706	0.0146985	1.21799	2.90022e-08	1.41475e-08	4.82179e-10	4.9296e-09	3.04328e-10	9.11427e-10	0.000260425	9.25029e-05	0.000276366	19.555	11700.6	32940.8	34957.1	-70.445	0.0000000E+000	0.0000000E+000	0.0000000E+000	70.445	0.0000000E+000	0.0000000E+000	0.0000000E+000	-70.445	0.0000000E+000	0.0000000E+000	0.0000000E+000	-19.555	0.0000000E+000	0.0000000E+000	0.0000000E+000	19.555	2.81532	70.445	-4.0956e-07
1.00006	3586.72	1088.12	3748.15	-16.8765	208.866	0.459525	-9.32196e-05	146.257	12.3264	1	42	0.0140846	3.75775e-06	0	-3.30456e-05	0.242116	0.114727	4.25472	1.81507e-05	1.41875e-05	9.58178e-06	1.65831e-05	6.55646e-06	8.5283e-06	0.830817	0.0452362	1.22921	2.78193e-08	1.34734e-08	4.77039e-10	4.26338e-09	5.03234e-10	5.04926e-10	0.000255308	7.74541e-05	0.000266799	16.8765	12326.4	40631.1	42459.7	-73.1235	0.0000000E+000	0.0000000E+000	0.0000000E+000	73.1235	0.0000000E+000	0.0000000E+000	0.0000000E+000	-73.1235	0.0000000E+000	0.0000000E+000	0.0000000E+000	-16.8765	0.0000000E+000	0.0000000E+000	0.0000000E+000	16.8765	3.29625	73.1235	1.55475e-07
0.79456	3738.51	968.875	3862.02	-14.5292	216.882	0.459532	-9.3582e-05	206.741	13.0117	1	42	0.0140947	3.64956e-06	0	-3.35618e-05	0.1875	0.0762282	3.70851	1.03099e-05	1.34541e-05	9.31476e-06	7.56682e-06	1.08322e-05	9.3982e-06	0.815081	0.051109	1.20818	2.66119e-08	1.26584e-08	4.47313e-10	3.95638e-09	4.90909e-10	2.7352e-10	0.000250651	6.49589e-05	0.000258932	14.5292	13011.7	50206.9	51865.6	-75.4708	0.0000000E+000	0.0000000E+000	0.0000000E+000	75.4708	0.0000000E+000	0.0000000E+000	0.0000000E+000	-75.4708	0.0000000E+000	0.0000000E+000	0.0000000E+000	-14.5292	0.0000000E+000	0.0000000E+000	0.0000000E+000	14.5292	3.85861	75.4708	-5.16149e-07
0.630906	3860.98	855.827	3954.7	-12.4981	226.88	0.459514	-9.45279e-05	294.761	13.8043	1	42	0.0140875	3.56223e-06	0	-3.3836e-05	0.206702	0.0942647	3.25499	1.35953e-05	1.17752e-05	8.79318e-06	1.48054e-05	9.07631e-06	1.05882e-05	0.80367	0.0647282	1.39131	2.5877e-08	1.17469e-08	6.01906e-10	3.24741e-09	5.30812e-10	5.36443e-10	0.000246872	5.47217e-05	0.000252864	12.4981	13804.3	62276.9	63788.5	-77.5019	0.0000000E+000	0.0000000E+000	0.0000000E+000	77.5019	0.0000000E+000	0.0000000E+000	0.0000000E+000	-77.5019	0.0000000E+000	0.0000000E+000	0.0000000E+000	-12.4981	0.0000000E+000	0.0000000E+000	0.0000000E+000	12.4981	4.5114	77.5019	-2.74224e-07
0.500946	3967	746.698	4036.67	-10.6599	239.387	0.459521	-9.33199e-05	425.485	14.5589	1	42	0.0140914	3.49086e-06	0	-3.37339e-05	0.187974	0.0718713	3.00649	8.44441e-06	1.49784e-05	6.17629e-06	1.26266e-05	9.74228e-06	5.26944e-06	0.801808	0.0267543	1.24893	2.50624e-08	1.19841e-08	3.93697e-10	3.2303e-09	3.92441e-10	5.74914e-10	0.000243454	4.58247e-05	0.000247729	10.6599	14558.9	77347.5	78705.8	-79.3401	0.0000000E+000	0.0000000E+000	0.0000000E+000	79.3401	0.0000000E+000	0.0000000E+000	0.0000000E+000	-79.3401	0.0000000E+000	0.0000000E+000	0.0000000E+000	-10.6599	0.0000000E+000	0.0000000E+000	0.0000000E+000	10.6599	5.31273	79.3401	1.0214e-07
0.398211	4052.53	648.269	4104.06	-9.0884	255.037	0.45953	-9.43047e-05	616.526	15.3828	1	42	0.0140869	3.43243e-06	0	-3.42679e-05	0.150002	0.103634	2.57623	5.41055e-06	9.69522e-06	9.24373e-06	1.02176e-05	7.99641e-06	3.95279e-06	0.824124	0.0453936	1.31474	2.56759e-08	1.14199e-08	4.51958e-10	3.09697e-09	3.26491e-10	5.08665e-10	0.000240602	3.84883e-05	0.000243661	9.0884	15382.8	96162.7	97385.2	-80.9116	0.0000000E+000	0.0000000E+000	0.0000000E+000	80.9116	0.0000000E+000	0.0000000E+000	0.0000000E+000	-80.9116	0.0000000E+000	0.0000000E+000	0.0000000E+000	-9.0884	0.0000000E+000	0.0000000E+000	0.0000000E+000	9.0884	6.25132	80.9116	-5.33996e-07
0.316193	4126.01	559.696	4163.8	-7.72505	274.664	0.459535	-9.59571e-05	899.323	16.2495	1	42	0.0140912	3.38421e-06	0	-3.5343e-05	0.1276	0.0783296	2.32327	4.45056e-06	6.97548e-06	5.84437e-06	9.49085e-06	5.51914e-06	6.85474e-06	0.82652	0.0272643	1.33103	2.53689e-08	1.13851e-08	3.06146e-10	2.94186e-09	4.6348e-10	3.47429e-10	0.000237986	3.22829e-05	0.000240165	7.72505	16249.5	119789	120887	-82.2749	0.0000000E+000	0.0000000E+000	0.0000000E+000	82.2749	0.0000000E+000	0.0000000E+000	0.0000000E+000	-82.2749	0.0000000E+000	0.0000000E+000	0.0000000E+000	-7.72505	0.0000000E+000	0.0000000E+000	0.0000000E+000	7.72505	7.37188	82.2749	-1.07514e-06
0.251222	4186.19	479.363	4213.54	-6.53252	299.283	0.459534	-9.64959e-05	1321.6	17.1054	1	42	0.0140875	3.34339e-06	0	-3.61429e-05	0.13563	0.0385526	2.08681	9.90252e-06	1.06404e-05	6.45656e-06	7.24363e-06	4.52108e-06	5.2726e-06	0.831279	0.026963	1.32234	2.53498e-08	1.09847e-08	2.70848e-10	2.94533e-09	3.31248e-10	3.29417e-10	0.000235789	2.70003e-05	0.00023733	6.53252	17105.4	149378	150354	-83.4675	0.0000000E+000	0.0000000E+000	0.0000000E+000	83.4675	0.0000000E+000	0.0000000E+000	0.0000000E+000	-83.4675	0.0000000E+000	0.0000000E+000	0.0000000E+000	-6.53252	0.0000000E+000	0.0000000E+000	0.0000000E+000	6.53252	8.73282	83.4675	-7.99901e-07
0.199573	4235.61	410.804	4255.48	-5.53969	330.192	0.459537	-9.86642e-05	1941.25	18.0907	1	42	0.0140862	3.31013e-06	0	-3.64309e-05	0.123387	0.0830795	1.84168	3.41447e-06	1.1342e-05	3.43013e-06	1.05066e-05	4.2081e-06	3.72333e-06	0.85091	0.023847	1.34984	2.57894e-08	1.09968e-08	2.26139e-10	2.66524e-09	1.7942e-10	2.58166e-10	0.000233893	2.26849e-05	0.000234991	5.53969	18090.7	186524	187400	-84.4603	0.0000000E+000	0.0000000E+000	0.0000000E+000	84.4603	0.0000000E+000	0.0000000E+000	0.0000000E+000	-84.4603	0.0000000E+000	0.0000000E+000	0.0000000E+000	-5.53969	0.0000000E+000	0.0000000E+000	0.0000000E+000	5.53969	10.3105	84.4603	-2.88049e-07
0.158419	4278	348.956	4292.21	-4.66328	369.048	0.459536	-9.79257e-05	2879.01	19.0293	1	42	0.0140882	3.28227e-06	0	-3.67164e-05	0.128228	0.0421054	1.64727	5.19344e-06	1.22833e-05	6.24435e-06	8.13499e-06	3.40622e-06	4.48389e-06	0.851393	0.0322905	1.32553	2.56048e-08	1.08218e-08	3.58785e-10	2.80199e-09	1.7054e-10	2.34132e-10	0.000232209	1.89413e-05	0.00023298	4.66328	19029.3	233288	234063	-85.3367	0.0000000E+000	0.0000000E+000	0.0000000E+000	85.3367	0.0000000E+000	0.0000000E+000	0.0000000E+000	-85.3367	0.0000000E+000	0.0000000E+000	0.0000000E+000	-4.66328	0.0000000E+000	0.0000000E+000	0.0000000E+000	4.66328	12.2594	85.3367	-2.85455e-07
0.125939	4314.65	295.112	4324.73	-3.9128	417.845	0.459538	-9.41482e-05	4282.27	19.9402	1	42	0.014089	3.25778e-06	0	-3.7742e-05	0.122425	0.0562885	1.47365	1.72356e-06	9.53713e-06	6.0976e-06	9.45689e-06	5.69583e-06	3.89338e-06	0.932311	0.0288745	1.33406	2.82954e-08	1.06716e-08	1.82853e-10	2.62655e-09	2.28809e-10	1.80365e-10	0.000230689	1.57786e-05	0.000231228	3.9128	19940.2	291533	292215	-86.0872	0.0000000E+000	0.0000000E+000	0.0000000E+000	86.0872	0.0000000E+000	0.0000000E+000	0.0000000E+000	-86.0872	0.0000000E+000	0.0000000E+000	0.0000000E+000	-3.9128	0.0000000E+000	0.0000000E+000	0.0000000E+000	3.9128	14.6204	86.0872	-1.02557e-06
0.0999518	4346.4	247.709	4353.45	-3.26186	479.247	0.459538	-9.34147e-05	6428.17	20.8115	1	42	0.0140915	3.23686e-06	0	-4.00084e-05	0.142818	0.0431763	1.39781	4.75518e-06	1.06096e-05	2.65497e-06	1.3912e-05	5.23753e-06	4.11632e-06	0.873698	0.0263386	1.36384	2.60496e-08	1.07347e-08	1.5801e-10	2.40569e-09	2.47087e-10	1.6698e-10	0.000229331	1.307e-05	0.000229703	3.26186	20811.5	365167	365760	-86.7381	0.0000000E+000	0.0000000E+000	0.0000000E+000	86.7381	0.0000000E+000	0.0000000E+000	0.0000000E+000	-86.7381	0.0000000E+000	0.0000000E+000	0.0000000E+000	-3.26186	0.0000000E+000	0.0000000E+000	0.0000000E+000	3.26186	17.5464	86.7381	-2.26641e-06