File: Python/Data/RDE/240223-OCV-EIS-Fe2Fe3_5mM-HCl1M-1225RPM-Ag_AgCl_BLF8-GC-RDE-1minRestVSEoc-3ppf-14p1mVAmplitude_04_PEIS_C15.mpt
EC-Lab ASCII FILE
Nb header lines : 67

Potentio Electrochemical Impedance Spectroscopy

Run on channel : 15 (SN 19485)
User :
Electrode connection : standard
Potential control : Ewe
Ewe ctrl range : min = -1.00 V, max = 1.00 V
Ewe,I filtering : 50 kHz
Safety Limits :
	Do not start on E overload
Channel : Floating
Acquisition started on : 02/23/2024 14:49:54.683
Loaded Setting File :  NONE
Saved on :
	File : 240223-OCV-EIS-Fe2Fe3_5mM-HCl1M-1225RPM-Ag_AgCl_BLF8-GC-RDE-1minRestVSEoc-3ppf-14p1mVAmplitude_04_PEIS_C15.mpr
	Directory : C:\Data\mathias\RDE-RPM-variation\
	Host : 192.168.0.1
Device : VMP-300 (SN 0826)
Address : USB
EC-Lab for windows v11.52 (software)
Internet server v11.52 (firmware)
Command interpretor v11.52 (firmware)
Electrode material :
Initial state :
Electrolyte :
Comments :
Cable : special
Reference electrode : SCE Saturated Calomel Electrode (0.241 V)
Electrode surface area : 0.001 cm²
Characteristic mass : 0.001 g
Equivalent Weight : 0.000 g/eq.
Density : 0.000 g/cm3
Volume (V) : 0.001 cm³
Record EIS quality indicators
Cycle Definition : Charge/Discharge alternance
Mode                Single sine
E (V)               0.0000
vs.                 Eoc
tE (h:m:s)          0:01:0.0000
record              0
dI                  0.000
unit dI             mA
dt (s)              0.000
fi                  1.000
unit fi             MHz
ff                  100.000
unit ff             mHz
Nd                  10
Points              per decade
spacing             Logarithmic
Va (mV)             14.1
pw                  0.10
Na                  3
corr                0
E range min (V)     -1.000
E range max (V)     1.000
I Range             Auto
Bandwidth           8
nc cycles           0
goto Ns'            0
nr cycles           0
inc. cycle          1

freq/Hz	Re(Z)/Ohm	-Im(Z)/Ohm	|Z|/Ohm	Phase(Z)/deg	time/s	<Ewe>/V	<I>/mA	Cs/µF	Cp/µF	cycle number	I Range	|Ewe|/V	|I|/A	Ns	(Q-Qo)/mA.h	THD Ewe/%	NSD Ewe/%	NSR Ewe/%	|Ewe h2|/V	|Ewe h3|/V	|Ewe h4|/V	|Ewe h5|/V	|Ewe h6|/V	|Ewe h7|/V	THD I/%	NSD I/%	NSR I/%	|I h2|/A	|I h3|/A	|I h4|/A	|I h5|/A	|I h6|/A	|I h7|/A	Re(Y)/Ohm-1	Im(Y)/Ohm-1	|Y|/Ohm-1	Phase(Y)/deg	Re(C)/nF	Im(C)/nF	|C|/nF	Phase(C)/deg	Re(M)	Im(M)	|M|	Phase(M)/deg	Re(Permittivity)	Im(Permittivity)	|Permittivity|	Phase(Permittivity)/deg	Re(Resistivity)/Ohm.cm	Im(Resistivity)/Ohm.cm	|Resistivity|/Ohm.cm	Phase(Resistivity)/deg	Re(Conductivity)/mS/cm	Im(Conductivity)/mS/cm	|Conductivity|/mS/cm	Phase(Conductivity)/deg	Tan(Delta)	Loss Angle(Delta)/deg	dq/mA.h
1.00002e+06	3.54239	4.06833	5.39443	-48.9531	599.17	0.459656	-0.0113283	0.0391197	0.0222504	1	38	0.0111288	0.00206303	0	-2.83842e-06	-1	-1	-1	0	0	0	0	0	0	-1	-1	-1	0	0	0	0	0	0	0.121732	0.139806	0.185376	48.9531	22.2504	19.3739	29.503	-41.0469	0.0000000E+000	0.0000000E+000	0.0000000E+000	41.0469	0.0000000E+000	0.0000000E+000	0.0000000E+000	-41.0469	0.0000000E+000	0.0000000E+000	0.0000000E+000	-48.9531	0.0000000E+000	0.0000000E+000	0.0000000E+000	48.9531	0.870723	41.0468	-2.83842e-06
794333	3.58501	3.19588	4.8027	-41.7156	600.182	0.459658	-0.0020223	0.0626942	0.0277611	1	38	0.0138958	0.00289334	0	-8.8636e-07	-1	-1	-1	0	0	0	0	0	0	-1	-1	-1	0	0	0	0	0	0	0.155425	0.138554	0.208216	41.7156	27.7611	31.1413	41.7189	-48.2844	0.0000000E+000	0.0000000E+000	0.0000000E+000	48.2844	0.0000000E+000	0.0000000E+000	0.0000000E+000	-48.2844	0.0000000E+000	0.0000000E+000	0.0000000E+000	-41.7156	0.0000000E+000	0.0000000E+000	0.0000000E+000	41.7156	1.12176	48.2844	1.95206e-06
630957	3.56513	2.50779	4.3588	-35.1234	601.329	0.459683	-0.00145624	0.100584	0.0332949	1	38	0.0144545	0.00331616	0	-1.65801e-06	-1	-1	-1	0	0	0	0	0	0	-1	-1	-1	0	0	0	0	0	0	0.187647	0.131995	0.229421	35.1234	33.2949	47.3328	57.87	-54.8766	0.0000000E+000	0.0000000E+000	0.0000000E+000	54.8766	0.0000000E+000	0.0000000E+000	0.0000000E+000	-54.8766	0.0000000E+000	0.0000000E+000	0.0000000E+000	-35.1234	0.0000000E+000	0.0000000E+000	0.0000000E+000	35.1234	1.42162	54.8766	-7.7165e-07
501206	3.52901	1.99738	4.05505	-29.5094	602.477	0.459672	-0.00195337	0.15898	0.0385721	1	38	0.014519	0.00358047	0	-4.71019e-06	-1	-1	-1	0	0	0	0	0	0	-1	-1	-1	0	0	0	0	0	0	0.214615	0.12147	0.246606	29.5094	38.5721	68.1497	78.3083	-60.4906	0.0000000E+000	0.0000000E+000	0.0000000E+000	60.4906	0.0000000E+000	0.0000000E+000	0.0000000E+000	-60.4906	0.0000000E+000	0.0000000E+000	0.0000000E+000	-29.5094	0.0000000E+000	0.0000000E+000	0.0000000E+000	29.5094	1.76682	60.4906	-3.05218e-06
398103	3.48892	1.6141	3.8442	-24.827	603.624	0.459666	-0.00114528	0.247682	0.043666	1	38	0.0145317	0.00378017	0	-1.12428e-05	-1	-1	-1	0	0	0	0	0	0	-1	-1	-1	0	0	0	0	0	0	0.236091	0.109224	0.260132	24.827	43.666	94.3851	103.996	-65.173	0.0000000E+000	0.0000000E+000	0.0000000E+000	65.173	0.0000000E+000	0.0000000E+000	0.0000000E+000	-65.173	0.0000000E+000	0.0000000E+000	0.0000000E+000	-24.827	0.0000000E+000	0.0000000E+000	0.0000000E+000	24.827	2.16152	65.173	-6.53263e-06
316230	3.44841	1.34933	3.70301	-21.37	604.771	0.459695	-0.00215445	0.37299	0.0495254	1	38	0.0145732	0.00393551	0	-7.9556e-06	-1	-1	-1	0	0	0	0	0	0	-1	-1	-1	0	0	0	0	0	0	0.251484	0.0984036	0.270051	21.37	49.5254	126.569	135.914	-68.63	0.0000000E+000	0.0000000E+000	0.0000000E+000	68.63	0.0000000E+000	0.0000000E+000	0.0000000E+000	-68.63	0.0000000E+000	0.0000000E+000	0.0000000E+000	-21.37	0.0000000E+000	0.0000000E+000	0.0000000E+000	21.37	2.55564	68.63	3.28723e-06
251188	3.42773	1.16675	3.62086	-18.7978	605.918	0.459675	-0.00154001	0.543058	0.0563863	1	38	0.0145845	0.0040279	0	1.61929e-06	-1	-1	-1	0	0	0	0	0	0	-1	-1	-1	0	0	0	0	0	0	0.261447	0.0889922	0.276177	18.7978	56.3863	165.655	174.989	-71.2022	0.0000000E+000	0.0000000E+000	0.0000000E+000	71.2022	0.0000000E+000	0.0000000E+000	0.0000000E+000	-71.2022	0.0000000E+000	0.0000000E+000	0.0000000E+000	-18.7978	0.0000000E+000	0.0000000E+000	0.0000000E+000	18.7978	2.93786	71.2022	9.57489e-06
199544	3.41198	1.04752	3.56916	-17.0672	607.065	0.459649	-0.00128492	0.76141	0.0655865	1	38	0.0145577	0.00407874	0	1.79061e-06	-1	-1	-1	0	0	0	0	0	0	-1	-1	-1	0	0	0	0	0	0	0.267839	0.0822304	0.280178	17.0672	65.5865	213.627	223.469	-72.9328	0.0000000E+000	0.0000000E+000	0.0000000E+000	72.9328	0.0000000E+000	0.0000000E+000	0.0000000E+000	-72.9328	0.0000000E+000	0.0000000E+000	0.0000000E+000	-17.0672	0.0000000E+000	0.0000000E+000	0.0000000E+000	17.0672	3.25718	72.9328	1.71321e-07
158486	3.40727	0.995402	3.54969	-16.2852	608.212	0.459663	-0.00119369	1.00886	0.0793315	1	38	0.0145877	0.00410957	0	-9.42143e-06	-1	-1	-1	0	0	0	0	0	0	-1	-1	-1	0	0	0	0	0	0	0.270411	0.0789981	0.281714	16.2852	79.3315	271.552	282.903	-73.7148	0.0000000E+000	0.0000000E+000	0.0000000E+000	73.7148	0.0000000E+000	0.0000000E+000	0.0000000E+000	-73.7148	0.0000000E+000	0.0000000E+000	0.0000000E+000	-16.2852	0.0000000E+000	0.0000000E+000	0.0000000E+000	16.2852	3.42301	73.7148	-1.1212e-05
125909	3.4148	0.997143	3.55741	-16.2781	609.36	0.459662	-0.00186212	1.26767	0.0995982	1	38	0.0145881	0.00410077	0	-5.06658e-06	-1	-1	-1	0	0	0	0	0	0	-1	-1	-1	0	0	0	0	0	0	0.269834	0.0787933	0.281103	16.2781	99.5982	341.083	355.327	-73.7219	0.0000000E+000	0.0000000E+000	0.0000000E+000	73.7219	0.0000000E+000	0.0000000E+000	0.0000000E+000	-73.7219	0.0000000E+000	0.0000000E+000	0.0000000E+000	-16.2781	0.0000000E+000	0.0000000E+000	0.0000000E+000	16.2781	3.42459	73.7219	4.35485e-06
100004	3.42278	1.04539	3.57887	-16.9839	610.507	0.459678	-0.00175041	1.52238	0.129895	1	38	0.0145699	0.00407108	0	-7.08606e-06	0.449409	0.317141	8.89515	2.06822e-05	1.78303e-05	2.17635e-05	2.10157e-05	3.55176e-05	3.17588e-05	0.0632215	0.023742	0.693787	1.79056e-06	1.2683e-06	8.50132e-07	3.2267e-07	4.93454e-07	6.90101e-07	0.267232	0.0816187	0.279418	16.9839	129.895	425.297	444.691	-73.0161	0.0000000E+000	0.0000000E+000	0.0000000E+000	73.0161	0.0000000E+000	0.0000000E+000	0.0000000E+000	-73.0161	0.0000000E+000	0.0000000E+000	0.0000000E+000	-16.9839	0.0000000E+000	0.0000000E+000	0.0000000E+000	16.9839	3.27415	73.0161	-2.01948e-06
79433.3	3.44308	1.14107	3.62723	-18.3357	611.653	0.459665	-0.000437745	1.75593	0.173771	1	38	0.0145711	0.00401715	0	-6.99229e-06	0.433565	0.290157	8.85762	1.83332e-05	3.21547e-05	1.87915e-05	1.04479e-05	3.18328e-05	2.0927e-05	0.0554849	0.0306045	0.709859	1.38082e-06	1.20764e-06	7.59607e-07	4.98526e-07	7.21793e-07	2.07071e-07	0.261695	0.0867282	0.275692	18.3357	173.771	524.341	552.386	-71.6643	0.0000000E+000	0.0000000E+000	0.0000000E+000	71.6643	0.0000000E+000	0.0000000E+000	0.0000000E+000	-71.6643	0.0000000E+000	0.0000000E+000	0.0000000E+000	-18.3357	0.0000000E+000	0.0000000E+000	0.0000000E+000	18.3357	3.01742	71.6643	9.37656e-08
63093.8	3.48116	1.29958	3.71583	-20.4715	612.8	0.459659	-0.00101868	1.94102	0.237423	1	38	0.0146073	0.00393109	0	-2.15145e-06	0.334235	0.357084	8.81428	1.84566e-05	2.63217e-05	1.93261e-05	1.67996e-05	6.02436e-06	2.1766e-05	0.0635222	0.0355896	0.720647	1.60932e-06	1.28903e-06	8.46353e-07	5.17101e-07	7.47421e-07	5.49872e-07	0.252123	0.0941218	0.269119	20.4715	237.423	635.984	678.856	-69.5285	0.0000000E+000	0.0000000E+000	0.0000000E+000	69.5285	0.0000000E+000	0.0000000E+000	0.0000000E+000	-69.5285	0.0000000E+000	0.0000000E+000	0.0000000E+000	-20.4715	0.0000000E+000	0.0000000E+000	0.0000000E+000	20.4715	2.67869	69.5285	4.84084e-06
50122.5	3.51946	1.49768	3.82487	-23.0518	613.947	0.459669	-0.00162939	2.12016	0.325067	1	38	0.0146267	0.0038241	0	-8.95185e-07	0.612776	0.34635	8.87283	2.55073e-05	2.8111e-05	2.34284e-05	2.55528e-05	4.31815e-05	4.86711e-05	0.0538631	0.0318196	0.763869	9.58976e-07	1.06276e-06	7.6314e-07	4.2196e-07	9.99187e-07	5.52541e-07	0.240571	0.102373	0.261447	23.0518	325.067	763.89	830.178	-66.9482	0.0000000E+000	0.0000000E+000	0.0000000E+000	66.9482	0.0000000E+000	0.0000000E+000	0.0000000E+000	-66.9482	0.0000000E+000	0.0000000E+000	0.0000000E+000	-23.0518	0.0000000E+000	0.0000000E+000	0.0000000E+000	23.0518	2.34994	66.9482	1.25627e-06
39814.1	3.5674	1.77158	3.98307	-26.4092	615.094	0.459678	-0.0010764	2.25643	0.446385	1	38	0.0146445	0.00367668	0	-4.49541e-06	0.46751	0.207926	8.98191	1.34435e-05	4.17369e-05	1.76862e-05	2.7776e-05	2.71067e-05	2.58474e-05	0.0543582	0.0589674	0.781981	1.13394e-06	1.32283e-06	3.38956e-07	3.80469e-07	4.03299e-07	5.33329e-07	0.224862	0.111667	0.251063	26.4092	446.385	898.875	1003.61	-63.5908	0.0000000E+000	0.0000000E+000	0.0000000E+000	63.5908	0.0000000E+000	0.0000000E+000	0.0000000E+000	-63.5908	0.0000000E+000	0.0000000E+000	0.0000000E+000	-26.4092	0.0000000E+000	0.0000000E+000	0.0000000E+000	26.4092	2.01368	63.5908	-3.60023e-06
31621.1	3.61681	2.12051	4.1926	-30.3829	616.241	0.459672	-0.0025827	2.37357	0.60718	1	38	0.0146697	0.00349896	0	-9.54467e-06	0.507433	0.210228	9.01318	3.09724e-05	3.50939e-05	1.54989e-05	3.84386e-05	2.00236e-05	2.75278e-05	0.0623646	0.0711498	0.822559	5.92163e-07	1.28037e-06	8.96126e-07	3.73165e-07	9.27327e-07	4.52763e-07	0.205759	0.120635	0.238516	30.3829	607.18	1035.62	1200.49	-59.6171	0.0000000E+000	0.0000000E+000	0.0000000E+000	59.6171	0.0000000E+000	0.0000000E+000	0.0000000E+000	-59.6171	0.0000000E+000	0.0000000E+000	0.0000000E+000	-30.3829	0.0000000E+000	0.0000000E+000	0.0000000E+000	30.3829	1.70563	59.6171	-5.04925e-06
25116.9	3.68858	2.57342	4.49756	-34.9024	617.388	0.459653	-0.00139853	2.46232	0.806139	1	38	0.0147311	0.00327536	0	-1.0212e-05	0.440128	0.34739	8.63227	3.25351e-05	2.23819e-05	2.62696e-05	2.13326e-05	2.06516e-05	1.84901e-05	0.06467	0.0711938	0.8854	5.98998e-07	1.16796e-06	1.15678e-06	8.06729e-07	5.12643e-07	4.40982e-07	0.182349	0.12722	0.222343	34.9024	806.139	1155.47	1408.89	-55.0976	0.0000000E+000	0.0000000E+000	0.0000000E+000	55.0976	0.0000000E+000	0.0000000E+000	0.0000000E+000	-55.0976	0.0000000E+000	0.0000000E+000	0.0000000E+000	-34.9024	0.0000000E+000	0.0000000E+000	0.0000000E+000	34.9024	1.43334	55.0976	-6.67377e-07
19948.8	3.77819	3.12464	4.90287	-39.5915	618.534	0.459661	-0.00163688	2.55331	1.03706	1	38	0.0147636	0.00301121	0	-7.6107e-06	0.525887	0.265683	8.64632	2.66578e-05	1.26906e-05	4.2132e-05	3.03173e-05	2.79469e-05	3.00644e-05	0.0663209	0.0373147	0.984544	1.09327e-06	8.52808e-07	8.21731e-07	6.21946e-07	6.05472e-07	5.82908e-07	0.157175	0.129987	0.203962	39.5915	1037.06	1253.97	1627.25	-50.4085	0.0000000E+000	0.0000000E+000	0.0000000E+000	50.4085	0.0000000E+000	0.0000000E+000	0.0000000E+000	-50.4085	0.0000000E+000	0.0000000E+000	0.0000000E+000	-39.5915	0.0000000E+000	0.0000000E+000	0.0000000E+000	39.5915	1.20916	50.4085	2.60135e-06
15847.7	3.89563	3.82563	5.45998	-44.4805	619.681	0.459646	-0.00153261	2.62513	1.28877	1	38	0.0147848	0.00270785	0	-2.29363e-06	0.54444	0.343255	8.77978	3.00296e-05	3.54283e-05	1.1198e-05	2.24861e-05	2.91334e-05	3.26481e-05	0.098745	0.0555099	1.07178	2.07689e-06	7.46196e-07	6.62333e-07	8.39186e-07	4.64299e-07	7.50362e-07	0.130676	0.128328	0.183151	44.4805	1288.77	1312.35	1839.35	-45.5195	0.0000000E+000	0.0000000E+000	0.0000000E+000	45.5195	0.0000000E+000	0.0000000E+000	0.0000000E+000	-45.5195	0.0000000E+000	0.0000000E+000	0.0000000E+000	-44.4805	0.0000000E+000	0.0000000E+000	0.0000000E+000	44.4805	1.0183	45.5195	5.31707e-06
12590.9	4.03419	4.68307	6.18109	-49.257	620.828	0.459658	-0.00101872	2.69918	1.5494	1	38	0.0147725	0.00238995	0	9.17644e-07	0.465034	0.223641	8.53483	3.63736e-05	1.69854e-05	2.25273e-05	2.79469e-05	1.98913e-05	3.33996e-05	0.128836	0.051483	1.21624	2.50727e-06	5.00441e-07	5.78362e-07	7.9121e-07	7.77256e-07	9.64294e-07	0.105591	0.122575	0.161784	49.257	1549.4	1334.72	2045.02	-40.743	0.0000000E+000	0.0000000E+000	0.0000000E+000	40.743	0.0000000E+000	0.0000000E+000	0.0000000E+000	-40.743	0.0000000E+000	0.0000000E+000	0.0000000E+000	-49.257	0.0000000E+000	0.0000000E+000	0.0000000E+000	49.257	0.861441	40.743	3.21127e-06
10002.2	4.22416	5.75922	7.14228	-53.7414	621.975	0.459689	-0.00152704	2.76287	1.79644	1	38	0.0146554	0.00205192	0	-3.8559e-06	0.561193	0.222762	8.92734	3.02016e-05	4.16277e-05	3.17343e-05	3.01879e-05	2.70925e-05	2.83221e-05	0.209932	0.0524349	1.41618	3.90386e-06	8.63105e-07	7.50049e-07	9.0797e-07	5.49512e-07	6.22286e-07	0.0828069	0.112899	0.140011	53.7414	1796.44	1317.62	2227.85	-36.2586	0.0000000E+000	0.0000000E+000	0.0000000E+000	36.2586	0.0000000E+000	0.0000000E+000	0.0000000E+000	-36.2586	0.0000000E+000	0.0000000E+000	0.0000000E+000	-53.7414	0.0000000E+000	0.0000000E+000	0.0000000E+000	53.7414	0.73346	36.2586	-4.77355e-06
7944	4.47707	7.08517	8.38116	-57.7115	623.151	0.459529	-0.00173931	2.82768	2.0208	1	38	0.0144667	0.0017261	0	-2.83787e-06	0.512597	0.273701	9.00928	4.16474e-05	1.24965e-05	2.14374e-05	4.02006e-05	1.91199e-05	2.57301e-05	0.298201	0.0831065	1.67953	4.92817e-06	4.4736e-07	6.28452e-07	7.83959e-07	2.91239e-07	7.22808e-07	0.0637362	0.100865	0.119315	57.7115	2020.8	1276.93	2390.44	-32.2885	0.0000000E+000	0.0000000E+000	0.0000000E+000	32.2885	0.0000000E+000	0.0000000E+000	0.0000000E+000	-32.2885	0.0000000E+000	0.0000000E+000	0.0000000E+000	-57.7115	0.0000000E+000	0.0000000E+000	0.0000000E+000	57.7115	0.631894	32.2885	1.01803e-06
6307.74	4.788	8.70394	9.93396	-61.185	624.204	0.459557	-0.0019162	2.89888	2.22545	1	38	0.0143566	0.0014452	0	-3.77329e-06	0.670566	0.284979	8.96544	5.26702e-05	4.35616e-05	2.44323e-05	2.5219e-05	1.87699e-05	4.09273e-05	0.440681	0.058888	1.98819	6.01065e-06	1.54127e-06	7.3168e-07	5.92482e-07	5.72419e-07	6.12868e-07	0.0485187	0.0882005	0.100665	61.185	2225.45	1224.21	2539.94	-28.815	0.0000000E+000	0.0000000E+000	0.0000000E+000	28.815	0.0000000E+000	0.0000000E+000	0.0000000E+000	-28.815	0.0000000E+000	0.0000000E+000	0.0000000E+000	-61.185	0.0000000E+000	0.0000000E+000	0.0000000E+000	61.185	0.550096	28.815	-9.35413e-07
5011.6	5.17368	10.6731	11.8609	-64.1386	625.323	0.459554	-0.00263864	2.97546	2.40933	1	38	0.0136436	0.0011503	0	-5.46007e-06	0.525614	0.286256	9.52543	3.98494e-05	3.11037e-05	1.12315e-05	2.56036e-05	2.82924e-05	1.94265e-05	0.574747	0.079995	2.49804	6.24709e-06	1.29575e-06	6.9361e-07	6.95863e-07	4.55746e-07	1.10424e-06	0.0367759	0.075867	0.0843105	64.1386	2409.33	1167.9	2677.47	-25.8614	0.0000000E+000	0.0000000E+000	0.0000000E+000	25.8614	0.0000000E+000	0.0000000E+000	0.0000000E+000	-25.8614	0.0000000E+000	0.0000000E+000	0.0000000E+000	-64.1386	0.0000000E+000	0.0000000E+000	0.0000000E+000	64.1386	0.484742	25.8614	-1.68679e-06
3981.28	5.66933	13.0728	14.2492	-66.5549	626.428	0.459517	-0.00265168	3.05793	2.57386	1	38	0.012965	0.000909876	0	-5.75424e-06	0.531887	0.222184	10.0353	3.57923e-05	2.17719e-05	3.63883e-05	3.12875e-05	1.55912e-05	1.00385e-05	0.69251	0.149964	3.17592	5.87036e-06	1.68091e-06	8.76734e-07	8.85793e-07	6.55002e-07	2.49727e-07	0.0279222	0.0643854	0.0701792	66.5549	2573.86	1116.21	2805.48	-23.4451	0.0000000E+000	0.0000000E+000	0.0000000E+000	23.4451	0.0000000E+000	0.0000000E+000	0.0000000E+000	-23.4451	0.0000000E+000	0.0000000E+000	0.0000000E+000	-66.5549	0.0000000E+000	0.0000000E+000	0.0000000E+000	66.5549	0.433672	23.4451	-2.94165e-07
3163.04	6.35385	16.0073	17.2222	-68.3501	627.756	0.459535	-0.00220482	3.14339	2.71554	1	38	0.0139791	0.000811691	0	-5.94978e-06	0.49328	0.356403	9.14776	1.79566e-05	2.88429e-05	2.24931e-05	2.88669e-05	3.17145e-05	2.67572e-05	0.778457	0.117217	3.46826	5.76552e-06	2.26811e-06	5.01764e-07	5.83091e-07	6.90542e-07	4.45407e-07	0.021422	0.0539685	0.0580647	68.3501	2715.54	1077.89	2921.64	-21.6499	0.0000000E+000	0.0000000E+000	0.0000000E+000	21.6499	0.0000000E+000	0.0000000E+000	0.0000000E+000	-21.6499	0.0000000E+000	0.0000000E+000	0.0000000E+000	-68.3501	0.0000000E+000	0.0000000E+000	0.0000000E+000	68.3501	0.396935	21.6499	-1.95541e-07
2512.41	7.16707	19.5951	20.8647	-69.9096	628.861	0.459529	-0.00269637	3.23282	2.85137	1	38	0.0136137	0.000652476	0	-6.47425e-06	0.571254	0.23371	9.32817	5.02774e-05	2.98594e-05	1.49697e-05	3.81152e-05	1.79334e-05	1.72102e-05	0.724415	0.161781	4.50823	3.87198e-06	2.17041e-06	4.55281e-07	1.31033e-06	3.68001e-07	3.88268e-07	0.0164633	0.0450115	0.0479278	69.9096	2851.37	1042.91	3036.11	-20.0904	0.0000000E+000	0.0000000E+000	0.0000000E+000	20.0904	0.0000000E+000	0.0000000E+000	0.0000000E+000	-20.0904	0.0000000E+000	0.0000000E+000	0.0000000E+000	-69.9096	0.0000000E+000	0.0000000E+000	0.0000000E+000	69.9096	0.365757	20.0904	-5.24465e-07
1995.64	8.23211	23.8815	25.2605	-70.9806	629.967	0.459538	-0.00276154	3.33946	2.9848	1	38	0.013352	0.00052857	0	-7.42323e-06	0.475198	0.333535	9.44488	2.39949e-05	2.85226e-05	2.30502e-05	2.64167e-05	2.11251e-05	2.41169e-05	0.787997	0.186247	5.47549	3.20589e-06	1.84153e-06	1.95082e-07	1.62635e-06	6.21984e-07	6.08126e-07	0.0129011	0.0374263	0.0395874	70.9806	2984.8	1028.88	3157.15	-19.0194	0.0000000E+000	0.0000000E+000	0.0000000E+000	19.0194	0.0000000E+000	0.0000000E+000	0.0000000E+000	-19.0194	0.0000000E+000	0.0000000E+000	0.0000000E+000	-70.9806	0.0000000E+000	0.0000000E+000	0.0000000E+000	70.9806	0.344707	19.0194	-9.4898e-07
1584.49	9.60515	29.1672	30.708	-71.7726	631.074	0.459518	-0.00245246	3.44378	3.10685	1	38	0.013196	0.000429725	0	-7.94355e-06	0.4608	0.338756	9.6761	2.3512e-05	2.76714e-05	1.78857e-05	2.24176e-05	2.80855e-05	2.25656e-05	0.959319	0.117734	6.6606	2.80901e-06	1.766e-06	4.54311e-07	1.7866e-06	1.20431e-06	8.41255e-07	0.0101859	0.0309307	0.0325648	71.7726	3106.85	1023.13	3270.98	-18.2274	0.0000000E+000	0.0000000E+000	0.0000000E+000	18.2274	0.0000000E+000	0.0000000E+000	0.0000000E+000	-18.2274	0.0000000E+000	0.0000000E+000	0.0000000E+000	-71.7726	0.0000000E+000	0.0000000E+000	0.0000000E+000	71.7726	0.329314	18.2274	-5.20329e-07
1258.79	11.3754	35.591	37.3647	-72.2754	632.433	0.459531	-0.000279774	3.55244	3.22318	1	39	0.0147987	0.00039606	0	-8.01e-06	0.562923	0.267907	8.5051	5.1116e-05	3.25033e-05	2.74445e-05	2.17508e-05	2.36021e-05	3.38441e-05	1.28204	0.0965654	3.29153	4.58693e-06	2.05979e-06	3.89657e-07	3.68948e-07	2.63428e-07	2.57264e-07	0.00814786	0.0254928	0.0267633	72.2754	3223.18	1030.17	3383.81	-17.7246	0.0000000E+000	0.0000000E+000	0.0000000E+000	17.7246	0.0000000E+000	0.0000000E+000	0.0000000E+000	-17.7246	0.0000000E+000	0.0000000E+000	0.0000000E+000	-72.2754	0.0000000E+000	0.0000000E+000	0.0000000E+000	72.2754	0.319614	17.7246	-6.64453e-08
999.682	13.5643	43.2545	45.3314	-72.5889	633.54	0.459537	-0.000417326	3.68068	3.35112	1	39	0.0140833	0.000310675	0	-7.98839e-06	0.538225	0.270905	9.07472	1.13497e-05	2.99068e-05	2.34925e-05	4.11156e-05	2.99734e-05	2.91776e-05	1.18676	0.157494	4.27961	2.88619e-06	2.05934e-06	2.20945e-07	8.10279e-07	2.6314e-07	4.15943e-07	0.00660084	0.021049	0.0220597	72.5889	3351.12	1050.89	3512.04	-17.4111	0.0000000E+000	0.0000000E+000	0.0000000E+000	17.4111	0.0000000E+000	0.0000000E+000	0.0000000E+000	-17.4111	0.0000000E+000	0.0000000E+000	0.0000000E+000	-72.5889	0.0000000E+000	0.0000000E+000	0.0000000E+000	72.5889	0.313594	17.4111	2.16078e-08
794.239	16.2668	52.4467	54.9115	-72.7683	634.646	0.459513	-0.000103279	3.82076	3.48547	1	39	0.0136478	0.000248541	0	-8.26591e-06	0.540489	0.442475	9.17269	5.02255e-05	1.99853e-05	2.77352e-05	2.47326e-05	2.44101e-05	1.42861e-05	1.21527	0.16731	5.24405	2.34905e-06	1.48819e-06	3.71081e-07	1.01254e-06	2.77076e-07	1.89888e-07	0.00539481	0.0173937	0.0182111	72.7683	3485.47	1081.05	3649.27	-17.2317	0.0000000E+000	0.0000000E+000	0.0000000E+000	17.2317	0.0000000E+000	0.0000000E+000	0.0000000E+000	-17.2317	0.0000000E+000	0.0000000E+000	0.0000000E+000	-72.7683	0.0000000E+000	0.0000000E+000	0.0000000E+000	72.7683	0.310159	17.2317	-2.77523e-07
631.01	19.6493	63.5533	66.5216	-72.8195	635.751	0.459583	9.59606e-05	3.96868	3.62241	1	39	0.0133575	0.0002008	0	-8.02873e-06	0.571425	0.260015	9.2638	2.14658e-05	2.93517e-05	3.38697e-05	3.4926e-05	2.05699e-05	2.20984e-05	1.00627	0.129157	6.28677	1.4503e-06	9.42872e-07	4.57704e-07	7.86093e-07	2.84863e-07	2.66569e-07	0.0044404	0.0143619	0.0150327	72.8195	3622.41	1119.97	3791.59	-17.1805	0.0000000E+000	0.0000000E+000	0.0000000E+000	17.1805	0.0000000E+000	0.0000000E+000	0.0000000E+000	-17.1805	0.0000000E+000	0.0000000E+000	0.0000000E+000	-72.8195	0.0000000E+000	0.0000000E+000	0.0000000E+000	72.8195	0.309178	17.1805	2.37187e-07
501.122	24.1799	76.9645	80.6734	-72.5589	636.856	0.459557	-1.45642e-05	4.12654	3.75583	1	39	0.0131888	0.000163484	0	-8.13005e-06	0.481546	0.240835	9.61079	2.5205e-05	1.20774e-05	1.94646e-05	3.48183e-05	1.8357e-05	2.94969e-05	1.02006	0.270112	8.11714	1.22878e-06	7.45899e-07	2.79434e-07	6.85214e-07	1.39772e-07	2.67933e-07	0.0037153	0.0118258	0.0123957	72.5589	3755.83	1179.97	3936.82	-17.4411	0.0000000E+000	0.0000000E+000	0.0000000E+000	17.4411	0.0000000E+000	0.0000000E+000	0.0000000E+000	-17.4411	0.0000000E+000	0.0000000E+000	0.0000000E+000	-72.5589	0.0000000E+000	0.0000000E+000	0.0000000E+000	72.5589	0.31417	17.4411	-1.01324e-07
398.089	29.3184	93.0183	97.5293	-72.5057	637.964	0.45955	-0.000308113	4.29805	3.90965	1	39	0.0130811	0.000134125	0	-8.21755e-06	0.619541	0.228577	9.75299	2.0767e-05	3.14824e-05	3.56566e-05	3.90126e-05	2.05429e-05	3.01843e-05	1.14332	0.256438	9.96645	9.98817e-07	5.73753e-07	3.47627e-07	6.92717e-07	3.08697e-07	3.7681e-07	0.00308226	0.00977908	0.0102533	72.5057	3909.65	1232.28	4099.25	-17.4943	0.0000000E+000	0.0000000E+000	0.0000000E+000	17.4943	0.0000000E+000	0.0000000E+000	0.0000000E+000	-17.4943	0.0000000E+000	0.0000000E+000	0.0000000E+000	-72.5057	0.0000000E+000	0.0000000E+000	0.0000000E+000	72.5057	0.31519	17.4943	-8.74988e-08
316.316	35.7663	112.143	117.708	-72.3107	639.068	0.459562	-0.000176715	4.48671	4.07246	1	39	0.0130073	0.000110505	0	-8.22119e-06	0.521157	0.266157	9.69174	2.4011e-05	2.64916e-05	1.75975e-05	2.47856e-05	2.82248e-05	2.83901e-05	1.04422	0.361025	11.863	8.05858e-07	3.9409e-07	1.63085e-07	4.85308e-07	1.70153e-07	2.86017e-07	0.00258143	0.0080939	0.00849559	72.3107	4072.46	1298.85	4274.57	-17.6893	0.0000000E+000	0.0000000E+000	0.0000000E+000	17.6893	0.0000000E+000	0.0000000E+000	0.0000000E+000	-17.6893	0.0000000E+000	0.0000000E+000	0.0000000E+000	-72.3107	0.0000000E+000	0.0000000E+000	0.0000000E+000	72.3107	0.318936	17.6893	-3.63675e-09
251.206	44.1556	135.071	142.105	-71.8971	640.173	0.459558	-0.000137763	4.69059	4.23772	1	39	0.0129647	9.12332e-05	0	-8.13047e-06	0.578889	0.345199	9.71201	3.79886e-05	2.83197e-05	3.01251e-05	2.60101e-05	3.50669e-05	1.68566e-05	1.20506	0.463553	14.2449	6.9439e-07	4.0484e-07	2.222e-07	4.82868e-07	3.06502e-07	1.54357e-07	0.00218658	0.0066887	0.00703704	71.8971	4237.72	1385.34	4458.41	-18.1029	0.0000000E+000	0.0000000E+000	0.0000000E+000	18.1029	0.0000000E+000	0.0000000E+000	0.0000000E+000	-18.1029	0.0000000E+000	0.0000000E+000	0.0000000E+000	-71.8971	0.0000000E+000	0.0000000E+000	0.0000000E+000	71.8971	0.326906	18.1029	9.07169e-08
199.553	54.7207	162.675	171.632	-71.408	641.282	0.459577	-0.000209333	4.90277	4.4044	1	39	0.0129357	7.53693e-05	0	-8.2628e-06	0.617734	0.307017	9.68351	4.29395e-05	1.57809e-05	2.68273e-05	4.18665e-05	2.98155e-05	1.50425e-05	1.16004	0.616006	17.5344	6.25294e-07	2.45915e-07	1.82055e-07	2.83907e-07	3.60452e-07	1.75479e-07	0.00185762	0.00552237	0.00582644	71.408	4404.4	1481.56	4646.91	-18.592	0.0000000E+000	0.0000000E+000	0.0000000E+000	18.592	0.0000000E+000	0.0000000E+000	0.0000000E+000	-18.592	0.0000000E+000	0.0000000E+000	0.0000000E+000	-71.408	0.0000000E+000	0.0000000E+000	0.0000000E+000	71.408	0.336381	18.592	-1.32329e-07
158.529	67.6621	194.999	206.405	-70.8639	642.392	0.459547	-0.00013329	5.14848	4.59521	1	39	0.0129109	6.25516e-05	0	-8.35313e-06	0.590886	0.191298	9.60182	2.61368e-05	2.52067e-05	3.64543e-05	3.56586e-05	2.39965e-05	3.01438e-05	1.25927	0.476016	20.4794	4.7918e-07	3.77799e-07	2.55085e-07	1.54685e-07	1.6719e-07	2.90535e-07	0.00158821	0.00457714	0.00484485	70.8639	4595.21	1594.48	4863.98	-19.1361	0.0000000E+000	0.0000000E+000	0.0000000E+000	19.1361	0.0000000E+000	0.0000000E+000	0.0000000E+000	-19.1361	0.0000000E+000	0.0000000E+000	0.0000000E+000	-70.8639	0.0000000E+000	0.0000000E+000	0.0000000E+000	70.8639	0.346987	19.1361	-9.03355e-08
125.927	84.32	233.853	248.591	-70.1723	643.748	0.459553	-8.86841e-05	5.40454	4.78274	1	40	0.0131997	5.30982e-05	0	-8.32603e-06	0.879761	0.362625	15.0726	5.52885e-05	5.84007e-05	4.82814e-05	3.35883e-05	3.74326e-05	2.90265e-05	1.02613	0.102537	4.94282	3.72576e-07	2.79983e-07	4.69863e-08	2.64839e-07	3.69958e-08	4.86175e-08	0.00136446	0.0037842	0.00402268	70.1723	4782.74	1724.5	5084.14	-19.8277	0.0000000E+000	0.0000000E+000	0.0000000E+000	19.8277	0.0000000E+000	0.0000000E+000	0.0000000E+000	-19.8277	0.0000000E+000	0.0000000E+000	0.0000000E+000	-70.1723	0.0000000E+000	0.0000000E+000	0.0000000E+000	70.1723	0.360568	19.8277	2.71082e-08
99.9682	104.488	280.43	299.264	-69.5647	644.829	0.459578	-9.7532e-05	5.67719	4.98511	1	40	0.0131064	4.37956e-05	0	-8.38976e-06	1.04319	0.432834	15.2638	5.16626e-05	4.94109e-05	4.37895e-05	7.79085e-05	5.69302e-05	3.77007e-05	1.03301	0.193782	6.0434	3.6018e-07	1.68331e-07	6.46506e-08	1.62719e-07	6.53619e-08	5.12217e-08	0.00116669	0.00313124	0.00334153	69.5647	4985.11	1857.44	5319.91	-20.4353	0.0000000E+000	0.0000000E+000	0.0000000E+000	20.4353	0.0000000E+000	0.0000000E+000	0.0000000E+000	-20.4353	0.0000000E+000	0.0000000E+000	0.0000000E+000	-69.5647	0.0000000E+000	0.0000000E+000	0.0000000E+000	69.5647	0.372598	20.4353	-6.37353e-08
79.4157	131.344	336.08	360.834	-68.6539	645.901	0.4596	-0.000132439	5.96308	5.17299	1	40	0.0130766	3.624e-05	0	-8.40847e-06	0.725362	0.261056	14.8491	2.28182e-05	2.77194e-05	4.91585e-05	2.00089e-05	3.57094e-05	4.89283e-05	1.00839	0.0898396	7.19612	2.66042e-07	1.62789e-07	7.61673e-08	1.43925e-07	6.44676e-08	5.36243e-08	0.00100878	0.00258124	0.00277136	68.6539	5172.99	2021.66	5554	-21.3461	0.0000000E+000	0.0000000E+000	0.0000000E+000	21.3461	0.0000000E+000	0.0000000E+000	0.0000000E+000	-21.3461	0.0000000E+000	0.0000000E+000	0.0000000E+000	-68.6539	0.0000000E+000	0.0000000E+000	0.0000000E+000	68.6539	0.39081	21.3461	-1.87116e-08
63.0823	162.732	397.638	429.648	-67.7434	646.983	0.459573	-7.88871e-05	6.34491	5.43469	1	40	0.012972	3.01923e-05	0	-8.43699e-06	0.786092	0.411816	14.8805	4.31705e-05	1.39551e-05	4.16792e-05	3.5716e-05	3.65857e-05	4.87324e-05	1.01037	0.178181	8.55416	2.28542e-07	1.27609e-07	6.58972e-08	9.21195e-08	4.97866e-08	7.14103e-08	0.000881549	0.00215408	0.00232749	67.7434	5434.69	2224.13	5872.19	-22.2566	0.0000000E+000	0.0000000E+000	0.0000000E+000	22.2566	0.0000000E+000	0.0000000E+000	0.0000000E+000	-22.2566	0.0000000E+000	0.0000000E+000	0.0000000E+000	-67.7434	0.0000000E+000	0.0000000E+000	0.0000000E+000	67.7434	0.409246	22.2566	-2.85208e-08
50.1122	204.435	471.727	514.121	-66.5692	648.048	0.459564	-8.97652e-05	6.73265	5.66809	1	40	0.0129478	2.51844e-05	0	-8.44066e-06	0.834762	0.381968	15.7307	4.78063e-05	1.93921e-05	2.3351e-05	2.23148e-05	6.59683e-05	4.98343e-05	1.00259	0.353389	10.6973	1.84402e-07	9.86876e-08	2.85219e-08	8.23033e-08	7.95151e-08	5.69345e-08	0.000773439	0.00178468	0.00194507	66.5692	5668.09	2456.42	6177.48	-23.4308	0.0000000E+000	0.0000000E+000	0.0000000E+000	23.4308	0.0000000E+000	0.0000000E+000	0.0000000E+000	-23.4308	0.0000000E+000	0.0000000E+000	0.0000000E+000	-66.5692	0.0000000E+000	0.0000000E+000	0.0000000E+000	66.5692	0.433377	23.4308	-3.6677e-09
39.8089	255.125	555.098	610.919	-65.3163	649.117	0.459566	-7.93715e-05	7.20229	5.94623	1	40	0.0128948	2.11072e-05	0	-8.48266e-06	0.995346	0.305965	15.6805	4.1918e-05	4.33772e-05	6.5094e-05	6.75254e-05	3.91396e-05	1.51826e-05	1.23173	0.333614	12.5603	1.58868e-07	1.30229e-07	7.83871e-08	9.38967e-08	5.02519e-08	2.84506e-08	0.000683573	0.00148731	0.00163688	65.3163	5946.23	2732.91	6544.19	-24.6837	0.0000000E+000	0.0000000E+000	0.0000000E+000	24.6837	0.0000000E+000	0.0000000E+000	0.0000000E+000	-24.6837	0.0000000E+000	0.0000000E+000	0.0000000E+000	-65.3163	0.0000000E+000	0.0000000E+000	0.0000000E+000	65.3163	0.459604	24.6837	-4.20032e-08
31.6296	322.991	654.033	729.44	-63.7178	650.158	0.459566	-8.00421e-05	7.69356	6.18511	1	40	0.0129166	1.77075e-05	0	-8.52246e-06	0.689774	0.350985	15.0177	2.78728e-05	3.53557e-05	2.84171e-05	4.5683e-05	3.16288e-05	3.34368e-05	1.16039	0.30447	14.3769	1.06748e-07	1.19987e-07	3.32932e-08	8.29392e-08	4.68976e-08	6.18593e-08	0.000607032	0.0012292	0.00137092	63.7178	6185.11	3054.49	6898.23	-26.2822	0.0000000E+000	0.0000000E+000	0.0000000E+000	26.2822	0.0000000E+000	0.0000000E+000	0.0000000E+000	-26.2822	0.0000000E+000	0.0000000E+000	0.0000000E+000	-63.7178	0.0000000E+000	0.0000000E+000	0.0000000E+000	63.7178	0.493845	26.2823	-3.97953e-08
25.1206	405.809	766.151	866.988	-62.0911	651.226	0.459544	-7.95952e-05	8.26943	6.45771	1	40	0.0129195	1.49016e-05	0	-8.59516e-06	1.03841	0.689532	15.9699	5.2988e-05	7.18572e-05	4.16473e-05	4.7065e-05	4.46723e-05	3.58376e-05	1.45767	0.742665	18.1868	1.21079e-07	8.49053e-08	5.07404e-08	1.12807e-07	5.45882e-08	5.00598e-08	0.000539878	0.00101927	0.00115342	62.0911	6457.71	3420.47	7307.64	-27.9089	0.0000000E+000	0.0000000E+000	0.0000000E+000	27.9089	0.0000000E+000	0.0000000E+000	0.0000000E+000	-27.9089	0.0000000E+000	0.0000000E+000	0.0000000E+000	-62.0911	0.0000000E+000	0.0000000E+000	0.0000000E+000	62.0911	0.529672	27.9089	-7.27047e-08
19.9553	514.364	887.518	1025.8	-59.9055	652.296	0.459568	-7.60189e-05	8.98636	6.72691	1	40	0.0129094	1.25847e-05	0	-8.59698e-06	0.66627	0.395588	15.3943	3.54222e-05	4.13233e-05	3.0233e-05	2.98046e-05	2.36549e-05	2.44048e-05	1.16677	0.587046	20.6303	6.4739e-08	6.41982e-08	5.20013e-08	7.96822e-08	2.91615e-08	4.57818e-08	0.000488819	0.000843441	0.000974852	59.9055	6726.91	3898.6	7774.99	-30.0945	0.0000000E+000	0.0000000E+000	0.0000000E+000	30.0945	0.0000000E+000	0.0000000E+000	0.0000000E+000	-30.0945	0.0000000E+000	0.0000000E+000	0.0000000E+000	-59.9055	0.0000000E+000	0.0000000E+000	0.0000000E+000	59.9055	0.579553	30.0945	-1.81586e-09
15.8469	632.673	1008.57	1190.58	-57.9	653.337	0.459571	-8.44383e-05	9.958	7.14601	1	40	0.012847	1.07905e-05	0	-8.66916e-06	0.817608	0.453944	15.3882	1.96979e-05	5.93843e-05	3.03826e-05	4.51646e-05	4.81893e-05	3.15903e-05	1.58357	0.671762	24.1137	1.13866e-07	4.67891e-08	2.91263e-08	5.70647e-08	6.36065e-08	4.1716e-08	0.000446336	0.00071152	0.000839926	57.9	7146.01	4482.69	8435.64	-32.1	0.0000000E+000	0.0000000E+000	0.0000000E+000	32.1	0.0000000E+000	0.0000000E+000	0.0000000E+000	-32.1	0.0000000E+000	0.0000000E+000	0.0000000E+000	-57.9	0.0000000E+000	0.0000000E+000	0.0000000E+000	57.9	0.6273	32.1	-7.21774e-08
12.5873	799.593	1147.81	1398.87	-55.138	654.8	0.459591	-7.12688e-05	11.0158	7.41663	1	41	0.0128806	9.20791e-06	0	-8.59522e-06	0.671887	0.290592	13.8898	4.51297e-05	2.67162e-05	3.902e-05	3.87213e-05	2.46825e-05	2.65877e-05	0.933433	0.0885693	3.90676	6.99962e-08	3.49693e-08	2.06883e-08	2.61259e-08	6.23781e-09	7.24434e-09	0.000408618	0.000586569	0.000714865	55.138	7416.63	5166.6	9038.81	-34.862	0.0000000E+000	0.0000000E+000	0.0000000E+000	34.862	0.0000000E+000	0.0000000E+000	0.0000000E+000	-34.862	0.0000000E+000	0.0000000E+000	0.0000000E+000	-55.138	0.0000000E+000	0.0000000E+000	0.0000000E+000	55.138	0.696623	34.862	7.39403e-08
9.99682	999.684	1283.82	1627.13	-52.0929	655.859	0.459556	-7.52895e-05	12.4009	7.71998	1	41	0.0128888	7.92116e-06	0	-8.67885e-06	1.14509	0.691509	19.4916	9.19861e-05	3.16616e-05	5.41573e-05	5.8082e-05	3.76459e-05	5.2708e-05	0.782401	0.179759	6.25712	4.92808e-08	3.06008e-08	1.16597e-08	1.23785e-08	3.77612e-09	7.90161e-09	0.000377586	0.000484906	0.000614577	52.0929	7719.98	6011.38	9784.42	-37.9071	0.0000000E+000	0.0000000E+000	0.0000000E+000	37.9071	0.0000000E+000	0.0000000E+000	0.0000000E+000	-37.9071	0.0000000E+000	0.0000000E+000	0.0000000E+000	-52.0929	0.0000000E+000	0.0000000E+000	0.0000000E+000	52.0929	0.778679	37.9071	-8.36349e-08
7.93956	1227.48	1406.51	1866.81	-48.8884	657.068	0.459579	-7.58351e-05	14.2522	8.09035	1	41	0.0128702	6.8942e-06	0	-8.66433e-06	0.722681	0.387391	13.5513	3.80003e-05	4.71657e-05	4.18773e-05	2.15398e-05	2.1403e-05	3.80688e-05	0.870327	0.14314	5.10967	4.93475e-08	2.24017e-08	7.14275e-09	1.93282e-08	1.11301e-08	8.11643e-09	0.00035222	0.000403593	0.000535674	48.8884	8090.34	7060.53	10738	-41.1116	0.0000000E+000	0.0000000E+000	0.0000000E+000	41.1116	0.0000000E+000	0.0000000E+000	0.0000000E+000	-41.1116	0.0000000E+000	0.0000000E+000	0.0000000E+000	-48.8884	0.0000000E+000	0.0000000E+000	0.0000000E+000	48.8884	0.872711	41.1116	1.45189e-08
6.31058	1492.63	1511.51	2124.29	-45.3599	658.452	0.459605	-7.70485e-05	16.6856	8.4476	1	41	0.0128751	6.0609e-06	0	-8.67903e-06	0.679742	0.463086	13.7665	4.48305e-05	2.78199e-05	2.90247e-05	2.23647e-05	4.02851e-05	3.20132e-05	0.883876	0.182025	5.96901	4.23252e-08	2.57061e-08	6.84085e-09	1.30619e-08	9.20405e-09	7.40529e-09	0.00033077	0.000334952	0.000470746	45.3599	8447.6	8342.12	11872.4	-44.6401	0.0000000E+000	0.0000000E+000	0.0000000E+000	44.6401	0.0000000E+000	0.0000000E+000	0.0000000E+000	-44.6401	0.0000000E+000	0.0000000E+000	0.0000000E+000	-45.3599	0.0000000E+000	0.0000000E+000	0.0000000E+000	45.3599	0.987514	44.6401	-1.46991e-08
5.01283	1788.83	1589.06	2392.7	-41.6156	660.07	0.459577	-7.65682e-05	19.98	8.81254	1	41	0.0128907	5.38752e-06	0	-8.70262e-06	0.525624	0.209717	10.9942	1.53005e-05	2.00198e-05	3.21355e-05	2.31817e-05	3.68189e-05	2.41086e-05	0.918174	0.156046	5.32486	4.20545e-08	2.01825e-08	5.91942e-09	1.21316e-08	7.84462e-09	4.14659e-09	0.000312457	0.000277565	0.000417938	41.6156	8812.54	9920.37	13269.3	-48.3844	0.0000000E+000	0.0000000E+000	0.0000000E+000	48.3844	0.0000000E+000	0.0000000E+000	0.0000000E+000	-48.3844	0.0000000E+000	0.0000000E+000	0.0000000E+000	-41.6156	0.0000000E+000	0.0000000E+000	0.0000000E+000	41.6156	1.12571	48.3844	-2.35832e-08
3.9819	2104.04	1613.27	2651.34	-37.4792	661.992	0.459555	-7.2972e-05	24.7755	9.17287	1	41	0.0128731	4.85532e-06	0	-8.83897e-06	0.599693	0.280128	9.58089	2.09457e-05	3.42515e-05	2.07782e-05	2.83316e-05	4.36211e-05	1.85573e-05	0.927382	0.14301	5.3775	3.6742e-08	2.03495e-08	3.05816e-09	9.70037e-09	9.22632e-09	4.85825e-09	0.00029931	0.000229496	0.000377167	37.4792	9172.87	11963.3	15075.2	-52.5208	0.0000000E+000	0.0000000E+000	0.0000000E+000	52.5208	0.0000000E+000	0.0000000E+000	0.0000000E+000	-52.5208	0.0000000E+000	0.0000000E+000	0.0000000E+000	-37.4792	0.0000000E+000	0.0000000E+000	0.0000000E+000	37.4792	1.30421	52.5208	-1.36359e-07
3.16296	2417.82	1608.15	2903.79	-33.6289	664.301	0.459593	-7.24953e-05	31.2896	9.59675	1	41	0.0128897	4.43894e-06	0	-8.78888e-06	0.470862	0.267121	8.68439	1.09759e-05	1.52155e-05	2.87248e-05	3.57509e-05	2.04503e-05	1.96918e-05	0.884385	0.163153	5.28991	3.34341e-08	1.52525e-08	4.8266e-09	9.14968e-09	5.31064e-09	3.96403e-09	0.000286743	0.00019072	0.000344378	33.6289	9596.75	14428.5	17328.5	-56.3711	0.0000000E+000	0.0000000E+000	0.0000000E+000	56.3711	0.0000000E+000	0.0000000E+000	0.0000000E+000	-56.3711	0.0000000E+000	0.0000000E+000	0.0000000E+000	-33.6289	0.0000000E+000	0.0000000E+000	0.0000000E+000	33.6289	1.50347	56.3711	5.00943e-08
2.51085	2722.35	1545.76	3130.59	-29.588	667.104	0.459574	-7.18217e-05	41.0071	9.99747	1	41	0.0128728	4.11195e-06	0	-8.83833e-06	0.359966	0.18262	7.42943	2.10747e-05	1.72559e-05	2.37764e-05	1.87191e-05	1.45423e-05	1.1766e-05	0.831002	0.119641	5.01606	2.87849e-08	1.54439e-08	5.20041e-09	7.22189e-09	2.87679e-09	2.40577e-09	0.000277775	0.000157721	0.000319429	29.588	9997.47	17607.3	20247.6	-60.412	0.0000000E+000	0.0000000E+000	0.0000000E+000	60.412	0.0000000E+000	0.0000000E+000	0.0000000E+000	-60.412	0.0000000E+000	0.0000000E+000	0.0000000E+000	-29.588	0.0000000E+000	0.0000000E+000	0.0000000E+000	29.588	1.76118	60.412	-4.94448e-08
1.99553	2995.86	1465.38	3335.04	-26.0649	670.528	0.459587	-7.04699e-05	54.4265	10.5077	1	41	0.0128708	3.85925e-06	0	-8.97422e-06	0.324009	0.117418	6.50569	2.01759e-05	1.827e-05	9.4106e-06	1.79866e-05	1.36548e-05	1.67646e-05	0.765021	0.0941317	4.79656	2.51713e-08	1.3544e-08	1.88969e-09	5.32654e-09	1.77188e-09	3.71866e-09	0.000269351	0.000131749	0.000299846	26.0649	10507.7	21482.2	23914.4	-63.9351	0.0000000E+000	0.0000000E+000	0.0000000E+000	63.9351	0.0000000E+000	0.0000000E+000	0.0000000E+000	-63.9351	0.0000000E+000	0.0000000E+000	0.0000000E+000	-26.0649	0.0000000E+000	0.0000000E+000	0.0000000E+000	26.0649	2.04442	63.9351	-1.35896e-07
1.58533	3243.43	1355.18	3515.15	-22.6763	674.741	0.459578	-7.0546e-05	74.0807	11.0105	1	41	0.0128739	3.6624e-06	0	-9.16356e-06	0.292748	0.18366	5.84977	1.27743e-05	1.70552e-05	1.27386e-05	1.19127e-05	9.39796e-06	2.19966e-05	0.817817	0.145674	4.6928	2.66142e-08	1.12621e-08	1.79502e-09	5.79456e-09	2.51133e-09	2.9501e-09	0.000262491	0.000109675	0.000284483	22.6763	11010.5	26352.2	28559.9	-67.3237	0.0000000E+000	0.0000000E+000	0.0000000E+000	67.3237	0.0000000E+000	0.0000000E+000	0.0000000E+000	-67.3237	0.0000000E+000	0.0000000E+000	0.0000000E+000	-22.6763	0.0000000E+000	0.0000000E+000	0.0000000E+000	22.6763	2.39336	67.3237	-1.8934e-07
1.25825	3454.02	1234.64	3668.05	-19.6695	681.591	0.459591	-7.52522e-05	102.45	11.6071	1	42	0.012868	3.50812e-06	0	-9.09378e-06	0.352961	0.173914	5.46106	1.57864e-05	2.03063e-05	1.1256e-05	1.94154e-05	2.19135e-05	1.34123e-05	0.761379	0.0236232	1.36077	2.37844e-08	1.12259e-08	3.62634e-10	4.54229e-09	4.88808e-10	5.45811e-10	0.000256717	9.17636e-05	0.000272624	19.6695	11607.1	32471.7	34483.9	-70.3305	0.0000000E+000	0.0000000E+000	0.0000000E+000	70.3305	0.0000000E+000	0.0000000E+000	0.0000000E+000	-70.3305	0.0000000E+000	0.0000000E+000	0.0000000E+000	-19.6695	0.0000000E+000	0.0000000E+000	0.0000000E+000	19.6695	2.79759	70.3305	6.97791e-08
1.00006	3635.56	1113.37	3802.22	-17.0269	688.05	0.459571	-7.28399e-05	142.94	12.2562	1	42	0.0128682	3.38438e-06	0	-9.50807e-06	0.234197	0.132717	4.78656	9.59839e-06	9.30221e-06	1.13778e-05	1.09825e-05	1.46259e-05	1.02228e-05	0.742016	0.0318013	1.35968	2.24875e-08	1.04513e-08	4.21736e-10	3.88448e-09	3.26832e-10	3.20924e-10	0.000251476	7.7013e-05	0.000263004	17.0269	12256.2	40021.2	41855.8	-72.9731	0.0000000E+000	0.0000000E+000	0.0000000E+000	72.9731	0.0000000E+000	0.0000000E+000	0.0000000E+000	-72.9731	0.0000000E+000	0.0000000E+000	0.0000000E+000	-17.0269	0.0000000E+000	0.0000000E+000	0.0000000E+000	17.0269	3.26537	72.9731	-4.14294e-07
0.79456	3788.12	987.527	3914.72	-14.6113	696.066	0.459584	-7.26633e-05	202.836	12.9075	1	42	0.0128616	3.28544e-06	0	-9.36734e-06	0.196308	0.139139	4.08971	8.89433e-06	9.45454e-06	7.90445e-06	1.0135e-05	7.85841e-06	1.46016e-05	0.744737	0.0334076	1.3735	2.20409e-08	1.00352e-08	5.59794e-10	3.38565e-09	3.62743e-10	3.63534e-10	0.000247185	6.44388e-05	0.000255446	14.6113	12907.5	49512.6	51167.3	-75.3887	0.0000000E+000	0.0000000E+000	0.0000000E+000	75.3887	0.0000000E+000	0.0000000E+000	0.0000000E+000	-75.3887	0.0000000E+000	0.0000000E+000	0.0000000E+000	-14.6113	0.0000000E+000	0.0000000E+000	0.0000000E+000	14.6113	3.83596	75.3887	1.40733e-07
0.630906	3916.51	873.3	4012.69	-12.5701	706.064	0.45959	-7.43672e-05	288.863	13.6819	1	42	0.0128662	3.20638e-06	0	-9.62563e-06	0.159432	0.139888	3.61226	1.00313e-05	6.83077e-06	3.60233e-06	1.02755e-05	8.08453e-06	6.57279e-06	0.730901	0.0677315	1.62227	2.12444e-08	9.20045e-09	1.04019e-09	3.32788e-09	6.48801e-10	5.59743e-10	0.000243236	5.42365e-05	0.000249209	12.5701	13681.9	61359.7	62866.6	-77.4299	0.0000000E+000	0.0000000E+000	0.0000000E+000	77.4299	0.0000000E+000	0.0000000E+000	0.0000000E+000	-77.4299	0.0000000E+000	0.0000000E+000	0.0000000E+000	-12.5701	0.0000000E+000	0.0000000E+000	0.0000000E+000	12.5701	4.48473	77.4299	-2.58287e-07
0.500946	4024.45	762.289	4096.01	-10.7256	718.571	0.459581	-7.4233e-05	416.783	14.4354	1	42	0.0128677	3.14152e-06	0	-1.02488e-05	0.234675	0.0925439	3.29848	1.07885e-05	9.92472e-06	1.09572e-05	1.57938e-05	1.22339e-05	9.96015e-06	0.742557	0.0288831	1.46625	2.11405e-08	9.36668e-09	2.31043e-10	3.0183e-09	4.45933e-10	2.65286e-10	0.000239875	4.54358e-05	0.00024414	10.7256	14435.4	76210.4	77565.5	-79.2744	0.0000000E+000	0.0000000E+000	0.0000000E+000	79.2744	0.0000000E+000	0.0000000E+000	0.0000000E+000	-79.2744	0.0000000E+000	0.0000000E+000	0.0000000E+000	-10.7256	0.0000000E+000	0.0000000E+000	0.0000000E+000	10.7256	5.27943	79.2744	-6.23215e-07
0.398211	4114.67	663.646	4167.84	-9.16221	734.221	0.45958	-7.35854e-05	602.241	15.2694	1	42	0.0128722	3.08847e-06	0	-1.03767e-05	0.220368	0.0806779	2.84822	8.25354e-06	1.47734e-05	7.85223e-06	1.49328e-05	8.89672e-06	8.71259e-06	0.745037	0.0381178	1.46241	2.08933e-08	9.21168e-09	3.41376e-10	2.7734e-09	2.57037e-10	3.01622e-10	0.000236871	3.82044e-05	0.000239932	9.16221	15269.4	94671.4	95894.9	-80.8378	0.0000000E+000	0.0000000E+000	0.0000000E+000	80.8378	0.0000000E+000	0.0000000E+000	0.0000000E+000	-80.8378	0.0000000E+000	0.0000000E+000	0.0000000E+000	-9.16221	0.0000000E+000	0.0000000E+000	0.0000000E+000	9.16221	6.2001	80.8378	-1.27818e-07
0.316193	4186.97	571.294	4225.77	-7.76978	753.846	0.45957	-7.40094e-05	881.065	16.1034	1	42	0.0128659	3.04462e-06	0	-1.03033e-05	0.160413	0.0842328	2.61265	6.56897e-06	7.55957e-06	6.75488e-06	9.56488e-06	6.15578e-06	8.54416e-06	0.758244	0.0463517	1.50754	2.1082e-08	8.9905e-09	3.2801e-10	2.71189e-09	2.90228e-10	1.70314e-10	0.000234471	3.19925e-05	0.000236643	7.76978	16103.4	118020	119114	-82.2302	0.0000000E+000	0.0000000E+000	0.0000000E+000	82.2302	0.0000000E+000	0.0000000E+000	0.0000000E+000	-82.2302	0.0000000E+000	0.0000000E+000	0.0000000E+000	-7.76978	0.0000000E+000	0.0000000E+000	0.0000000E+000	7.76978	7.32892	82.2302	7.33163e-08
0.251222	4248.21	489.943	4276.37	-6.57881	778.465	0.459566	-7.62589e-05	1293.06	16.973	1	42	0.012865	3.0084e-06	0	-1.0788e-05	0.15414	0.0722561	2.3003	5.824e-06	9.99575e-06	4.09302e-06	1.09989e-05	6.906e-06	5.62901e-06	0.764602	0.0331853	1.57118	2.10783e-08	8.83621e-09	3.65108e-10	2.51091e-09	1.61998e-10	3.71222e-10	0.000232303	2.67914e-05	0.000233843	6.57881	16973	147170	148145	-83.4212	0.0000000E+000	0.0000000E+000	0.0000000E+000	83.4212	0.0000000E+000	0.0000000E+000	0.0000000E+000	-83.4212	0.0000000E+000	0.0000000E+000	0.0000000E+000	-6.57881	0.0000000E+000	0.0000000E+000	0.0000000E+000	6.57881	8.67083	83.4212	-4.84611e-07
0.199573	4298.83	419.197	4319.22	-5.56955	809.373	0.459569	-7.54294e-05	1902.39	17.9195	1	42	0.0128623	2.97792e-06	0	-1.20087e-05	0.135727	0.105134	2.0511	5.23668e-06	1.15656e-05	4.22137e-06	8.17477e-06	3.54557e-06	4.10785e-06	0.766583	0.0397695	1.51189	2.0918e-08	8.83178e-09	3.35993e-10	2.30204e-09	1.31678e-10	2.37242e-10	0.000230431	2.24703e-05	0.000231524	5.56955	17919.5	183763	184634	-84.4304	0.0000000E+000	0.0000000E+000	0.0000000E+000	84.4304	0.0000000E+000	0.0000000E+000	0.0000000E+000	-84.4304	0.0000000E+000	0.0000000E+000	0.0000000E+000	-5.56955	0.0000000E+000	0.0000000E+000	0.0000000E+000	5.56955	10.2549	84.4304	-1.22077e-06
0.158419	4342.69	356.485	4357.3	-4.6928	848.23	0.459576	-7.63646e-05	2818.21	18.8634	1	42	0.0128633	2.95212e-06	0	-1.34734e-05	0.107941	0.0654066	1.82721	2.85837e-06	6.56815e-06	3.29819e-06	7.33951e-06	3.62411e-06	6.10277e-06	0.776062	0.0282971	1.50846	2.10733e-08	8.66868e-09	1.80145e-10	2.339e-09	2.24414e-10	1.3337e-10	0.000228731	1.87761e-05	0.0002295	4.6928	18863.4	229794	230566	-85.3072	0.0000000E+000	0.0000000E+000	0.0000000E+000	85.3072	0.0000000E+000	0.0000000E+000	0.0000000E+000	-85.3072	0.0000000E+000	0.0000000E+000	0.0000000E+000	-4.6928	0.0000000E+000	0.0000000E+000	0.0000000E+000	4.6928	12.182	85.3072	-1.46471e-06
0.125939	4380.61	301.269	4390.95	-3.93423	897.027	0.459579	-7.80384e-05	4194.75	19.7469	1	42	0.0128666	2.93025e-06	0	-1.45937e-05	0.0967314	0.0633897	1.59499	2.32748e-06	8.46209e-06	3.35913e-06	5.88019e-06	2.1445e-06	3.67464e-06	0.789923	0.0395525	1.51412	2.13819e-08	8.51956e-09	1.29989e-10	2.40616e-09	3.23248e-10	1.78575e-10	0.000227204	1.56256e-05	0.000227741	3.93423	19746.8	287129	287808	-86.0658	0.0000000E+000	0.0000000E+000	0.0000000E+000	86.0658	0.0000000E+000	0.0000000E+000	0.0000000E+000	-86.0658	0.0000000E+000	0.0000000E+000	0.0000000E+000	-3.93423	0.0000000E+000	0.0000000E+000	0.0000000E+000	3.93423	14.5405	86.0658	-1.12024e-06
0.0999518	4410.89	252.984	4418.14	-3.28257	958.428	0.459584	-7.5617e-05	6294.13	20.6369	1	42	0.0128645	2.91175e-06	0	-1.51537e-05	0.110169	0.0733576	1.51817	3.40878e-06	9.18614e-06	3.35694e-06	7.26222e-06	2.21966e-06	2.98231e-06	0.779826	0.0479882	1.51822	2.09867e-08	8.33216e-09	1.74952e-10	2.33922e-09	2.22136e-10	2.86063e-10	0.000225968	1.29603e-05	0.00022634	3.28257	20636.9	359813	360405	-86.7174	0.0000000E+000	0.0000000E+000	0.0000000E+000	86.7174	0.0000000E+000	0.0000000E+000	0.0000000E+000	-86.7174	0.0000000E+000	0.0000000E+000	0.0000000E+000	-3.28257	0.0000000E+000	0.0000000E+000	0.0000000E+000	3.28257	17.4354	86.7174	-5.59999e-07