File: Python/Data/RDE/240223-OCV-EIS-Fe2Fe3_5mM-HCl1M-2000RPM-Ag_AgCl_BLF8-GC-RDE-1minRestVSEoc-3ppf-14p1mVAmplitude_02_PEIS_C15.mpt
EC-Lab ASCII FILE
Nb header lines : 67

Potentio Electrochemical Impedance Spectroscopy

Run on channel : 15 (SN 19485)
User :
Electrode connection : standard
Potential control : Ewe
Ewe ctrl range : min = -1.00 V, max = 1.00 V
Ewe,I filtering : 50 kHz
Safety Limits :
	Do not start on E overload
Channel : Floating
Acquisition started on : 02/23/2024 14:14:06.635
Loaded Setting File :  NONE
Saved on :
	File : 240223-OCV-EIS-Fe2Fe3_5mM-HCl1M-2000RPM-Ag_AgCl_BLF8-GC-RDE-1minRestVSEoc-3ppf-14p1mVAmplitude_02_PEIS_C15.mpr
	Directory : C:\Data\mathias\RDE-RPM-variation\
	Host : 192.168.0.1
Device : VMP-300 (SN 0826)
Address : USB
EC-Lab for windows v11.52 (software)
Internet server v11.52 (firmware)
Command interpretor v11.52 (firmware)
Electrode material :
Initial state :
Electrolyte :
Comments :
Cable : special
Reference electrode : SCE Saturated Calomel Electrode (0.241 V)
Electrode surface area : 0.001 cm²
Characteristic mass : 0.001 g
Equivalent Weight : 0.000 g/eq.
Density : 0.000 g/cm3
Volume (V) : 0.001 cm³
Record EIS quality indicators
Cycle Definition : Charge/Discharge alternance
Mode                Single sine
E (V)               0.0000
vs.                 Eoc
tE (h:m:s)          0:01:0.0000
record              0
dI                  0.000
unit dI             mA
dt (s)              0.000
fi                  1.000
unit fi             MHz
ff                  100.000
unit ff             mHz
Nd                  10
Points              per decade
spacing             Logarithmic
Va (mV)             14.1
pw                  0.10
Na                  3
corr                0
E range min (V)     -1.000
E range max (V)     1.000
I Range             Auto
Bandwidth           8
nc cycles           0
goto Ns'            0
nr cycles           0
inc. cycle          1

freq/Hz	Re(Z)/Ohm	-Im(Z)/Ohm	|Z|/Ohm	Phase(Z)/deg	time/s	<Ewe>/V	<I>/mA	Cs/µF	Cp/µF	cycle number	I Range	|Ewe|/V	|I|/A	Ns	(Q-Qo)/mA.h	THD Ewe/%	NSD Ewe/%	NSR Ewe/%	|Ewe h2|/V	|Ewe h3|/V	|Ewe h4|/V	|Ewe h5|/V	|Ewe h6|/V	|Ewe h7|/V	THD I/%	NSD I/%	NSR I/%	|I h2|/A	|I h3|/A	|I h4|/A	|I h5|/A	|I h6|/A	|I h7|/A	Re(Y)/Ohm-1	Im(Y)/Ohm-1	|Y|/Ohm-1	Phase(Y)/deg	Re(C)/nF	Im(C)/nF	|C|/nF	Phase(C)/deg	Re(M)	Im(M)	|M|	Phase(M)/deg	Re(Permittivity)	Im(Permittivity)	|Permittivity|	Phase(Permittivity)/deg	Re(Resistivity)/Ohm.cm	Im(Resistivity)/Ohm.cm	|Resistivity|/Ohm.cm	Phase(Resistivity)/deg	Re(Conductivity)/mS/cm	Im(Conductivity)/mS/cm	|Conductivity|/mS/cm	Phase(Conductivity)/deg	Tan(Delta)	Loss Angle(Delta)/deg	dq/mA.h
1.00002e+06	3.55759	4.09025	5.42094	-48.9841	123.186	0.459642	-0.0126447	0.0389101	0.022152	1	38	0.011166	0.0020598	0	-4.555e-06	-1	-1	-1	0	0	0	0	0	0	-1	-1	-1	0	0	0	0	0	0	0.121062	0.139188	0.18447	48.9841	22.152	19.2672	29.3587	-41.0159	0.0000000E+000	0.0000000E+000	0.0000000E+000	41.0159	0.0000000E+000	0.0000000E+000	0.0000000E+000	-41.0159	0.0000000E+000	0.0000000E+000	0.0000000E+000	-48.9841	0.0000000E+000	0.0000000E+000	0.0000000E+000	48.9841	0.869773	41.0159	-4.555e-06
794333	3.58466	3.19527	4.80203	-41.713	124.198	0.459631	-0.00346344	0.0627062	0.0277635	1	38	0.0138715	0.00288867	0	-5.50997e-06	-1	-1	-1	0	0	0	0	0	0	-1	-1	-1	0	0	0	0	0	0	0.155452	0.138566	0.208245	41.713	27.7635	31.1469	41.7246	-48.287	0.0000000E+000	0.0000000E+000	0.0000000E+000	48.287	0.0000000E+000	0.0000000E+000	0.0000000E+000	-48.287	0.0000000E+000	0.0000000E+000	0.0000000E+000	-41.713	0.0000000E+000	0.0000000E+000	0.0000000E+000	41.713	1.12186	48.287	-9.5497e-07
630957	3.57127	2.51764	4.3695	-35.1828	125.345	0.459624	-0.00379483	0.10019	0.0332623	1	38	0.0144614	0.00330962	0	-9.13878e-06	-1	-1	-1	0	0	0	0	0	0	-1	-1	-1	0	0	0	0	0	0	0.187051	0.131866	0.228859	35.1828	33.2623	47.1824	57.7283	-54.8172	0.0000000E+000	0.0000000E+000	0.0000000E+000	54.8172	0.0000000E+000	0.0000000E+000	0.0000000E+000	-54.8172	0.0000000E+000	0.0000000E+000	0.0000000E+000	-35.1828	0.0000000E+000	0.0000000E+000	0.0000000E+000	35.1828	1.4185	54.8172	-3.62881e-06
501206	3.54108	2.00712	4.07035	-29.5449	126.492	0.459632	-0.00399033	0.158209	0.0384691	1	38	0.0145368	0.0035714	0	-7.67508e-06	-1	-1	-1	0	0	0	0	0	0	-1	-1	-1	0	0	0	0	0	0	0.213733	0.121146	0.245679	29.5449	38.4691	67.8696	78.0138	-60.4551	0.0000000E+000	0.0000000E+000	0.0000000E+000	60.4551	0.0000000E+000	0.0000000E+000	0.0000000E+000	-60.4551	0.0000000E+000	0.0000000E+000	0.0000000E+000	-29.5449	0.0000000E+000	0.0000000E+000	0.0000000E+000	29.5449	1.76426	60.4551	1.4637e-06
398103	3.49652	1.61602	3.8519	-24.8055	127.638	0.45961	-0.00353973	0.247387	0.0435433	1	38	0.0145242	0.00377064	0	-6.50799e-06	-1	-1	-1	0	0	0	0	0	0	-1	-1	-1	0	0	0	0	0	0	0.235659	0.108917	0.259612	24.8055	43.5433	94.2126	103.788	-65.1945	0.0000000E+000	0.0000000E+000	0.0000000E+000	65.1945	0.0000000E+000	0.0000000E+000	0.0000000E+000	-65.1945	0.0000000E+000	0.0000000E+000	0.0000000E+000	-24.8055	0.0000000E+000	0.0000000E+000	0.0000000E+000	24.8055	2.16365	65.1945	1.16709e-06
316230	3.45988	1.33967	3.71019	-21.1664	128.785	0.459631	-0.00399032	0.375681	0.0489805	1	38	0.0145712	0.00392735	0	-8.66951e-06	-1	-1	-1	0	0	0	0	0	0	-1	-1	-1	0	0	0	0	0	0	0.251345	0.0973208	0.269528	21.1664	48.9805	126.499	135.65	-68.8336	0.0000000E+000	0.0000000E+000	0.0000000E+000	68.8336	0.0000000E+000	0.0000000E+000	0.0000000E+000	-68.8336	0.0000000E+000	0.0000000E+000	0.0000000E+000	-21.1664	0.0000000E+000	0.0000000E+000	0.0000000E+000	21.1664	2.58264	68.8336	-2.16153e-06
251188	3.43609	1.15658	3.62552	-18.6031	129.932	0.459642	-0.00394936	0.547832	0.0557515	1	38	0.0145661	0.00401767	0	-3.28577e-06	-1	-1	-1	0	0	0	0	0	0	-1	-1	-1	0	0	0	0	0	0	0.261411	0.0879903	0.275823	18.6031	55.7515	165.633	174.764	-71.3969	0.0000000E+000	0.0000000E+000	0.0000000E+000	71.3969	0.0000000E+000	0.0000000E+000	0.0000000E+000	-71.3969	0.0000000E+000	0.0000000E+000	0.0000000E+000	-18.6031	0.0000000E+000	0.0000000E+000	0.0000000E+000	18.6031	2.97091	71.3969	5.38374e-06
199544	3.42815	1.02927	3.57933	-16.7119	131.079	0.459636	-0.00333863	0.774913	0.0640779	1	38	0.014568	0.00407004	0	-6.63123e-06	-1	-1	-1	0	0	0	0	0	0	-1	-1	-1	0	0	0	0	0	0	0.267581	0.0803388	0.279382	16.7119	64.0779	213.422	222.833	-73.2881	0.0000000E+000	0.0000000E+000	0.0000000E+000	73.2881	0.0000000E+000	0.0000000E+000	0.0000000E+000	-73.2881	0.0000000E+000	0.0000000E+000	0.0000000E+000	-16.7119	0.0000000E+000	0.0000000E+000	0.0000000E+000	16.7119	3.33066	73.2881	-3.34545e-06
158486	3.41992	0.976689	3.55665	-15.9387	132.226	0.459647	-0.00397914	1.02819	0.077536	1	38	0.0145698	0.00409649	0	-1.8183e-05	-1	-1	-1	0	0	0	0	0	0	-1	-1	-1	0	0	0	0	0	0	0.270355	0.0772102	0.281164	15.9387	77.536	271.495	282.35	-74.0613	0.0000000E+000	0.0000000E+000	0.0000000E+000	74.0613	0.0000000E+000	0.0000000E+000	0.0000000E+000	-74.0613	0.0000000E+000	0.0000000E+000	0.0000000E+000	-15.9387	0.0000000E+000	0.0000000E+000	0.0000000E+000	15.9387	3.50154	74.0613	-1.15518e-05
125909	3.4203	0.974048	3.5563	-15.8961	133.374	0.459638	-0.00289922	1.29772	0.0973525	1	38	0.0145332	0.00408661	0	-1.41084e-05	-1	-1	-1	0	0	0	0	0	0	-1	-1	-1	0	0	0	0	0	0	0.270439	0.0770167	0.281191	15.8961	97.3525	341.847	355.439	-74.1039	0.0000000E+000	0.0000000E+000	0.0000000E+000	74.1039	0.0000000E+000	0.0000000E+000	0.0000000E+000	-74.1039	0.0000000E+000	0.0000000E+000	0.0000000E+000	-15.8961	0.0000000E+000	0.0000000E+000	0.0000000E+000	15.8961	3.51143	74.1039	4.07455e-06
100004	3.43686	1.01208	3.58278	-16.4086	134.521	0.459623	-0.00277819	1.57249	0.125482	1	38	0.0145751	0.00406809	0	-1.18902e-05	0.470286	0.254949	8.84853	2.04916e-05	4.0747e-05	1.67902e-05	2.57594e-05	2.56891e-05	2.30153e-05	0.0627321	0.0277361	0.713741	1.69739e-06	1.33329e-06	4.02505e-07	2.63442e-07	6.96388e-07	6.55363e-07	0.267745	0.0788455	0.279113	16.4086	125.482	426.114	444.206	-73.5914	0.0000000E+000	0.0000000E+000	0.0000000E+000	73.5914	0.0000000E+000	0.0000000E+000	0.0000000E+000	-73.5914	0.0000000E+000	0.0000000E+000	0.0000000E+000	-16.4086	0.0000000E+000	0.0000000E+000	0.0000000E+000	16.4086	3.39582	73.5914	2.21823e-06
79433.3	3.4525	1.10146	3.62394	-17.6943	135.668	0.459634	-0.00280427	1.81907	0.168044	1	38	0.0145661	0.00401941	0	-1.21917e-05	0.479666	0.251842	8.85182	2.65319e-05	3.50179e-05	2.3875e-05	2.42402e-05	2.23516e-05	3.26987e-05	0.0508496	0.0300827	0.716328	1.17599e-06	1.0415e-06	4.65688e-07	5.74721e-07	6.55424e-07	3.26456e-07	0.262888	0.0838697	0.275943	17.6943	168.044	526.731	552.887	-72.3057	0.0000000E+000	0.0000000E+000	0.0000000E+000	72.3057	0.0000000E+000	0.0000000E+000	0.0000000E+000	-72.3057	0.0000000E+000	0.0000000E+000	0.0000000E+000	-17.6943	0.0000000E+000	0.0000000E+000	0.0000000E+000	17.6943	3.13449	72.3057	-3.01545e-07
63093.8	3.48861	1.23971	3.70233	-19.5631	136.815	0.459628	-0.00358257	2.03476	0.22814	1	38	0.0145958	0.00394233	0	-1.77323e-05	0.427044	0.32658	9.0322	2.17876e-05	3.27279e-05	2.62941e-05	1.44425e-05	2.40737e-05	1.90754e-05	0.0604808	0.0392954	0.746379	1.78406e-06	9.03172e-07	8.35236e-07	5.45114e-07	4.15378e-07	5.8334e-07	0.254508	0.0904417	0.2701	19.5631	228.14	642	681.331	-70.4369	0.0000000E+000	0.0000000E+000	0.0000000E+000	70.4369	0.0000000E+000	0.0000000E+000	0.0000000E+000	-70.4369	0.0000000E+000	0.0000000E+000	0.0000000E+000	-19.5631	0.0000000E+000	0.0000000E+000	0.0000000E+000	19.5631	2.81406	70.4369	-5.54051e-06
50122.5	3.52447	1.4296	3.80337	-22.0786	137.962	0.459621	-0.00445208	2.22112	0.313809	1	38	0.0145915	0.00383646	0	-2.30472e-05	0.360913	0.268963	8.89949	2.08047e-05	2.37062e-05	1.88683e-05	2.04956e-05	1.68115e-05	1.35122e-05	0.0632518	0.0282599	0.749092	9.51501e-07	1.61982e-06	6.67189e-07	8.79204e-07	7.4011e-07	4.61479e-07	0.243644	0.0988275	0.262924	22.0786	313.809	773.648	834.87	-67.9214	0.0000000E+000	0.0000000E+000	0.0000000E+000	67.9214	0.0000000E+000	0.0000000E+000	0.0000000E+000	-67.9214	0.0000000E+000	0.0000000E+000	0.0000000E+000	-22.0786	0.0000000E+000	0.0000000E+000	0.0000000E+000	22.0786	2.46535	67.9214	-5.31498e-06
39814.1	3.57074	1.67351	3.94345	-25.1112	139.109	0.459611	-0.00395122	2.38867	0.430189	1	38	0.0146112	0.00370519	0	-1.91961e-05	0.482418	0.178032	8.86074	2.66366e-05	2.57132e-05	1.55572e-05	3.05434e-05	1.89759e-05	4.05691e-05	0.0734787	0.0500326	0.785374	1.46427e-06	1.40884e-06	5.79361e-07	7.18876e-07	1.06203e-06	8.90008e-07	0.229618	0.107616	0.253585	25.1112	430.189	917.887	1013.7	-64.8888	0.0000000E+000	0.0000000E+000	0.0000000E+000	64.8888	0.0000000E+000	0.0000000E+000	0.0000000E+000	-64.8888	0.0000000E+000	0.0000000E+000	0.0000000E+000	-25.1112	0.0000000E+000	0.0000000E+000	0.0000000E+000	25.1112	2.13369	64.8888	3.8511e-06
31621.1	3.62183	2.00552	4.14001	-28.9747	140.256	0.459632	-0.00355277	2.50967	0.588932	1	38	0.0146396	0.00353611	0	-1.41311e-05	0.4574	0.27836	8.94607	2.97891e-05	1.64014e-05	4.27983e-05	1.747e-05	2.20241e-05	2.15853e-05	0.0635637	0.0549713	0.807358	1.04126e-06	1.00203e-06	1.04421e-06	7.13846e-07	4.90759e-07	5.44651e-07	0.211312	0.11701	0.241545	28.9747	588.932	1063.57	1215.74	-61.0253	0.0000000E+000	0.0000000E+000	0.0000000E+000	61.0253	0.0000000E+000	0.0000000E+000	0.0000000E+000	-61.0253	0.0000000E+000	0.0000000E+000	0.0000000E+000	-28.9747	0.0000000E+000	0.0000000E+000	0.0000000E+000	28.9747	1.80593	61.0253	5.06506e-06
25116.9	3.69705	2.41754	4.41732	-33.1811	141.404	0.459642	-0.0033759	2.62108	0.785074	1	38	0.0146815	0.00332362	0	-1.88146e-05	0.457234	0.192175	8.76049	2.70108e-05	3.47851e-05	3.0429e-05	1.50336e-05	2.40465e-05	1.94868e-05	0.0534279	0.0644319	0.852446	5.72884e-07	9.41279e-07	5.84625e-07	7.65945e-07	4.69707e-07	5.42894e-07	0.189469	0.123896	0.226382	33.1811	785.074	1200.58	1434.48	-56.8189	0.0000000E+000	0.0000000E+000	0.0000000E+000	56.8189	0.0000000E+000	0.0000000E+000	0.0000000E+000	-56.8189	0.0000000E+000	0.0000000E+000	0.0000000E+000	-33.1811	0.0000000E+000	0.0000000E+000	0.0000000E+000	33.1811	1.52926	56.8189	-4.68352e-06
19948.8	3.78833	2.94401	4.79777	-37.8517	142.551	0.459617	-0.00312642	2.70997	1.02038	1	38	0.014756	0.0030756	0	-1.95413e-05	0.433359	0.2219	8.73289	2.39578e-05	2.84585e-05	2.00753e-05	1.86956e-05	2.14828e-05	2.87757e-05	0.0722728	0.0487183	0.945177	9.65753e-07	1.40733e-06	5.9643e-07	1.0217e-06	5.04461e-07	4.48961e-07	0.164577	0.127897	0.20843	37.8517	1020.38	1313.02	1662.89	-52.1483	0.0000000E+000	0.0000000E+000	0.0000000E+000	52.1483	0.0000000E+000	0.0000000E+000	0.0000000E+000	-52.1483	0.0000000E+000	0.0000000E+000	0.0000000E+000	-37.8517	0.0000000E+000	0.0000000E+000	0.0000000E+000	37.8517	1.28679	52.1483	-7.26701e-07
15847.7	3.89766	3.60117	5.30662	-42.7359	143.698	0.459646	-0.00338337	2.78875	1.28429	1	38	0.0147557	0.00278062	0	-1.5904e-05	0.520563	0.240516	8.90591	1.71399e-05	1.64927e-05	1.82573e-05	4.42139e-05	4.21373e-05	2.64804e-05	0.109765	0.0371662	1.04644	2.01595e-06	1.0596e-06	1.00039e-06	1.45941e-06	4.85641e-07	5.94782e-07	0.13841	0.127882	0.188444	42.7359	1284.29	1390.02	1892.5	-47.2641	0.0000000E+000	0.0000000E+000	0.0000000E+000	47.2641	0.0000000E+000	0.0000000E+000	0.0000000E+000	-47.2641	0.0000000E+000	0.0000000E+000	0.0000000E+000	-42.7359	0.0000000E+000	0.0000000E+000	0.0000000E+000	42.7359	1.08233	47.2641	3.63729e-06
12590.9	4.03972	4.40834	5.97936	-47.4985	144.845	0.459633	-0.00348206	2.86739	1.55858	1	38	0.0148257	0.00247948	0	-1.25497e-05	0.410481	0.165587	8.67993	3.09489e-05	1.54078e-05	1.72048e-05	2.0922e-05	1.43198e-05	2.99121e-05	0.116198	0.0518515	1.15381	2.15369e-06	1.27802e-06	9.88985e-07	3.19094e-07	5.81466e-07	3.33168e-07	0.11299	0.123301	0.167242	47.4985	1558.58	1428.25	2114.01	-42.5015	0.0000000E+000	0.0000000E+000	0.0000000E+000	42.5015	0.0000000E+000	0.0000000E+000	0.0000000E+000	-42.5015	0.0000000E+000	0.0000000E+000	0.0000000E+000	-47.4985	0.0000000E+000	0.0000000E+000	0.0000000E+000	47.4985	0.91638	42.5015	3.35435e-06
10002.2	4.21904	5.40401	6.85592	-52.0199	145.991	0.459622	-0.00221595	2.94447	1.8294	1	38	0.0145864	0.00212756	0	-1.40081e-05	0.395969	0.205114	8.76492	2.2396e-05	2.41813e-05	2.43409e-05	1.87569e-05	1.912e-05	2.36268e-05	0.17803	0.0489169	1.38379	3.39772e-06	1.00312e-06	6.64688e-07	7.1708e-07	2.77617e-07	6.10706e-07	0.08976	0.11497	0.145859	52.0199	1829.4	1428.26	2320.91	-37.9801	0.0000000E+000	0.0000000E+000	0.0000000E+000	37.9801	0.0000000E+000	0.0000000E+000	0.0000000E+000	-37.9801	0.0000000E+000	0.0000000E+000	0.0000000E+000	-52.0199	0.0000000E+000	0.0000000E+000	0.0000000E+000	52.0199	0.780725	37.9801	-1.45846e-06
7944	4.45318	6.63692	7.99247	-56.1395	147.167	0.459488	-0.0032512	3.01866	2.08155	1	38	0.0146288	0.00183033	0	-1.363e-05	0.500451	0.38329	8.92514	2.89005e-05	3.68326e-05	1.98622e-05	2.97304e-05	2.02891e-05	2.82241e-05	0.252125	0.0762762	1.57224	4.29127e-06	6.38086e-07	6.11756e-07	9.28926e-07	8.7498e-07	4.56614e-07	0.0697122	0.103897	0.125118	56.1395	2081.55	1396.66	2506.69	-33.8605	0.0000000E+000	0.0000000E+000	0.0000000E+000	33.8605	0.0000000E+000	0.0000000E+000	0.0000000E+000	-33.8605	0.0000000E+000	0.0000000E+000	0.0000000E+000	-56.1395	0.0000000E+000	0.0000000E+000	0.0000000E+000	56.1395	0.670971	33.8605	3.78119e-07
6307.74	4.75331	8.14503	9.43056	-59.7328	148.222	0.459502	-0.00342437	3.0978	2.31081	1	38	0.0147256	0.00156148	0	-1.57444e-05	0.468637	0.259303	8.78983	2.34214e-05	3.58788e-05	3.37824e-05	1.814e-05	2.3505e-05	1.8917e-05	0.395572	0.0774218	1.84026	5.82786e-06	1.10791e-06	4.81695e-07	1.01282e-06	3.80579e-07	7.77966e-07	0.0534467	0.0915836	0.106038	59.7328	2310.81	1348.55	2675.53	-30.2672	0.0000000E+000	0.0000000E+000	0.0000000E+000	30.2672	0.0000000E+000	0.0000000E+000	0.0000000E+000	-30.2672	0.0000000E+000	0.0000000E+000	0.0000000E+000	-59.7328	0.0000000E+000	0.0000000E+000	0.0000000E+000	59.7328	0.583584	30.2672	-2.1144e-06
5011.6	5.16344	9.97244	11.2299	-62.6262	149.341	0.459486	-0.0041375	3.18451	2.51127	1	38	0.0140773	0.00125355	0	-1.78379e-05	0.53714	0.327838	9.24488	5.06148e-05	1.99007e-05	2.08879e-05	2.44631e-05	1.96689e-05	2.49746e-05	0.557465	0.0635069	2.30148	6.83696e-06	1.08952e-06	4.88173e-07	3.49052e-07	3.94766e-07	4.28692e-07	0.0409437	0.0790769	0.089048	62.6262	2511.27	1300.26	2827.92	-27.3738	0.0000000E+000	0.0000000E+000	0.0000000E+000	27.3738	0.0000000E+000	0.0000000E+000	0.0000000E+000	-27.3738	0.0000000E+000	0.0000000E+000	0.0000000E+000	-62.6262	0.0000000E+000	0.0000000E+000	0.0000000E+000	62.6262	0.517771	27.3738	-2.09345e-06
3981.28	5.64339	12.2511	13.4884	-65.2671	150.447	0.459487	-0.00391035	3.26304	2.69185	1	38	0.0134247	0.000995279	0	-1.81627e-05	0.522893	0.318786	9.68855	2.8226e-05	3.12444e-05	2.53681e-05	2.89981e-05	2.58239e-05	1.7364e-05	0.655662	0.131996	2.93292	6.0626e-06	2.12188e-06	5.49047e-07	5.8935e-07	6.48095e-07	3.40881e-07	0.0310184	0.067337	0.0741378	65.2671	2691.85	1239.99	2963.72	-24.7329	0.0000000E+000	0.0000000E+000	0.0000000E+000	24.7329	0.0000000E+000	0.0000000E+000	0.0000000E+000	-24.7329	0.0000000E+000	0.0000000E+000	0.0000000E+000	-65.2671	0.0000000E+000	0.0000000E+000	0.0000000E+000	65.2671	0.460644	24.7329	-3.24874e-07
3163.04	6.24968	14.976	16.2277	-67.3486	151.553	0.459473	-0.00403883	3.35985	2.86151	1	38	0.0128892	0.000794269	0	-1.94762e-05	0.493999	0.284993	9.98621	2.51743e-05	1.37295e-05	1.98165e-05	3.32079e-05	2.19643e-05	3.01171e-05	0.599819	0.0730315	3.64506	4.07153e-06	1.88561e-06	4.25945e-07	8.19643e-07	9.66189e-07	4.92878e-07	0.0237325	0.0568696	0.0616229	67.3486	2861.51	1194.15	3100.69	-22.6514	0.0000000E+000	0.0000000E+000	0.0000000E+000	22.6514	0.0000000E+000	0.0000000E+000	0.0000000E+000	-22.6514	0.0000000E+000	0.0000000E+000	0.0000000E+000	-67.3486	0.0000000E+000	0.0000000E+000	0.0000000E+000	67.3486	0.417313	22.6514	-1.31347e-06
2512.41	7.09807	18.2509	19.5825	-68.7481	152.88	0.459505	-0.00360127	3.47093	3.01491	1	38	0.0137985	0.000704632	0	-1.97762e-05	0.551376	0.165144	9.43839	2.44251e-05	3.00331e-05	3.14119e-05	1.91669e-05	3.68142e-05	2.71701e-05	0.787733	0.151584	4.1439	4.74199e-06	2.18956e-06	7.07129e-07	1.24709e-06	8.14502e-07	6.511e-07	0.0185098	0.0475932	0.0510659	68.7481	3014.91	1172.55	3234.9	-21.2519	0.0000000E+000	0.0000000E+000	0.0000000E+000	21.2519	0.0000000E+000	0.0000000E+000	0.0000000E+000	-21.2519	0.0000000E+000	0.0000000E+000	0.0000000E+000	-68.7481	0.0000000E+000	0.0000000E+000	0.0000000E+000	68.7481	0.388917	21.2519	-3.00036e-07
1995.64	8.12977	22.3002	23.7359	-69.9702	153.986	0.459507	-0.00373533	3.57626	3.15672	1	38	0.0135591	0.000571249	0	-2.09567e-05	0.473827	0.289967	9.38804	2.43655e-05	2.37094e-05	3.82786e-05	2.11246e-05	1.53784e-05	2.23867e-05	0.816344	0.0790356	5.09311	3.58418e-06	2.17865e-06	6.98073e-07	1.65743e-06	4.42419e-07	4.9747e-07	0.01443	0.039582	0.0421303	69.9702	3156.72	1150.81	3359.95	-20.0298	0.0000000E+000	0.0000000E+000	0.0000000E+000	20.0298	0.0000000E+000	0.0000000E+000	0.0000000E+000	-20.0298	0.0000000E+000	0.0000000E+000	0.0000000E+000	-69.9702	0.0000000E+000	0.0000000E+000	0.0000000E+000	69.9702	0.36456	20.0298	-1.18052e-06
1584.49	9.43702	27.1973	28.788	-70.864	155.093	0.459498	-0.00379678	3.69322	3.29634	1	38	0.0133883	0.000465065	0	-2.24193e-05	0.567882	0.29254	9.67089	2.6671e-05	1.43826e-05	1.55938e-05	4.49413e-05	2.03376e-05	3.66597e-05	0.902566	0.208265	6.15973	2.98347e-06	2.08571e-06	6.63477e-07	1.52548e-06	7.83631e-07	5.91905e-07	0.0113871	0.0328173	0.0347367	70.864	3296.34	1143.78	3489.14	-19.136	0.0000000E+000	0.0000000E+000	0.0000000E+000	19.136	0.0000000E+000	0.0000000E+000	0.0000000E+000	-19.136	0.0000000E+000	0.0000000E+000	0.0000000E+000	-70.864	0.0000000E+000	0.0000000E+000	0.0000000E+000	70.864	0.346984	19.136	-1.46259e-06
1258.79	11.0394	33.0524	34.8473	-71.5308	156.452	0.459499	-0.000572576	3.82528	3.44138	1	39	0.0151082	0.000433556	0	-2.32533e-05	0.621832	0.244756	8.52004	5.52039e-05	5.10583e-05	2.38989e-05	2.74974e-05	2.77463e-05	2.01207e-05	1.23183	0.109882	3.08332	4.67336e-06	2.47436e-06	1.52708e-07	4.53647e-07	2.95325e-07	3.0239e-07	0.00909095	0.0272186	0.0286967	71.5308	3441.38	1149.41	3628.26	-18.4692	0.0000000E+000	0.0000000E+000	0.0000000E+000	18.4692	0.0000000E+000	0.0000000E+000	0.0000000E+000	-18.4692	0.0000000E+000	0.0000000E+000	0.0000000E+000	-71.5308	0.0000000E+000	0.0000000E+000	0.0000000E+000	71.5308	0.333997	18.4692	-8.33943e-07
999.682	13.1537	40.1919	42.2895	-71.8782	157.559	0.459473	-0.000417697	3.96114	3.57792	1	39	0.0143463	0.000339239	0	-2.35821e-05	0.538178	0.20554	8.83214	2.77233e-05	3.32959e-05	3.17945e-05	3.17388e-05	2.77991e-05	2.26328e-05	1.09909	0.121461	3.88676	2.84937e-06	2.09853e-06	3.18326e-07	9.96504e-07	3.13619e-07	2.99142e-07	0.00735497	0.0224736	0.0236465	71.8782	3577.92	1170.95	3764.66	-18.1218	0.0000000E+000	0.0000000E+000	0.0000000E+000	18.1218	0.0000000E+000	0.0000000E+000	0.0000000E+000	-18.1218	0.0000000E+000	0.0000000E+000	0.0000000E+000	-71.8782	0.0000000E+000	0.0000000E+000	0.0000000E+000	71.8782	0.327272	18.1218	-3.28845e-07
794.239	15.7235	48.7213	51.1957	-72.1139	158.665	0.459484	-0.000205601	4.11291	3.72496	1	39	0.0138718	0.000270956	0	-2.35102e-05	0.42912	0.284493	8.81991	2.00686e-05	2.99297e-05	2.38032e-05	2.20639e-05	1.27491e-05	2.43912e-05	1.0092	0.158297	4.75521	2.12675e-06	1.33107e-06	2.30434e-07	9.75645e-07	1.81651e-07	2.76383e-07	0.00599906	0.0185889	0.0195329	72.1139	3724.96	1202.13	3914.13	-17.8861	0.0000000E+000	0.0000000E+000	0.0000000E+000	17.8861	0.0000000E+000	0.0000000E+000	0.0000000E+000	-17.8861	0.0000000E+000	0.0000000E+000	0.0000000E+000	-72.1139	0.0000000E+000	0.0000000E+000	0.0000000E+000	72.1139	0.322724	17.8861	7.19623e-08
631.01	18.9409	58.938	61.9068	-72.1842	159.77	0.459499	-0.000341658	4.27945	3.87885	1	39	0.0135719	0.000219232	0	-2.37698e-05	0.523422	0.175514	9.1761	3.11666e-05	2.64912e-05	3.14909e-05	3.32222e-05	1.65712e-05	2.61018e-05	1.0717	0.188147	5.82482	1.63044e-06	1.16251e-06	3.37514e-07	1.04576e-06	2.17198e-07	3.25977e-07	0.00494224	0.0153787	0.0161533	72.1842	3878.85	1246.55	4074.23	-17.8158	0.0000000E+000	0.0000000E+000	0.0000000E+000	17.8158	0.0000000E+000	0.0000000E+000	0.0000000E+000	-17.8158	0.0000000E+000	0.0000000E+000	0.0000000E+000	-72.1842	0.0000000E+000	0.0000000E+000	0.0000000E+000	72.1842	0.32137	17.8158	-2.59604e-07
501.122	22.9548	71.3162	74.9194	-72.158	160.875	0.459519	-0.000281831	4.45336	4.0353	1	39	0.0133808	0.000178602	0	-2.37301e-05	0.522506	0.321424	9.19748	1.54348e-05	3.5563e-05	2.81787e-05	3.45345e-05	2.2112e-05	1.76789e-05	1.07352	0.224246	7.26239	1.37466e-06	8.08782e-07	2.79641e-07	8.87779e-07	2.92439e-07	2.98489e-07	0.00408963	0.0127057	0.0133477	72.158	4035.3	1298.86	4239.18	-17.842	0.0000000E+000	0.0000000E+000	0.0000000E+000	17.842	0.0000000E+000	0.0000000E+000	0.0000000E+000	-17.842	0.0000000E+000	0.0000000E+000	0.0000000E+000	-72.158	0.0000000E+000	0.0000000E+000	0.0000000E+000	72.158	0.321873	17.842	3.96324e-08
398.089	27.8992	86.071	90.4797	-72.0403	161.983	0.459577	-0.000372786	4.64497	4.20334	1	39	0.0132659	0.000146617	0	-2.38262e-05	0.460486	0.194529	9.44831	2.04591e-05	3.46678e-05	2.09495e-05	2.3092e-05	2.76397e-05	1.36881e-05	0.897305	0.229315	8.72547	8.73699e-07	6.32292e-07	1.80011e-07	4.88186e-07	3.02519e-07	3.93566e-07	0.00340792	0.0105137	0.0110522	72.0403	4203.34	1362.48	4418.64	-17.9597	0.0000000E+000	0.0000000E+000	0.0000000E+000	17.9597	0.0000000E+000	0.0000000E+000	0.0000000E+000	-17.9597	0.0000000E+000	0.0000000E+000	0.0000000E+000	-72.0403	0.0000000E+000	0.0000000E+000	0.0000000E+000	72.0403	0.324142	17.9597	-9.61114e-08
316.316	34.37	103.69	109.238	-71.6612	163.087	0.45953	-0.000155468	4.85247	4.3721	1	39	0.0131816	0.000120669	0	-2.39629e-05	0.606355	0.329982	9.47967	2.7571e-05	2.9088e-05	3.71011e-05	3.36157e-05	2.51017e-05	2.41213e-05	0.991613	0.366661	10.5407	7.98285e-07	3.80209e-07	1.79681e-07	6.32286e-07	1.23683e-07	3.35853e-07	0.00288028	0.00868943	0.00915435	71.6612	4372.1	1449.22	4606.03	-18.3388	0.0000000E+000	0.0000000E+000	0.0000000E+000	18.3388	0.0000000E+000	0.0000000E+000	0.0000000E+000	-18.3388	0.0000000E+000	0.0000000E+000	0.0000000E+000	-71.6612	0.0000000E+000	0.0000000E+000	0.0000000E+000	71.6612	0.331469	18.3388	-1.36669e-07
251.206	41.9749	124.755	131.627	-71.404	164.192	0.459495	-0.00018063	5.07848	4.56203	1	39	0.0131267	9.97267e-05	0	-2.41484e-05	0.337631	0.240228	9.50921	1.64698e-05	1.53804e-05	1.60617e-05	2.3573e-05	1.27637e-05	1.1906e-05	1.10547	0.506169	13.2779	7.27194e-07	5.73935e-07	1.98978e-07	3.40088e-07	2.81671e-07	2.38237e-07	0.00242271	0.00720059	0.00759724	71.404	4562.03	1534.94	4813.33	-18.596	0.0000000E+000	0.0000000E+000	0.0000000E+000	18.596	0.0000000E+000	0.0000000E+000	0.0000000E+000	-18.596	0.0000000E+000	0.0000000E+000	0.0000000E+000	-71.404	0.0000000E+000	0.0000000E+000	0.0000000E+000	71.404	0.336459	18.596	-1.85534e-07
199.553	52.3542	149.232	158.149	-70.6679	165.301	0.459528	-0.000167025	5.3444	4.75871	1	39	0.0130808	8.2712e-05	0	-2.41145e-05	0.7619	0.273681	9.42754	4.16316e-05	4.36476e-05	3.1408e-05	3.74659e-05	2.50167e-05	3.70298e-05	1.08845	0.735598	15.3797	6.08322e-07	3.36334e-07	1.88947e-07	2.64824e-07	3.47525e-07	2.00428e-07	0.00209323	0.00596662	0.00632315	70.6679	4758.71	1669.47	5043.06	-19.3321	0.0000000E+000	0.0000000E+000	0.0000000E+000	19.3321	0.0000000E+000	0.0000000E+000	0.0000000E+000	-19.3321	0.0000000E+000	0.0000000E+000	0.0000000E+000	-70.6679	0.0000000E+000	0.0000000E+000	0.0000000E+000	70.6679	0.350824	19.3321	3.3944e-08
158.529	63.8937	179.883	190.893	-70.4451	166.411	0.459535	-0.000375583	5.58113	4.95587	1	39	0.0130682	6.84583e-05	0	-2.41782e-05	0.469424	0.29192	9.70871	2.30243e-05	2.53649e-05	1.92682e-05	2.97917e-05	1.03637e-05	2.90638e-05	1.21983	0.585912	19.2019	4.41679e-07	3.09419e-07	2.6519e-07	3.23643e-07	3.06631e-07	3.0195e-07	0.00175339	0.00493638	0.00523853	70.4451	4955.87	1760.31	5259.22	-19.5549	0.0000000E+000	0.0000000E+000	0.0000000E+000	19.5549	0.0000000E+000	0.0000000E+000	0.0000000E+000	-19.5549	0.0000000E+000	0.0000000E+000	0.0000000E+000	-70.4451	0.0000000E+000	0.0000000E+000	0.0000000E+000	70.4451	0.355196	19.5549	-6.37329e-08
125.927	78.4516	215.463	229.301	-69.9931	167.515	0.45955	-0.000482938	5.86582	5.1792	1	39	0.0130546	5.69322e-05	0	-2.43003e-05	0.501325	0.239368	9.55254	3.53265e-05	1.37318e-05	1.91117e-05	2.90035e-05	2.97767e-05	1.9622e-05	1.50149	0.623427	22.8502	4.32825e-07	2.96337e-07	1.59863e-07	3.90626e-07	3.75607e-07	2.67057e-07	0.00149207	0.00409789	0.00436107	69.9931	5179.2	1885.78	5511.83	-20.0069	0.0000000E+000	0.0000000E+000	0.0000000E+000	20.0069	0.0000000E+000	0.0000000E+000	0.0000000E+000	-20.0069	0.0000000E+000	0.0000000E+000	0.0000000E+000	-69.9931	0.0000000E+000	0.0000000E+000	0.0000000E+000	69.9931	0.364106	20.0069	-1.22035e-07
99.9682	97.706	257.4	275.32	-69.2138	168.849	0.459531	-0.000139647	6.18514	5.40618	1	40	0.0132486	4.81206e-05	0	-2.44159e-05	0.698566	0.53185	15.3041	3.22819e-05	2.87881e-05	4.9893e-05	3.91711e-05	2.73237e-05	1.71681e-05	0.907769	0.168278	5.54524	3.42486e-07	1.49478e-07	6.88096e-08	1.89811e-07	5.74478e-08	4.33894e-08	0.00128897	0.00339572	0.00363213	69.2138	5406.18	2052.12	5782.56	-20.7862	0.0000000E+000	0.0000000E+000	0.0000000E+000	20.7862	0.0000000E+000	0.0000000E+000	0.0000000E+000	-20.7862	0.0000000E+000	0.0000000E+000	0.0000000E+000	-69.2138	0.0000000E+000	0.0000000E+000	0.0000000E+000	69.2138	0.379588	20.7862	-1.15588e-07
79.4157	122.094	307.338	330.701	-68.3339	169.923	0.459502	-6.45067e-05	6.52075	5.63193	1	40	0.0131852	3.98706e-05	0	-2.44175e-05	0.954574	0.444113	15.351	5.92152e-05	3.68442e-05	4.3911e-05	4.13633e-05	6.29268e-05	4.62163e-05	0.943207	0.219669	6.65335	2.74119e-07	1.36973e-07	4.57778e-08	1.56711e-07	7.51367e-08	8.53689e-08	0.00111641	0.00281024	0.00302388	68.3339	5631.93	2237.36	6060.07	-21.6661	0.0000000E+000	0.0000000E+000	0.0000000E+000	21.6661	0.0000000E+000	0.0000000E+000	0.0000000E+000	-21.6661	0.0000000E+000	0.0000000E+000	0.0000000E+000	-68.3339	0.0000000E+000	0.0000000E+000	0.0000000E+000	68.3339	0.397263	21.6661	-1.66878e-09
63.0823	152.04	364.831	395.244	-67.3764	171.005	0.459526	-9.81843e-05	6.91547	5.89215	1	40	0.0131213	3.3198e-05	0	-2.44519e-05	0.830504	0.281881	15.1609	6.64683e-05	3.05839e-05	3.8314e-05	3.91366e-05	3.35879e-05	3.74269e-05	1.05678	0.142763	7.82775	3.03296e-07	1.037e-07	4.50612e-08	1.07676e-07	3.34022e-08	5.09015e-08	0.00097326	0.0023354	0.00253008	67.3764	5892.15	2455.51	6383.34	-22.6236	0.0000000E+000	0.0000000E+000	0.0000000E+000	22.6236	0.0000000E+000	0.0000000E+000	0.0000000E+000	-22.6236	0.0000000E+000	0.0000000E+000	0.0000000E+000	-67.3764	0.0000000E+000	0.0000000E+000	0.0000000E+000	67.3764	0.416742	22.6236	-3.43722e-08
50.1122	191.34	431.679	472.184	-66.0949	172.07	0.459503	-6.94433e-05	7.35725	6.14915	1	40	0.0130761	2.76928e-05	0	-2.44622e-05	0.719338	0.446512	15.318	4.81188e-05	3.11392e-05	2.68122e-05	3.48302e-05	3.81176e-05	2.43316e-05	1.10024	0.285729	9.48337	2.3132e-07	1.23694e-07	1.7152e-08	1.32546e-07	5.95776e-08	2.92996e-08	0.000858188	0.00193615	0.00211782	66.0949	6149.15	2725.58	6726.13	-23.9051	0.0000000E+000	0.0000000E+000	0.0000000E+000	23.9051	0.0000000E+000	0.0000000E+000	0.0000000E+000	-23.9051	0.0000000E+000	0.0000000E+000	0.0000000E+000	-66.0949	0.0000000E+000	0.0000000E+000	0.0000000E+000	66.0949	0.443245	23.9051	-1.02888e-08
39.8089	238.271	511.004	563.824	-65.0013	173.139	0.459504	-6.15642e-05	7.82377	6.42653	1	40	0.013068	2.31775e-05	0	-2.45037e-05	0.803787	0.534645	14.9664	2.93616e-05	2.37528e-05	5.20612e-05	4.22076e-05	5.78872e-05	2.694e-05	0.965199	0.453764	11.2731	1.65351e-07	7.76939e-08	5.09998e-08	5.94893e-08	7.21584e-08	4.22725e-08	0.000749521	0.00160745	0.0017736	65.0013	6426.53	2996.57	7090.82	-24.9987	0.0000000E+000	0.0000000E+000	0.0000000E+000	24.9987	0.0000000E+000	0.0000000E+000	0.0000000E+000	-24.9987	0.0000000E+000	0.0000000E+000	0.0000000E+000	-65.0013	0.0000000E+000	0.0000000E+000	0.0000000E+000	65.0013	0.466281	24.9987	-4.15567e-08
31.6296	296.752	600.41	669.741	-63.6992	174.18	0.459535	-6.81581e-05	8.38067	6.73535	1	40	0.0130659	1.95089e-05	0	-2.45533e-05	1.0269	0.544825	15.4782	4.67645e-05	5.19329e-05	5.40224e-05	2.57902e-05	8.19218e-05	3.99015e-05	1.11877	0.462319	13.7045	1.44065e-07	7.28536e-08	3.88226e-08	7.36526e-08	8.57221e-08	5.71037e-08	0.000661574	0.00133855	0.00149311	63.6992	6735.35	3328.94	7513.11	-26.3008	0.0000000E+000	0.0000000E+000	0.0000000E+000	26.3008	0.0000000E+000	0.0000000E+000	0.0000000E+000	-26.3008	0.0000000E+000	0.0000000E+000	0.0000000E+000	-63.6992	0.0000000E+000	0.0000000E+000	0.0000000E+000	63.6992	0.494248	26.3008	-4.95912e-08
25.1206	375.472	695.34	790.238	-61.6317	175.248	0.459545	-0.000118935	9.11156	7.05458	1	40	0.013	1.64508e-05	0	-2.46319e-05	0.814056	0.463052	15.4203	3.71557e-05	4.77003e-05	5.55639e-05	3.00142e-05	4.38117e-05	2.56696e-05	1.19433	0.467371	15.9031	1.27274e-07	7.89215e-08	7.6647e-08	3.83216e-08	5.97896e-08	4.31351e-08	0.000601258	0.00111348	0.00126544	61.6317	7054.58	3809.35	8017.37	-28.3683	0.0000000E+000	0.0000000E+000	0.0000000E+000	28.3683	0.0000000E+000	0.0000000E+000	0.0000000E+000	-28.3683	0.0000000E+000	0.0000000E+000	0.0000000E+000	-61.6317	0.0000000E+000	0.0000000E+000	0.0000000E+000	61.6317	0.539983	28.3683	-7.8593e-08
19.9553	473.476	810.1	938.318	-59.6952	176.318	0.45955	-8.93743e-05	9.84515	7.33836	1	40	0.0130495	1.39073e-05	0	-2.46327e-05	0.826209	0.60509	15.5215	2.09753e-05	4.66148e-05	4.93713e-05	5.22142e-05	3.22013e-05	2.58016e-05	1.18068	0.773838	18.99	9.60831e-08	5.14357e-08	6.72866e-08	4.45953e-08	6.09133e-08	3.37405e-08	0.000537771	0.000920106	0.00106574	59.6952	7338.36	4289.02	8499.84	-30.3048	0.0000000E+000	0.0000000E+000	0.0000000E+000	30.3048	0.0000000E+000	0.0000000E+000	0.0000000E+000	-30.3048	0.0000000E+000	0.0000000E+000	0.0000000E+000	-59.6952	0.0000000E+000	0.0000000E+000	0.0000000E+000	59.6952	0.584466	30.3048	-7.87594e-10
15.8469	594.362	927.284	1101.42	-57.3413	177.358	0.459563	-0.000115694	10.8309	7.67688	1	40	0.0130332	1.18331e-05	0	-2.47077e-05	0.77195	0.374631	15.1818	3.64784e-05	3.06114e-05	4.67096e-05	4.88246e-05	4.15757e-05	2.88938e-05	1.44517	0.572164	22.1281	9.12957e-08	6.98763e-08	7.3546e-08	6.58788e-08	6.40265e-08	2.55968e-08	0.000489944	0.000764378	0.00090792	57.3413	7676.88	4920.66	9118.52	-32.6587	0.0000000E+000	0.0000000E+000	0.0000000E+000	32.6587	0.0000000E+000	0.0000000E+000	0.0000000E+000	-32.6587	0.0000000E+000	0.0000000E+000	0.0000000E+000	-57.3413	0.0000000E+000	0.0000000E+000	0.0000000E+000	57.3413	0.640971	32.6587	-7.50067e-08
12.5873	744.646	1049.27	1286.65	-54.6374	178.822	0.45957	-8.88987e-05	12.0504	8.0141	1	41	0.0130655	1.01547e-05	0	-2.46339e-05	0.851993	0.468886	13.4647	3.99366e-05	4.73937e-05	1.919e-05	6.61116e-05	2.75306e-05	4.36394e-05	0.878061	0.134813	3.56383	6.86925e-08	4.63771e-08	2.08678e-08	1.95428e-08	6.8676e-09	9.10201e-09	0.000449812	0.000633822	0.000777214	54.6374	8014.1	5687.46	9827.16	-35.3626	0.0000000E+000	0.0000000E+000	0.0000000E+000	35.3626	0.0000000E+000	0.0000000E+000	0.0000000E+000	-35.3626	0.0000000E+000	0.0000000E+000	0.0000000E+000	-54.6374	0.0000000E+000	0.0000000E+000	0.0000000E+000	54.6374	0.709682	35.3626	7.37791e-08
9.99682	925.898	1167.22	1489.86	-51.5767	179.881	0.459553	-9.46979e-05	13.6398	8.37181	1	41	0.0130424	8.7541e-06	0	-2.47254e-05	1.41184	0.630513	19.3543	4.30317e-05	8.88005e-05	8.11449e-05	4.42037e-05	6.11155e-05	8.62276e-05	0.779213	0.206738	5.66331	5.21237e-08	3.09733e-08	1.55385e-08	1.55036e-08	1.14173e-08	1.62336e-08	0.000417131	0.000525849	0.000671204	51.5767	8371.81	6640.96	10686	-38.4233	0.0000000E+000	0.0000000E+000	0.0000000E+000	38.4233	0.0000000E+000	0.0000000E+000	0.0000000E+000	-38.4233	0.0000000E+000	0.0000000E+000	0.0000000E+000	-51.5767	0.0000000E+000	0.0000000E+000	0.0000000E+000	51.5767	0.793253	38.4233	-9.14205e-08
7.93956	1137.8	1278.25	1711.29	-48.327	181.09	0.459568	-0.00010166	15.6822	8.74968	1	41	0.013047	7.62407e-06	0	-2.47212e-05	0.666417	0.437054	13.3593	1.41086e-05	3.65342e-05	3.40849e-05	3.66369e-05	2.99296e-05	3.35531e-05	0.800135	0.13258	4.6312	4.87149e-08	2.75326e-08	6.06333e-09	1.90809e-08	6.8907e-09	8.43759e-09	0.000388525	0.000436484	0.000584354	48.327	8749.68	7788.29	11713.9	-41.673	0.0000000E+000	0.0000000E+000	0.0000000E+000	41.673	0.0000000E+000	0.0000000E+000	0.0000000E+000	-41.673	0.0000000E+000	0.0000000E+000	0.0000000E+000	-48.327	0.0000000E+000	0.0000000E+000	0.0000000E+000	48.327	0.890123	41.673	4.15202e-09
6.31058	1379.3	1370.87	1944.68	-44.8243	182.474	0.459539	-9.27631e-05	18.3973	9.14223	1	41	0.013053	6.71215e-06	0	-2.47304e-05	0.72821	0.270355	13.5977	3.4748e-05	3.2042e-05	4.756e-05	2.32308e-05	3.09583e-05	4.30965e-05	0.892854	0.0983226	5.39511	4.85195e-08	2.63613e-08	1.06787e-08	1.46735e-08	8.5e-09	1.04342e-08	0.000364724	0.000362495	0.000514224	44.8243	9142.24	9198.47	12968.9	-45.1757	0.0000000E+000	0.0000000E+000	0.0000000E+000	45.1757	0.0000000E+000	0.0000000E+000	0.0000000E+000	-45.1757	0.0000000E+000	0.0000000E+000	0.0000000E+000	-44.8243	0.0000000E+000	0.0000000E+000	0.0000000E+000	44.8243	1.00615	45.1757	-9.21838e-09
5.01283	1649.1	1430.9	2183.34	-40.9476	184.092	0.459544	-9.5809e-05	22.1885	9.53017	1	41	0.0130509	5.97747e-06	0	-2.47652e-05	0.71083	0.261765	10.6376	4.44214e-05	3.55275e-05	3.12148e-05	3.36336e-05	3.45965e-05	3.02381e-05	0.772953	0.147613	4.78255	3.44696e-08	2.2217e-08	8.43734e-09	1.67375e-08	5.79227e-09	4.65416e-09	0.000345941	0.000300168	0.000458013	40.9476	9530.17	10983.5	14541.7	-49.0524	0.0000000E+000	0.0000000E+000	0.0000000E+000	49.0524	0.0000000E+000	0.0000000E+000	0.0000000E+000	-49.0524	0.0000000E+000	0.0000000E+000	0.0000000E+000	-40.9476	0.0000000E+000	0.0000000E+000	0.0000000E+000	40.9476	1.15249	49.0524	-3.4729e-08
3.9819	1925.07	1452.29	2411.44	-37.0312	186.014	0.459541	-9.33907e-05	27.5217	9.98228	1	41	0.0130253	5.40144e-06	0	-2.4918e-05	0.455808	0.300179	9.61103	2.72766e-05	2.12779e-05	1.1064e-05	3.23474e-05	1.54042e-05	2.62458e-05	0.723314	0.14721	4.90294	3.05256e-08	1.94835e-08	3.97884e-09	1.08476e-08	3.04578e-09	5.93395e-09	0.00033105	0.000249747	0.00041469	37.0312	9982.28	13231.9	16575	-52.9688	0.0000000E+000	0.0000000E+000	0.0000000E+000	52.9688	0.0000000E+000	0.0000000E+000	0.0000000E+000	-52.9688	0.0000000E+000	0.0000000E+000	0.0000000E+000	-37.0312	0.0000000E+000	0.0000000E+000	0.0000000E+000	37.0312	1.32554	52.9688	-1.52848e-07
3.16296	2207.88	1436.25	2633.92	-33.0445	188.323	0.459565	-9.82556e-05	35.0345	10.4172	1	41	0.0130249	4.94507e-06	0	-2.48755e-05	0.517994	0.282623	8.52098	2.61601e-05	2.51434e-05	2.65725e-05	2.19266e-05	1.92612e-05	3.46795e-05	0.789948	0.146394	4.81075	3.12018e-08	1.71928e-08	6.05582e-09	1.03853e-08	4.7119e-09	8.10842e-09	0.000318251	0.000207026	0.000379662	33.0445	10417.2	16013.9	19104	-56.9555	0.0000000E+000	0.0000000E+000	0.0000000E+000	56.9555	0.0000000E+000	0.0000000E+000	0.0000000E+000	-56.9555	0.0000000E+000	0.0000000E+000	0.0000000E+000	-33.0445	0.0000000E+000	0.0000000E+000	0.0000000E+000	33.0445	1.53725	56.9555	4.25459e-08
2.51085	2487.1	1383.87	2846.19	-29.0923	191.125	0.459562	-9.61204e-05	45.8043	10.8285	1	41	0.0130382	4.58095e-06	0	-2.49472e-05	0.399044	0.252824	7.31567	1.76269e-05	1.4236e-05	1.6572e-05	1.65835e-05	2.53719e-05	2.56609e-05	0.715972	0.170335	4.54078	2.61463e-08	1.55499e-08	2.99966e-09	8.16576e-09	4.36265e-09	4.91819e-09	0.000307021	0.000170831	0.000351347	29.0923	10828.5	19461.1	22270.9	-60.9077	0.0000000E+000	0.0000000E+000	0.0000000E+000	60.9077	0.0000000E+000	0.0000000E+000	0.0000000E+000	-60.9077	0.0000000E+000	0.0000000E+000	0.0000000E+000	-29.0923	0.0000000E+000	0.0000000E+000	0.0000000E+000	29.0923	1.79721	60.9077	-7.17866e-08
1.99553	2726.79	1306.42	3023.59	-25.5993	194.55	0.459548	-9.45669e-05	61.0491	11.3972	1	41	0.0130229	4.30709e-06	0	-2.51078e-05	0.398855	0.205785	6.35339	2.28015e-05	2.15697e-05	1.27212e-05	1.77259e-05	2.01738e-05	2.08174e-05	0.789348	0.168328	4.31997	2.73365e-08	1.65597e-08	2.73387e-09	7.84139e-09	4.76738e-09	4.35727e-09	0.000298267	0.000142901	0.000330732	25.5993	11397.2	23788.5	26377.8	-64.4007	0.0000000E+000	0.0000000E+000	0.0000000E+000	64.4007	0.0000000E+000	0.0000000E+000	0.0000000E+000	-64.4007	0.0000000E+000	0.0000000E+000	0.0000000E+000	-25.5993	0.0000000E+000	0.0000000E+000	0.0000000E+000	25.5993	2.08723	64.4007	-1.60591e-07
1.58533	2949.24	1202.91	3185.13	-22.1892	198.762	0.459547	-9.5204e-05	83.4577	11.9037	1	41	0.0130249	4.0893e-06	0	-2.5355e-05	0.284804	0.15845	5.79551	1.27045e-05	1.05144e-05	1.85189e-05	1.39602e-05	1.51384e-05	1.36293e-05	0.731741	0.0986746	4.24905	2.60878e-08	1.15995e-08	3.37422e-09	6.76238e-09	3.18782e-09	2.15606e-09	0.000290708	0.000118572	0.000313959	22.1892	11903.7	29184.9	31519.1	-67.8108	0.0000000E+000	0.0000000E+000	0.0000000E+000	67.8108	0.0000000E+000	0.0000000E+000	0.0000000E+000	-67.8108	0.0000000E+000	0.0000000E+000	0.0000000E+000	-22.1892	0.0000000E+000	0.0000000E+000	0.0000000E+000	22.1892	2.45175	67.8108	-2.47155e-07
1.25825	3136.87	1093.25	3321.92	-19.2142	205.611	0.459555	-9.72027e-05	115.7	12.5311	1	42	0.0130229	3.92028e-06	0	-2.53079e-05	0.371874	0.15761	5.45588	1.53861e-05	2.2623e-05	1.96099e-05	2.12577e-05	1.2793e-05	1.75535e-05	0.686989	0.0223127	1.33123	2.3179e-08	1.26855e-08	4.99946e-10	5.06597e-09	4.09199e-10	5.95365e-10	0.000284262	9.90693e-05	0.000301031	19.2142	12531.1	35955.9	38077	-70.7858	0.0000000E+000	0.0000000E+000	0.0000000E+000	70.7858	0.0000000E+000	0.0000000E+000	0.0000000E+000	-70.7858	0.0000000E+000	0.0000000E+000	0.0000000E+000	-19.2142	0.0000000E+000	0.0000000E+000	0.0000000E+000	19.2142	2.86932	70.7858	4.71399e-08
1.00006	3295.5	974.629	3436.6	-16.4754	212.071	0.459536	-0.000100711	163.288	13.1333	1	42	0.0130151	3.78719e-06	0	-2.57925e-05	0.286277	0.168257	4.69358	1.75405e-05	2.00425e-05	5.15752e-06	1.02076e-05	1.31137e-05	1.70291e-05	0.680543	0.0391484	1.28591	2.25975e-08	1.14446e-08	3.02449e-10	4.58223e-09	6.60474e-10	6.52094e-10	0.000279038	8.25243e-05	0.000290986	16.4754	13133.3	44407.6	46308.9	-73.5246	0.0000000E+000	0.0000000E+000	0.0000000E+000	73.5246	0.0000000E+000	0.0000000E+000	0.0000000E+000	-73.5246	0.0000000E+000	0.0000000E+000	0.0000000E+000	-16.4754	0.0000000E+000	0.0000000E+000	0.0000000E+000	16.4754	3.38128	73.5246	-4.84663e-07
0.79456	3427.37	859.161	3533.41	-14.0727	220.087	0.459548	-9.88272e-05	233.141	13.7841	1	42	0.0130077	3.68135e-06	0	-2.5664e-05	0.251118	0.100065	4.09866	1.31627e-05	1.21512e-05	1.76122e-05	1.21258e-05	9.06052e-06	7.92521e-06	0.686479	0.0317963	1.31757	2.2245e-08	1.13612e-08	4.76823e-10	3.74585e-09	3.76047e-10	4.28539e-10	0.000274519	6.88155e-05	0.000283013	14.0727	13784.1	54987.7	56689.1	-75.9273	0.0000000E+000	0.0000000E+000	0.0000000E+000	75.9273	0.0000000E+000	0.0000000E+000	0.0000000E+000	-75.9273	0.0000000E+000	0.0000000E+000	0.0000000E+000	-14.0727	0.0000000E+000	0.0000000E+000	0.0000000E+000	14.0727	3.9892	75.9273	1.2849e-07
0.630906	3540.8	755.865	3620.58	-12.0502	230.085	0.459548	-9.82536e-05	333.742	14.546	1	42	0.0130244	3.59732e-06	0	-2.60439e-05	0.239476	0.125939	3.68711	1.35321e-05	1.12496e-05	7.80135e-06	1.53001e-05	1.12732e-05	9.73992e-06	0.680464	0.0738851	1.50233	2.17026e-08	1.06066e-08	7.23024e-10	3.69453e-09	5.98008e-10	5.67994e-10	0.000270113	5.76618e-05	0.000276199	12.0502	14546	68139.8	69675.1	-77.9498	0.0000000E+000	0.0000000E+000	0.0000000E+000	77.9498	0.0000000E+000	0.0000000E+000	0.0000000E+000	-77.9498	0.0000000E+000	0.0000000E+000	0.0000000E+000	-12.0502	0.0000000E+000	0.0000000E+000	0.0000000E+000	12.0502	4.68443	77.9498	-3.79894e-07
0.500946	3632.34	655.748	3691.06	-10.2334	242.592	0.459538	-9.90535e-05	484.498	15.292	1	42	0.0130254	3.52891e-06	0	-2.67699e-05	0.200408	0.0759748	3.28168	5.33916e-06	9.92483e-06	4.75434e-06	1.91095e-05	4.77341e-06	6.71427e-06	0.692884	0.0371105	1.36264	2.16774e-08	1.07231e-08	2.92717e-10	3.52358e-09	3.8893e-10	2.87311e-10	0.000266615	4.81322e-05	0.000270925	10.2334	15292	84706	86075.3	-79.7666	0.0000000E+000	0.0000000E+000	0.0000000E+000	79.7666	0.0000000E+000	0.0000000E+000	0.0000000E+000	-79.7666	0.0000000E+000	0.0000000E+000	0.0000000E+000	-10.2334	0.0000000E+000	0.0000000E+000	0.0000000E+000	10.2334	5.53923	79.7666	-7.25991e-07
0.398211	3707.09	568.189	3750.38	-8.71396	258.242	0.459549	-9.93952e-05	703.419	16.1454	1	42	0.0130218	3.47212e-06	0	-2.69299e-05	0.158228	0.0728356	2.83405	6.8223e-06	7.44365e-06	7.91901e-06	8.74526e-06	7.12121e-06	1.01563e-05	0.693283	0.0293208	1.40202	2.13676e-08	1.06283e-08	4.16893e-10	3.0597e-09	2.39628e-10	4.15032e-10	0.000263562	4.03963e-05	0.00026664	8.71396	16145.4	105339	106569	-81.286	0.0000000E+000	0.0000000E+000	0.0000000E+000	81.286	0.0000000E+000	0.0000000E+000	0.0000000E+000	-81.286	0.0000000E+000	0.0000000E+000	0.0000000E+000	-8.71396	0.0000000E+000	0.0000000E+000	0.0000000E+000	8.71396	6.5244	81.286	-1.59949e-07
0.316193	3769.45	488.398	3800.96	-7.38254	277.867	0.459541	-9.84143e-05	1030.61	17.0159	1	42	0.0130162	3.42446e-06	0	-2.69576e-05	0.155345	0.0990099	2.54988	1.02673e-05	9.03192e-06	6.16678e-06	8.56936e-06	6.6065e-06	5.227e-06	0.703541	0.0291734	1.42332	2.16524e-08	1.00628e-08	2.91649e-10	3.14795e-09	3.0844e-10	2.72294e-10	0.000260911	3.38055e-05	0.000263092	7.38254	17015.9	131329	132427	-82.6175	0.0000000E+000	0.0000000E+000	0.0000000E+000	82.6175	0.0000000E+000	0.0000000E+000	0.0000000E+000	-82.6175	0.0000000E+000	0.0000000E+000	0.0000000E+000	-7.38254	0.0000000E+000	0.0000000E+000	0.0000000E+000	7.38254	7.71799	82.6175	-2.77071e-08
0.251222	3825.39	419.936	3848.37	-6.26461	302.486	0.45956	-9.66325e-05	1508.62	17.9635	1	42	0.0130219	3.38375e-06	0	-2.76742e-05	0.140467	0.0659043	2.28304	6.87402e-06	5.38351e-06	6.27034e-06	9.34275e-06	7.02967e-06	6.82679e-06	0.715349	0.0242992	1.40274	2.17875e-08	1.00623e-08	5.95327e-10	3.02515e-09	3.16756e-10	3.68954e-10	0.000258298	2.83549e-05	0.00025985	6.26461	17963.5	163638	164621	-83.7354	0.0000000E+000	0.0000000E+000	0.0000000E+000	83.7354	0.0000000E+000	0.0000000E+000	0.0000000E+000	-83.7354	0.0000000E+000	0.0000000E+000	0.0000000E+000	-6.26461	0.0000000E+000	0.0000000E+000	0.0000000E+000	6.26461	9.10948	83.7354	-7.16615e-07
0.199573	3869.92	358.495	3886.49	-5.29257	333.395	0.459549	-9.60573e-05	2224.51	18.9272	1	42	0.013016	3.34904e-06	0	-2.91854e-05	0.1267	0.0637182	2.00247	3.72268e-06	8.775e-06	5.5969e-06	9.19667e-06	4.12377e-06	4.71672e-06	0.723495	0.0249995	1.42212	2.18493e-08	1.01244e-08	3.25203e-10	2.60235e-09	3.58317e-10	1.88521e-10	0.000256205	2.37339e-05	0.000257302	5.29257	18927.2	204317	205192	-84.7074	0.0000000E+000	0.0000000E+000	0.0000000E+000	84.7074	0.0000000E+000	0.0000000E+000	0.0000000E+000	-84.7074	0.0000000E+000	0.0000000E+000	0.0000000E+000	-5.29257	0.0000000E+000	0.0000000E+000	0.0000000E+000	5.29257	10.7949	84.7074	-1.51123e-06
0.158419	3912.7	305.411	3924.6	-4.46325	372.252	0.459542	-9.7843e-05	3289.5	19.9208	1	42	0.0130211	3.31782e-06	0	-3.09135e-05	0.15208	0.06435	1.80804	5.31448e-06	1.11282e-05	4.04618e-06	1.20889e-05	4.51959e-06	5.52199e-06	0.723464	0.0276705	1.41879	2.18646e-08	9.57967e-09	2.04175e-10	2.48115e-09	2.0395e-10	2.28284e-10	0.00025403	1.98287e-05	0.000254803	4.46325	19920.8	255211	255987	-85.5368	0.0000000E+000	0.0000000E+000	0.0000000E+000	85.5368	0.0000000E+000	0.0000000E+000	0.0000000E+000	-85.5368	0.0000000E+000	0.0000000E+000	0.0000000E+000	-4.46325	0.0000000E+000	0.0000000E+000	0.0000000E+000	4.46325	12.8113	85.5368	-1.72807e-06
0.125939	3947.23	256.201	3955.53	-3.71366	421.049	0.459539	-9.9198e-05	4932.66	20.6934	1	42	0.0130159	3.29055e-06	0	-3.22117e-05	0.116712	0.0519953	1.60664	4.16954e-06	7.18751e-06	4.14975e-06	1.05049e-05	3.47655e-06	2.97388e-06	0.748309	0.0364312	1.38858	2.24268e-08	9.80249e-09	2.55317e-10	2.66615e-09	1.09652e-10	2.46679e-10	0.00025228	1.63746e-05	0.00025281	3.71366	20693.4	318818	319489	-86.2863	0.0000000E+000	0.0000000E+000	0.0000000E+000	86.2863	0.0000000E+000	0.0000000E+000	0.0000000E+000	-86.2863	0.0000000E+000	0.0000000E+000	0.0000000E+000	-3.71366	0.0000000E+000	0.0000000E+000	0.0000000E+000	3.71366	15.4068	86.2863	-1.29826e-06
0.0999518	3980.39	216.317	3986.27	-3.11071	482.45	0.459558	-9.54758e-05	7361.05	21.6764	1	42	0.0130158	3.26516e-06	0	-3.29468e-05	0.122594	0.0948734	1.50616	6.02933e-06	1.0203e-05	5.03494e-06	7.26519e-06	2.96727e-06	3.82021e-06	0.74622	0.0560852	1.37953	2.22641e-08	9.55898e-09	4.27814e-10	2.48289e-09	2.03623e-10	2.0111e-10	0.000250492	1.36131e-05	0.000250861	3.11071	21676.4	398862	399451	-86.8893	0.0000000E+000	0.0000000E+000	0.0000000E+000	86.8893	0.0000000E+000	0.0000000E+000	0.0000000E+000	-86.8893	0.0000000E+000	0.0000000E+000	0.0000000E+000	-3.11071	0.0000000E+000	0.0000000E+000	0.0000000E+000	3.11071	18.4008	86.8893	-7.35032e-07