File: Python/Data/RDE/240219-CV-EIS-Fe2Fe3_5mM-HCl1M-226RPM-Ag_AgCl_BLF8-GC-RDE_01_CV_C15.mpt
EC-Lab ASCII FILE
Nb header lines : 60

Cyclic Voltammetry

Run on channel : 15 (SN 19485)
User :
Electrode connection : standard
Potential control : Ewe
Ewe ctrl range : min = -1.00 V, max = 1.00 V
Ewe,I filtering : <None>
Safety Limits :
	Do not start on E overload
Channel : Floating
Acquisition started on : 02/19/2024 15:22:59.145
Loaded Setting File :  NONE
Saved on :
	File : 240219-CV-EIS-Fe2Fe3_5mM-HCl1M-226RPM-Ag_AgCl_BLF8-GC-RDE_01_CV_C15.mpr
	Directory : C:\Data\mathias\RDE-RPM-variation\
	Host : 192.168.0.1
Device : VMP-300 (SN 0826)
Address : USB
EC-Lab for windows v11.52 (software)
Internet server v11.52 (firmware)
Command interpretor v11.52 (firmware)
Electrode material :
Initial state :
Electrolyte :
Comments :
Cable : special
Electrode surface area : 0.001 cm²
Characteristic mass : 0.001 g
Equivalent Weight : 0.000 g/eq.
Density : 0.000 g/cm3
Volume (V) : 0.001 cm³
Record EIS quality indicators
Cycle Definition : Charge/Discharge alternance
Ei (V)              0.000
vs.                 Eoc
dE/dt               20.000
dE/dt unit          mV/s
E1 (V)              1.000
vs.                 Ref
Step percent        50
N                   10
E range min (V)     -1.000
E range max (V)     1.000
I Range             Auto
I Range min         Unset
I Range max         Unset
I Range init        Unset
Bandwidth           8
E2 (V)              0.000
vs.                 Ref
nc cycles           2
Reverse Scan        1
Ef (V)              0.000
vs.                 Eoc

mode	ox/red	error	control changes	counter inc.	time/s	control/V	Ewe/V	<I>/mA	cycle number	(Q-Qo)/C	I Range	step time/s	P/W
2	1	0	1	0	0.000000000000000E+000	0.46309	0.46273	0.000508379	1	0.0000000E+000	43	0.000000000000000E+000	2.35242e-07
2	1	0	1	0	0.5186	0.47346	0.473285	0.0032317	1	9.76551e-07	42	0.5048	1.52952e-06
2	1	0	1	0	1.0183	0.483455	0.4832	0.00580818	1	3.23503e-06	42	1.0045	2.80651e-06
2	1	0	1	0	1.5181	0.49345	0.493238	0.00847524	1	6.79992e-06	42	1.5043	4.18031e-06
2	1	0	1	0	2.0478	0.504045	0.504014	0.0114022	1	1.20787e-05	41	2.034	5.74688e-06
2	1	0	1	0	2.5476	0.51404	0.513726	0.014518	1	1.85961e-05	41	2.5338	7.45826e-06
2	1	0	1	0	3.0474	0.524035	0.523618	0.0179441	1	2.67381e-05	41	3.0336	9.39586e-06
2	1	0	1	0	3.5471	0.534031	0.533633	0.0216689	1	3.66613e-05	41	3.5333	1.15633e-05
2	1	0	1	0	4.0469	0.544026	0.543726	0.0258153	1	4.85585e-05	41	4.0331	1.40365e-05
2	1	0	1	0	4.5467	0.554021	0.554008	0.0304038	1	6.26425e-05	41	4.5329	1.6844e-05
2	1	0	1	0	5.0464	0.564016	0.563507	0.0355263	1	7.91445e-05	41	5.0326	2.00193e-05
2	1	0	1	0	5.5462	0.574012	0.573675	0.0411517	1	9.83304e-05	41	5.5324	2.36077e-05
2	1	0	1	0	6.046	0.584009	0.583583	0.0472914	1	0.000120457	41	6.0322	2.75985e-05
2	1	0	1	0	6.5457	0.594002	0.593691	0.0537616	1	0.000145732	41	6.5319	3.19178e-05
2	1	0	1	0	7.0455	0.603997	0.603703	0.0607021	1	0.000174371	41	7.0317	3.6646e-05
2	1	0	1	0	7.5452	0.613993	0.613604	0.0679873	1	0.000206558	41	7.5314	4.17173e-05
2	1	0	1	0	8.045	0.623988	0.623745	0.0755249	1	0.000242459	41	8.0312	4.71083e-05
2	1	0	1	0	8.5448	0.633983	0.633665	0.0831545	1	0.000282153	41	8.531	5.26921e-05
2	1	0	1	0	9.0445	0.643978	0.643556	0.0908353	1	0.000325685	41	9.0307	5.84576e-05
2	1	0	1	0	9.5443	0.653974	0.653846	0.0984351	1	0.000373031	41	9.5305	6.43614e-05
2	1	0	1	0	10.044	0.663969	0.663491	0.105567	1	0.000424067	41	10.0302	7.00426e-05
2	1	0	1	0	10.5738	0.674564	0.674128	0.113208	1	0.000482048	40	10.56	7.63163e-05
2	1	0	1	0	11.0736	0.684559	0.684348	0.119875	1	0.000540381	40	11.0598	8.20362e-05
2	1	0	1	0	11.5733	0.694554	0.694169	0.126132	1	0.000601937	40	11.5595	8.75566e-05
2	1	0	1	0	12.0731	0.70455	0.704167	0.131777	1	0.000666439	40	12.0593	9.27928e-05
2	1	0	1	0	12.5728	0.714545	0.71432	0.137282	1	0.000733731	40	12.559	9.80633e-05
2	1	0	1	0	13.0726	0.72454	0.72426	0.142197	1	0.000803681	40	13.0588	0.000102988
2	1	0	1	0	13.5724	0.734535	0.734264	0.146751	1	0.000875968	40	13.5586	0.000107754
2	1	0	1	0	14.0721	0.744531	0.744085	0.151412	1	0.0009505	40	14.0583	0.000112663
2	1	0	1	0	14.5719	0.754526	0.754211	0.155725	1	0.00102731	40	14.5581	0.000117449
2	1	0	1	0	15.0716	0.764519	0.764185	0.160625	1	0.00110636	40	15.0578	0.000122747
2	1	0	1	0	15.5714	0.774516	0.774283	0.165003	1	0.00118786	40	15.5576	0.000127759
2	1	0	1	0	16.0712	0.784512	0.784005	0.168759	1	0.00127134	40	16.0574	0.000132308
2	1	0	1	0	16.5709	0.794507	0.794092	0.172146	1	0.00135664	40	16.5571	0.0001367
2	1	0	1	0	17.0707	0.804502	0.804058	0.174047	1	0.00144327	40	17.0569	0.000139944
2	1	0	1	0	17.5705	0.814497	0.814065	0.175225	1	0.00153057	40	17.5567	0.000142645
2	1	0	1	0	18.0702	0.824493	0.824255	0.177713	1	0.00161876	40	18.0564	0.000146481
2	1	0	1	0	18.57	0.834488	0.83439	0.179434	1	0.00170804	40	18.5562	0.000149718
2	1	0	1	0	19.0698	0.844483	0.84412	0.18053	1	0.00179799	40	19.056	0.000152389
2	1	0	1	0	19.5695	0.854478	0.854185	0.182254	1	0.00188892	40	19.5557	0.000155679
2	1	0	1	0	20.0693	0.864474	0.864139	0.18269	1	0.00198	40	20.0555	0.00015787
2	1	0	1	0	20.569	0.874469	0.874247	0.184902	1	0.00207192	40	20.5552	0.00016165
2	1	0	1	0	21.0688	0.884464	0.884248	0.18595	1	0.00216462	40	21.055	0.000164426
2	1	0	1	0	21.5686	0.894459	0.894201	0.186637	1	0.00225787	40	21.5548	0.000166891
2	1	0	1	0	22.0683	0.904455	0.904225	0.187272	1	0.00235129	40	22.0545	0.000169336
2	1	0	1	0	22.5681	0.91445	0.914193	0.187788	1	0.00244519	40	22.5543	0.000171674
2	1	0	1	0	23.0678	0.924443	0.924183	0.189147	1	0.00253949	40	23.054	0.000174807
2	1	0	1	0	23.5676	0.93444	0.934145	0.189741	1	0.00263422	40	23.5538	0.000177245
2	1	0	1	0	24.0674	0.944435	0.944043	0.190247	1	0.00272935	40	24.0536	0.000179601
2	1	0	1	0	24.5671	0.954431	0.954011	0.190379	1	0.00282453	40	24.5533	0.000181623
2	1	0	1	0	25.0669	0.964426	0.964103	0.191814	1	0.00291998	40	25.0531	0.000184928
2	1	0	1	0	25.5667	0.974421	0.974222	0.191302	1	0.00301579	40	25.5529	0.00018637
2	1	0	1	0	26.0664	0.984416	0.984067	0.191788	1	0.00311158	40	26.0526	0.000188732
2	1	0	1	0	26.5662	0.994412	0.994232	0.191796	1	0.00320755	40	26.5524	0.00019069
2	1	0	1	0	27.0342	0.99621	0.995939	0.189833	1	0.00329706	40	27.0204	0.000189062
2	1	0	1	0	27.5339	0.986216	0.985856	0.189247	1	0.00339166	40	27.5201	0.00018657
2	1	0	1	0	28.0337	0.97622	0.976124	0.18972	1	0.00348616	40	28.0199	0.00018519
2	1	0	1	0	28.5334	0.966225	0.965842	0.190966	1	0.00358132	40	28.5196	0.000184443
2	1	0	1	0	29.0332	0.95623	0.956014	0.190439	1	0.00367663	40	29.0194	0.000182063
2	1	0	1	0	29.533	0.946235	0.945838	0.189606	1	0.00377156	40	29.5192	0.000179336
2	1	0	1	0	30.0327	0.936239	0.935761	0.187788	1	0.0038659	40	30.0189	0.000175725
2	1	0	1	0	30.5325	0.926244	0.925896	0.186376	1	0.00395926	40	30.5187	0.000172565
2	1	0	1	0	31.0322	0.91625	0.915933	0.185432	1	0.00405212	40	31.0184	0.000169843
2	1	0	1	0	31.532	0.906254	0.90583	0.184479	1	0.00414464	40	31.5182	0.000167107
2	1	0	1	0	32.0318	0.896258	0.895952	0.182448	1	0.00423618	40	32.018	0.000163464
2	1	0	1	0	32.5315	0.886263	0.885984	0.181252	1	0.00432709	40	32.5177	0.000160587
2	1	0	1	0	33.0313	0.876268	0.876033	0.179851	1	0.0044172	40	33.0175	0.000157555
2	1	0	1	0	33.5311	0.866273	0.865971	0.177563	1	0.00450638	40	33.5173	0.000153764
2	1	0	1	0	34.0308	0.856277	0.855817	0.176326	1	0.00459487	40	34.017	0.000150903
2	1	0	1	0	34.5306	0.846282	0.845999	0.173507	1	0.00468221	40	34.5168	0.000146787
2	1	0	1	0	35.0304	0.836286	0.836022	0.171433	1	0.00476844	40	35.0166	0.000143322
2	1	0	1	0	35.5301	0.826292	0.826088	0.16931	1	0.00485356	40	35.5163	0.000139865
2	1	0	1	0	36.0299	0.816296	0.815784	0.166086	1	0.00493734	40	36.0161	0.00013549
2	1	0	1	0	36.5296	0.806301	0.806128	0.162585	1	0.00501938	40	36.5158	0.000131064
2	1	0	1	0	37.0294	0.796306	0.796015	0.158826	1	0.00509966	40	37.0156	0.000126428
2	1	0	1	0	37.5292	0.786311	0.786043	0.154542	1	0.00517798	40	37.5154	0.000121476
2	1	0	1	0	38.0289	0.776316	0.775809	0.150933	1	0.00525422	40	38.0151	0.000117095
2	1	0	1	0	38.5287	0.76632	0.766089	0.147954	1	0.00532884	40	38.5149	0.000113346
2	1	0	1	0	39.0284	0.756326	0.755931	0.144395	1	0.00540186	40	39.0146	0.000109153
2	1	0	1	0	39.5282	0.74633	0.745985	0.139551	1	0.00547282	40	39.5144	0.000104103
2	1	0	1	0	40.028	0.736334	0.736147	0.134827	1	0.00554132	40	40.0142	9.92528e-05
2	1	0	1	0	40.5277	0.726339	0.726096	0.13011	1	0.00560749	40	40.5139	9.4472e-05
2	1	0	1	0	41.0275	0.716344	0.716159	0.125184	1	0.00567139	40	41.0137	8.96516e-05
2	1	0	1	0	41.5273	0.706349	0.705845	0.118427	1	0.00573222	40	41.5135	8.35909e-05
2	1	0	1	0	42.027	0.696353	0.696013	0.112076	1	0.00578973	40	42.0132	7.80067e-05
2	1	0	1	0	42.5268	0.686358	0.686201	0.105415	1	0.00584403	40	42.513	7.23362e-05
2	1	0	1	0	43.0266	0.676362	0.676057	0.0993209	1	0.00589514	40	43.0128	6.71465e-05
2	1	0	1	0	43.5263	0.666368	0.665938	0.0929564	1	0.00594312	40	43.5125	6.19032e-05
2	1	0	1	0	44.0261	0.656373	0.655908	0.0863284	1	0.00598784	40	44.0123	5.66236e-05
2	1	0	1	0	44.5258	0.646377	0.646027	0.0795786	1	0.00602922	40	44.512	5.14099e-05
2	1	0	1	0	45.0256	0.636382	0.63619	0.072512	1	0.00606717	40	45.0118	4.61314e-05
2	1	0	1	0	45.5254	0.626387	0.625952	0.0655258	1	0.00610158	40	45.5116	4.1016e-05
2	1	0	1	0	46.0251	0.616392	0.616142	0.0588264	1	0.00613259	40	46.0113	3.62454e-05
2	1	0	1	0	46.5249	0.606396	0.606109	0.0525101	1	0.00616034	40	46.5111	3.18268e-05
2	1	0	1	0	47.0246	0.596402	0.596277	0.0463689	1	0.00618497	40	47.0108	2.76487e-05
2	1	0	1	0	47.5544	0.585806	0.585164	0.0405705	1	0.00620793	41	47.5406	2.37404e-05
2	1	0	1	0	48.0542	0.575811	0.575292	0.0355169	1	0.00622686	41	48.0404	2.04326e-05
2	1	0	1	0	48.5539	0.565816	0.565409	0.0307672	1	0.00624334	41	48.5401	1.7396e-05
2	1	0	1	0	49.0537	0.55582	0.555418	0.0264574	1	0.00625756	41	49.0399	1.46949e-05
2	1	0	1	0	49.5534	0.545826	0.545536	0.0224371	1	0.0062697	41	49.5396	1.22403e-05
2	1	0	1	0	50.0532	0.53583	0.535362	0.018822	1	0.00627993	41	50.0394	1.00766e-05
2	1	0	1	0	50.553	0.525835	0.52521	0.0154974	1	0.00628842	41	50.5392	8.13937e-06
2	1	0	1	0	51.0527	0.515839	0.515532	0.0124304	1	0.00629532	41	51.0389	6.40829e-06
2	1	0	1	0	51.5525	0.505844	0.505473	0.00960923	1	0.00630076	41	51.5387	4.85721e-06
2	1	0	1	0	52.0523	0.495849	0.495512	0.00698769	1	0.00630485	41	52.0385	3.46249e-06
2	1	0	1	0	52.552	0.485854	0.485679	0.00449391	1	0.00630766	41	52.5382	2.1826e-06
2	1	0	1	0	53.0818	0.475259	0.474856	0.0018681	1	0.00630931	42	53.068	8.87077e-07
2	0	0	1	0	53.6415	0.464064	0.463807	-0.000738468	1	0.00630963	42	0.1299	-3.42506e-07
2	0	0	1	0	54.1413	0.454069	0.453852	-0.00307485	1	0.00630868	42	0.6297	-1.39552e-06
2	0	0	1	0	54.641	0.444073	0.443972	-0.00546745	1	0.00630655	42	1.1294	-2.4274e-06
2	0	0	1	0	55.1408	0.434078	0.433655	-0.00797014	1	0.00630319	42	1.6292	-3.45629e-06
2	0	0	1	0	55.6406	0.424083	0.423939	-0.0106496	1	0.00629854	42	2.129	-4.51478e-06
2	0	0	1	0	56.1703	0.413488	0.413171	-0.0136833	1	0.00629209	41	2.6587	-5.65354e-06
2	0	0	1	0	56.6701	0.403493	0.403249	-0.0168652	1	0.00628444	41	3.1585	-6.80088e-06
2	0	0	1	0	57.1698	0.393497	0.392823	-0.0204108	1	0.0062751	41	3.6582	-8.01785e-06
2	0	0	1	0	57.6696	0.383502	0.383232	-0.0243844	1	0.00626388	41	4.158	-9.34488e-06
2	0	0	1	0	58.1694	0.373506	0.373354	-0.0287515	1	0.0062506	41	4.6578	-1.07345e-05
2	0	0	1	0	58.6691	0.363512	0.363545	-0.0335778	1	0.00623501	41	5.1575	-1.2207e-05
2	0	0	1	0	59.1689	0.353517	0.353411	-0.0389167	1	0.00621689	41	5.6573	-1.37536e-05
2	0	0	1	0	59.6686	0.343521	0.342972	-0.0446697	1	0.00619599	41	6.157	-1.53205e-05
2	0	0	1	0	60.1684	0.333526	0.333445	-0.0509861	1	0.00617207	41	6.6568	-1.70011e-05
2	0	0	1	0	60.6682	0.323531	0.323313	-0.0576601	1	0.0061449	41	7.1566	-1.86423e-05
2	0	0	1	0	61.1679	0.313536	0.313388	-0.0647382	1	0.0061143	41	7.6563	-2.02882e-05
2	0	0	1	0	61.6677	0.30354	0.303431	-0.0720922	1	0.00608008	41	8.1561	-2.1875e-05
2	0	0	1	0	62.1674	0.293546	0.293327	-0.0795637	1	0.00604217	41	8.6558	-2.33382e-05
2	0	0	1	0	62.6672	0.28355	0.283348	-0.0871556	1	0.00600048	41	9.1556	-2.46953e-05
2	0	0	1	0	63.167	0.273555	0.273204	-0.0946437	1	0.00595501	41	9.6554	-2.5857e-05
2	0	0	1	0	63.6667	0.263559	0.263353	-0.102068	1	0.00590583	41	10.1551	-2.688e-05
2	0	0	1	0	64.1665	0.253564	0.253294	-0.109142	1	0.005853	41	10.6549	-2.76451e-05
2	0	0	1	0	64.6962	0.24297	0.242857	-0.116032	1	0.00579332	40	11.1846	-2.81791e-05
2	0	0	1	0	65.196	0.232974	0.232616	-0.12193	1	0.00573374	40	11.6844	-2.83628e-05
2	0	0	1	0	65.6958	0.222979	0.222916	-0.127403	1	0.00567139	40	12.1842	-2.84001e-05
2	0	0	1	0	66.1955	0.212983	0.212758	-0.133008	1	0.00560629	40	12.6839	-2.82985e-05
2	0	0	1	0	66.6953	0.202988	0.202629	-0.137708	1	0.00553852	40	13.1837	-2.79036e-05
2	0	0	1	0	67.1951	0.192993	0.192828	-0.142804	1	0.00546837	40	13.6835	-2.75366e-05
2	0	0	1	0	67.6948	0.182998	0.18272	-0.147867	1	0.00539564	40	14.1832	-2.70183e-05
2	0	0	1	0	68.1946	0.173002	0.172681	-0.151304	1	0.00532081	40	14.683	-2.61273e-05
2	0	0	1	0	68.6944	0.163005	0.162857	-0.153777	1	0.00524453	40	15.1828	-2.50436e-05
2	0	0	1	0	69.1941	0.153012	0.152715	-0.15665	1	0.00516696	40	15.6825	-2.39227e-05
2	0	0	1	0	69.6939	0.143017	0.142598	-0.160325	1	0.0050876	40	16.1823	-2.28621e-05
2	0	0	1	0	70.1936	0.133021	0.132523	-0.160607	1	0.00500727	40	16.682	-2.12841e-05
2	0	0	1	0	70.6934	0.123026	0.122689	-0.161411	1	0.00492678	40	17.1818	-1.98033e-05
2	0	0	1	0	71.1932	0.113031	0.112747	-0.163395	1	0.00484565	40	17.6816	-1.84222e-05
2	0	0	1	0	71.6929	0.103036	0.10275	-0.165549	1	0.00476326	40	18.1813	-1.70102e-05
2	0	0	1	0	72.1927	0.0930404	0.0929046	-0.1671	1	0.00468014	40	18.6811	-1.55244e-05
2	0	0	1	0	72.6924	0.0830452	0.0828001	-0.168806	1	0.00459619	40	19.1808	-1.39772e-05
2	0	0	1	0	73.1922	0.0730499	0.0727344	-0.170006	1	0.00451144	40	19.6806	-1.23653e-05
2	0	0	1	0	73.692	0.0630547	0.062983	-0.17151	1	0.00442619	40	20.1804	-1.08022e-05
2	0	0	1	0	74.1917	0.0530594	0.0526678	-0.172619	1	0.00434013	40	20.6801	-9.09147e-06
2	0	0	1	0	74.6915	0.0430642	0.0427409	-0.173939	1	0.00425342	40	21.1799	-7.43429e-06
2	0	0	1	0	75.1913	0.0330689	0.032788	-0.174156	1	0.00416629	40	21.6797	-5.71021e-06
2	0	0	1	0	75.691	0.0230737	0.0226925	-0.174499	1	0.0040791	40	22.1794	-3.95981e-06
2	0	0	1	0	76.1908	0.0130785	0.0128734	-0.176248	1	0.00399147	40	22.6792	-2.26892e-06
2	0	0	1	0	76.6905	0.0030832	0.0027469	-0.176724	1	0.00390319	40	23.1789	-4.85443e-07
2	0	0	1	1	77.1585	0.00628168	0.0058788	-0.17517	1	0.00382071	40	23.6469	-1.02979e-06
2	0	0	1	1	77.6582	0.0162769	0.0161806	-0.173815	1	0.00373374	40	24.1466	-2.81243e-06
2	0	0	1	1	78.158	0.0262722	0.0259669	-0.174349	1	0.0036467	40	24.6464	-4.5273e-06
2	0	0	1	1	78.6578	0.0362674	0.0359018	-0.169681	1	0.00356062	40	25.1462	-6.09184e-06
2	0	0	1	1	79.1575	0.0462627	0.0460125	-0.169006	1	0.00347607	40	25.6459	-7.7764e-06
2	0	0	1	1	79.6573	0.0562579	0.0559306	-0.167436	1	0.00339205	40	26.1457	-9.36481e-06
2	0	0	1	1	80.157	0.0662518	0.0659961	-0.166469	1	0.00330862	40	26.6454	-1.09863e-05
2	0	0	1	1	80.6568	0.0762484	0.076128	-0.165747	1	0.00322574	40	27.1452	-1.2618e-05
2	0	0	1	1	81.1566	0.0862437	0.0859458	-0.165424	1	0.00314296	40	27.645	-1.42175e-05
2	0	0	1	1	81.6563	0.0962389	0.0960596	-0.163424	1	0.00306079	40	28.1447	-1.56985e-05
2	0	0	1	1	82.1561	0.106234	0.10584	-0.159991	1	0.00298005	40	28.6445	-1.69335e-05
2	0	0	1	1	82.6559	0.116229	0.11587	-0.157576	1	0.00290067	40	29.1443	-1.82583e-05
2	0	0	1	1	83.1556	0.126225	0.126329	-0.154499	1	0.00282275	40	29.644	-1.95177e-05
2	0	0	1	1	83.6554	0.13622	0.135981	-0.152856	1	0.00274605	40	30.1438	-2.07856e-05
2	0	0	1	1	84.1552	0.146216	0.145965	-0.149795	1	0.00267047	40	30.6436	-2.18649e-05
2	0	0	1	1	84.6549	0.15621	0.155908	-0.148269	1	0.00259613	40	31.1433	-2.31163e-05
2	0	0	1	1	85.1547	0.166206	0.165976	-0.145037	1	0.00252285	40	31.6431	-2.40728e-05
2	0	0	1	1	85.6544	0.176201	0.175788	-0.14007	1	0.00245172	40	32.1428	-2.46226e-05
2	0	0	1	1	86.1542	0.186196	0.185861	-0.135966	1	0.00238267	40	32.6426	-2.52707e-05
2	0	0	1	1	86.654	0.196191	0.195882	-0.131364	1	0.0023159	40	33.1424	-2.57319e-05
2	0	0	1	1	87.1537	0.206187	0.20597	-0.126589	1	0.0022515	40	33.6421	-2.60736e-05
2	0	0	1	1	87.6535	0.216182	0.215993	-0.121484	1	0.00218956	40	34.1419	-2.62397e-05
2	0	0	1	1	88.1532	0.226176	0.225752	-0.116109	1	0.00213021	40	34.6416	-2.62118e-05
2	0	0	1	1	88.653	0.236172	0.235944	-0.110315	1	0.00207369	40	35.1414	-2.60281e-05
2	0	0	1	1	89.1528	0.246168	0.245901	-0.104604	1	0.00202004	40	35.6412	-2.57222e-05
2	0	0	1	1	89.6525	0.256163	0.255938	-0.0984691	1	0.00196929	40	36.1409	-2.52019e-05
2	0	0	1	1	90.1523	0.266158	0.265957	-0.0916443	1	0.00192182	40	36.6407	-2.43734e-05
2	0	0	1	1	90.6521	0.276153	0.276134	-0.0846943	1	0.00187783	40	37.1405	-2.3387e-05
2	0	0	1	1	91.1518	0.286149	0.285966	-0.0777401	1	0.00183732	40	37.6402	-2.2231e-05
2	0	0	1	1	91.6516	0.296144	0.295953	-0.0711023	1	0.00180018	40	38.14	-2.10429e-05
2	0	0	1	1	92.1514	0.30614	0.306072	-0.064298	1	0.00176643	40	38.6398	-1.96798e-05
2	0	0	1	1	92.6511	0.316134	0.315898	-0.0575974	1	0.00173605	40	39.1395	-1.81949e-05
2	0	0	1	1	93.1509	0.32613	0.325901	-0.0513116	1	0.00170889	40	39.6393	-1.67225e-05
2	0	0	1	1	93.6506	0.336125	0.3359	-0.045609	1	0.00168476	40	40.139	-1.53201e-05
2	0	0	1	1	94.1804	0.34672	0.346539	-0.0395875	1	0.00166226	41	40.6688	-1.37186e-05
2	0	0	1	1	94.6802	0.356716	0.356389	-0.0344139	1	0.00164381	41	41.1686	-1.22647e-05
2	0	0	1	1	95.1799	0.36671	0.366496	-0.029611	1	0.00162785	41	41.6683	-1.08523e-05
2	0	0	1	1	95.6797	0.376706	0.376439	-0.0251877	1	0.00161421	41	42.1681	-9.48161e-06
2	0	0	1	1	96.1794	0.386701	0.38625	-0.0210875	1	0.00160269	41	42.6678	-8.14505e-06
2	0	0	1	1	96.6792	0.396696	0.396599	-0.0173838	1	0.00159312	41	43.1676	-6.89439e-06
2	0	0	1	1	97.179	0.406691	0.406566	-0.0140258	1	0.00158531	41	43.6674	-5.70243e-06
2	0	0	1	1	97.6787	0.416686	0.416466	-0.010846	1	0.00157914	41	44.1671	-4.51699e-06
2	0	0	1	1	98.1785	0.426682	0.42628	-0.00795915	1	0.00157447	41	44.6669	-3.39283e-06
2	0	0	1	1	98.6782	0.436677	0.436365	-0.00526782	1	0.0015712	41	45.1666	-2.29869e-06
2	0	0	1	1	99.208	0.447272	0.44696	-0.00246775	1	0.00156917	42	45.6964	-1.10299e-06
2	1	0	1	1	99.7078	0.457267	0.457085	3.65337e-05	1	0.00156857	42	46.1962	1.6699e-08
2	1	0	1	1	100.182	0.466763	0.466476	0.00240504	2	0.00156915	42	0.4497	1.12189e-06
2	1	0	1	1	100.682	0.476758	0.476305	0.00494244	2	0.00157098	42	0.9495	2.3541e-06
2	1	0	1	1	101.182	0.486753	0.486252	0.00756373	2	0.0015741	42	1.4493	3.67788e-06
2	1	0	1	1	101.682	0.496748	0.496287	0.0103395	2	0.00157857	42	1.949	5.13138e-06
2	1	0	1	1	102.212	0.507343	0.507331	0.0134001	2	0.00158487	41	2.4788	6.79827e-06
2	1	0	1	1	102.711	0.517339	0.517179	0.0166349	2	0.00159241	41	2.9785	8.60321e-06
2	1	0	1	1	103.211	0.527334	0.52712	0.0201635	2	0.00160165	41	3.4783	1.06286e-05
2	1	0	1	1	103.711	0.537328	0.53697	0.0240584	2	0.00161274	41	3.978	1.29186e-05
2	1	0	1	1	104.211	0.547324	0.547093	0.0283538	2	0.00162587	41	4.4778	1.55122e-05
2	1	0	1	1	104.71	0.55732	0.557155	0.0330539	2	0.00164125	41	4.9776	1.84161e-05
2	1	0	1	1	105.21	0.567315	0.567045	0.0382604	2	0.00165909	41	5.4773	2.16953e-05
2	1	0	1	1	105.71	0.57731	0.577113	0.0438991	2	0.00167965	41	5.9771	2.53348e-05
2	1	0	1	1	106.21	0.587305	0.587091	0.0500528	2	0.00170317	41	6.4769	2.93855e-05
2	1	0	1	1	106.709	0.597301	0.597125	0.0565726	2	0.00172984	41	6.9766	3.37809e-05
2	1	0	1	1	107.209	0.607296	0.607022	0.0635676	2	0.0017599	41	7.4764	3.85869e-05
2	1	0	1	1	107.709	0.617292	0.61704	0.0708846	2	0.00179353	41	7.9762	4.37387e-05
2	1	0	1	1	108.209	0.627286	0.627067	0.0786127	2	0.00183093	41	8.4759	4.92954e-05
2	1	0	1	1	108.708	0.637282	0.637047	0.0862027	2	0.00187219	41	8.9757	5.49151e-05
2	1	0	1	1	109.208	0.647277	0.647114	0.0935132	2	0.00191715	41	9.4754	6.05137e-05
2	1	0	1	1	109.708	0.657272	0.657021	0.100592	2	0.00196574	41	9.9752	6.6091e-05
2	1	0	1	1	110.208	0.667267	0.666928	0.108051	2	0.00201793	41	10.475	7.20619e-05
2	1	0	1	1	110.737	0.677862	0.677606	0.115589	2	0.00207724	40	11.0047	7.83236e-05
2	1	0	1	1	111.237	0.687858	0.687502	0.122127	2	0.00213677	40	11.5045	8.39624e-05
2	1	0	1	1	111.737	0.697853	0.697558	0.127562	2	0.00219923	40	12.0042	8.89819e-05
2	1	0	1	1	112.237	0.707848	0.707607	0.133507	2	0.00226456	40	12.504	9.44705e-05
2	1	0	1	1	112.737	0.717843	0.717627	0.138531	2	0.00233261	40	13.0038	9.94134e-05
2	1	0	1	1	113.236	0.727839	0.727643	0.143542	2	0.00240315	40	13.5035	0.000104448
2	1	0	1	1	113.736	0.737834	0.737515	0.1484	2	0.00247611	40	14.0033	0.000109447
2	1	0	1	1	114.236	0.747828	0.747593	0.153463	2	0.00255164	40	14.503	0.000114728
2	1	0	1	1	114.736	0.757824	0.757545	0.15717	2	0.00262933	40	15.0028	0.000119063
2	1	0	1	1	115.235	0.76782	0.767697	0.160566	2	0.0027088	40	15.5026	0.000123266
2	1	0	1	1	115.735	0.777815	0.777484	0.164864	2	0.00279022	40	16.0023	0.000128179
2	1	0	1	1	116.235	0.78781	0.787529	0.168276	2	0.00287361	40	16.5021	0.000132522
2	1	0	1	1	116.735	0.797805	0.797502	0.171298	2	0.00295852	40	17.0019	0.000136611
2	1	0	1	1	117.234	0.8078	0.807248	0.173305	2	0.00304475	40	17.5016	0.0001399
2	1	0	1	1	117.734	0.817796	0.817361	0.175448	2	0.00313189	40	18.0014	0.000143404
2	1	0	1	1	118.234	0.827792	0.827628	0.17711	2	0.00322017	40	18.5012	0.000146581
2	1	0	1	1	118.734	0.837786	0.837498	0.178762	2	0.00330912	40	19.0009	0.000149713
2	1	0	1	1	119.233	0.847781	0.84761	0.180711	2	0.00339906	40	19.5007	0.000153172
2	1	0	1	1	119.733	0.857777	0.857519	0.181911	2	0.00348982	40	20.0004	0.000155992
2	1	0	1	1	120.233	0.867772	0.867526	0.182995	2	0.00358102	40	20.5002	0.000158753
2	1	0	1	1	120.733	0.877767	0.877492	0.18593	2	0.0036733	40	21	0.000163152
2	1	0	1	1	121.232	0.887763	0.88759	0.187302	2	0.00376665	40	21.4997	0.000166248
2	1	0	1	1	121.732	0.897758	0.897434	0.18945	2	0.00386078	40	21.9995	0.000170019
2	1	0	1	1	122.232	0.907752	0.907497	0.188903	2	0.00395555	40	22.4992	0.000171429
2	1	0	1	1	122.732	0.917748	0.9174	0.189586	2	0.00405014	40	22.999	0.000173927
2	1	0	1	1	123.232	0.927743	0.927376	0.190416	2	0.00414516	40	23.4988	0.000176587
2	1	0	1	1	123.731	0.937739	0.937463	0.190911	2	0.00424058	40	23.9985	0.000178972
2	1	0	1	1	124.231	0.947734	0.947674	0.190612	2	0.004336	40	24.4983	0.000180638
2	1	0	1	1	124.731	0.957729	0.957425	0.191188	2	0.00443144	40	24.9981	0.000183048
2	1	0	1	1	125.231	0.967724	0.967323	0.191553	2	0.00452708	40	25.4978	0.000185293
2	1	0	1	1	125.73	0.97772	0.977439	0.192466	2	0.00462296	40	25.9976	0.000188123
2	1	0	1	1	126.23	0.987716	0.987351	0.193111	2	0.00471953	40	26.4974	0.000190669
2	1	0	1	1	126.73	0.99771	0.997296	0.192852	2	0.0048159	40	26.9971	0.00019233
2	1	0	1	1	127.208	0.992713	0.992495	0.191857	2	0.00490792	40	27.4751	0.000190418
2	1	0	1	1	127.708	0.982717	0.982253	0.191141	2	0.00500351	40	27.9748	0.000187748
2	1	0	1	1	128.207	0.972722	0.97234	0.190229	2	0.00509886	40	28.4746	0.000184968
2	1	0	1	1	128.707	0.962727	0.962422	0.188565	2	0.00519334	40	28.9744	0.000181479
2	1	0	1	1	129.207	0.952732	0.952444	0.187065	2	0.00528715	40	29.4741	0.000178169
2	1	0	1	1	129.707	0.942736	0.942459	0.18643	2	0.00538042	40	29.9739	0.000175702
2	1	0	1	1	130.206	0.932741	0.932578	0.185126	2	0.00547323	40	30.4736	0.000172644
2	1	0	1	1	130.706	0.922746	0.922512	0.184034	2	0.00556551	40	30.9734	0.000169774
2	1	0	1	1	131.206	0.91275	0.912373	0.183401	2	0.00565737	40	31.4732	0.00016733
2	1	0	1	1	131.706	0.902755	0.902444	0.182598	2	0.00574884	40	31.9729	0.000164785
2	1	0	1	1	132.205	0.89276	0.892528	0.183419	2	0.00584005	40	32.4727	0.000163706
2	1	0	1	1	132.705	0.882765	0.882509	0.182134	2	0.00593138	40	32.9725	0.000160735
2	1	0	1	1	133.205	0.87277	0.872513	0.179588	2	0.00602174	40	33.4722	0.000156693
2	1	0	1	1	133.705	0.862774	0.862612	0.177681	2	0.00611094	40	33.972	0.000153269
2	1	0	1	1	134.204	0.852779	0.85245	0.176174	2	0.00619931	40	34.4717	0.00015018
2	1	0	1	1	134.704	0.842784	0.842553	0.175131	2	0.00628716	40	34.9715	0.000147557
2	1	0	1	1	135.204	0.832789	0.832461	0.171862	2	0.00637375	40	35.4713	0.000143068
2	1	0	1	1	135.704	0.822793	0.822549	0.168923	2	0.00645887	40	35.971	0.000138947
2	1	0	1	1	136.204	0.812798	0.812261	0.165541	2	0.00654244	40	36.4708	0.000134463
2	1	0	1	1	136.703	0.802803	0.802547	0.16228	2	0.00662421	40	36.9706	0.000130237
2	1	0	1	1	137.203	0.792808	0.792343	0.159795	2	0.0067047	40	37.4703	0.000126613
2	1	0	1	1	137.703	0.782812	0.782535	0.155759	2	0.00678362	40	37.9701	0.000121887
2	1	0	1	1	138.203	0.772817	0.772502	0.150171	2	0.00685999	40	38.4698	0.000116008
2	1	0	1	1	138.702	0.762822	0.762682	0.146626	2	0.00693418	40	38.9696	0.000111829
2	1	0	1	1	139.202	0.752827	0.75238	0.141868	2	0.00700619	40	39.4694	0.000106739
2	1	0	1	1	139.702	0.742831	0.74262	0.137594	2	0.00707589	40	39.9691	0.00010218
2	1	0	1	1	140.202	0.732836	0.732445	0.134326	2	0.00714379	40	40.4689	9.83867e-05
2	1	0	1	1	140.701	0.722841	0.72262	0.12868	2	0.0072095	40	40.9687	9.29868e-05
2	1	0	1	1	141.201	0.712846	0.712428	0.12271	2	0.00727222	40	41.4684	8.74222e-05
2	1	0	1	1	141.701	0.70285	0.70254	0.116931	2	0.00733206	40	41.9682	8.2149e-05
2	1	0	1	1	142.201	0.692855	0.692636	0.110662	2	0.00738888	40	42.4679	7.66487e-05
2	1	0	1	1	142.7	0.68286	0.682465	0.104634	2	0.0074426	40	42.9677	7.1409e-05
2	1	0	1	1	143.2	0.672865	0.672497	0.0976938	2	0.00749314	40	43.4675	6.56987e-05
2	1	0	1	1	143.7	0.662869	0.662539	0.0909747	2	0.00754017	40	43.9672	6.02743e-05
2	1	0	1	1	144.2	0.652874	0.652511	0.0840865	2	0.00758384	40	44.467	5.48674e-05
2	1	0	1	1	144.7	0.642879	0.642528	0.0771215	2	0.00762406	40	44.9668	4.95527e-05
2	1	0	1	1	145.199	0.632884	0.632558	0.0704412	2	0.00766088	40	45.4665	4.45581e-05
2	1	0	1	1	145.699	0.622888	0.622726	0.0637294	2	0.00769437	40	45.9663	3.96859e-05
2	1	0	1	1	146.199	0.612893	0.612809	0.0571125	2	0.00772452	40	46.466	3.4999e-05
2	1	0	1	1	146.699	0.602898	0.602647	0.0508647	2	0.00775146	40	46.9658	3.06534e-05
2	1	0	1	1	147.198	0.592903	0.592631	0.044908	2	0.00777533	40	47.4656	2.66139e-05
2	1	0	1	1	147.728	0.582308	0.582038	0.0391511	2	0.00779752	41	47.9953	2.27875e-05
2	1	0	1	1	148.228	0.572312	0.57208	0.0341171	2	0.00781575	41	48.4951	1.95177e-05
2	1	0	1	1	148.728	0.562317	0.561954	0.0294561	2	0.00783155	41	48.9948	1.6553e-05
2	1	0	1	1	149.227	0.552322	0.552131	0.0251818	2	0.00784512	41	49.4946	1.39037e-05
2	1	0	1	1	149.727	0.542327	0.541768	0.0213188	2	0.00785667	41	49.9944	1.15498e-05
2	1	0	1	1	150.227	0.532331	0.531944	0.0177618	2	0.00786635	41	50.4941	9.44827e-06
2	1	0	1	1	150.727	0.522336	0.521975	0.0145341	2	0.00787434	41	50.9939	7.58645e-06
2	1	0	1	1	151.226	0.512342	0.512206	0.0115507	2	0.00788079	41	51.4936	5.91633e-06
2	1	0	1	1	151.726	0.502346	0.501817	0.00876988	2	0.0078858	41	51.9934	4.40087e-06
2	1	0	1	1	152.226	0.49235	0.491945	0.00617897	2	0.00788948	41	52.4932	3.03972e-06
2	1	0	1	1	152.756	0.481756	0.481468	0.00344952	2	0.007892	42	53.0229	1.66083e-06
2	1	0	1	1	153.255	0.47176	0.471452	0.00106087	2	0.00789312	42	53.5227	5.0015e-07
2	0	0	1	1	153.755	0.461765	0.461479	-0.00129858	2	0.00789306	42	0.2498	-5.99267e-07
2	0	0	1	1	154.255	0.45177	0.451284	-0.00367523	2	0.00789182	42	0.7496	-1.65858e-06
2	0	0	1	1	154.755	0.441775	0.441221	-0.00612252	2	0.00788938	42	1.2494	-2.70139e-06
2	0	0	1	1	155.254	0.431779	0.431563	-0.00869539	2	0.00788568	42	1.7491	-3.7526e-06
2	0	0	1	1	155.784	0.421184	0.421291	-0.0115648	2	0.0078803	41	2.2789	-4.87213e-06
2	0	0	1	1	156.284	0.41119	0.410836	-0.0145794	2	0.00787375	41	2.7786	-5.98974e-06
2	0	0	1	1	156.784	0.401194	0.400846	-0.0178941	2	0.00786562	41	3.2784	-7.17276e-06
2	0	0	1	1	157.284	0.391199	0.390978	-0.0215679	2	0.00785573	41	3.7782	-8.4326e-06
2	0	0	1	1	157.783	0.381203	0.380786	-0.0256589	2	0.00784392	41	4.2779	-9.77054e-06
2	0	0	1	1	158.283	0.371208	0.370728	-0.0301686	2	0.00782996	41	4.7777	-1.11844e-05
2	0	0	1	1	158.783	0.361213	0.36081	-0.0351406	2	0.00781362	41	5.2775	-1.26791e-05
2	0	0	1	1	159.283	0.351218	0.350907	-0.0406058	2	0.00779469	41	5.7772	-1.42489e-05
2	0	0	1	1	159.782	0.341222	0.340855	-0.04654	2	0.00777289	41	6.277	-1.58634e-05
2	0	0	1	1	160.282	0.331225	0.330804	-0.0529564	2	0.00774802	41	6.7768	-1.75182e-05
2	0	0	1	1	160.782	0.321232	0.320906	-0.0597353	2	0.00771984	41	7.2765	-1.91694e-05
2	0	0	1	1	161.282	0.311237	0.310781	-0.066921	2	0.00768817	41	7.7763	-2.07978e-05
2	0	0	1	1	161.781	0.301241	0.301246	-0.0744425	2	0.00765283	41	8.276	-2.24255e-05
2	0	0	1	1	162.281	0.291246	0.290869	-0.0819908	2	0.0076137	41	8.7758	-2.38486e-05
2	0	0	1	1	162.781	0.281251	0.280755	-0.0895886	2	0.0075708	41	9.2756	-2.51525e-05
2	0	0	1	1	163.281	0.271256	0.270948	-0.0971532	2	0.0075241	41	9.7753	-2.63235e-05
2	0	0	1	1	163.78	0.26126	0.261166	-0.104298	2	0.00747372	41	10.2751	-2.72392e-05
2	0	0	1	1	164.31	0.250665	0.250259	-0.111619	2	0.00741648	40	10.8048	-2.79337e-05
2	0	0	1	1	164.81	0.24067	0.240434	-0.118074	2	0.00735901	40	11.3046	-2.8389e-05
2	0	0	1	1	165.31	0.230675	0.230391	-0.124029	2	0.00729838	40	11.8044	-2.85752e-05
2	0	0	1	1	165.809	0.22068	0.220421	-0.129828	2	0.00723488	40	12.3041	-2.86168e-05
2	0	0	1	1	166.309	0.210684	0.210313	-0.135114	2	0.00716863	40	12.8039	-2.84163e-05
2	0	0	1	1	166.809	0.200689	0.20038	-0.139989	2	0.0070998	40	13.3036	-2.8051e-05
2	0	0	1	1	167.309	0.190694	0.190335	-0.144517	2	0.00702862	40	13.8034	-2.75066e-05
2	0	0	1	1	167.809	0.180699	0.180326	-0.14837	2	0.00695535	40	14.3032	-2.67549e-05
2	0	0	1	1	168.308	0.170703	0.170398	-0.151673	2	0.00688034	40	14.8029	-2.58449e-05
2	0	0	1	1	168.808	0.160708	0.160364	-0.15465	2	0.00680368	40	15.3027	-2.48003e-05
2	0	0	1	1	169.308	0.150715	0.15044	-0.157327	2	0.00672569	40	15.8024	-2.36683e-05
2	0	0	1	1	169.808	0.140718	0.14041	-0.159619	2	0.00664642	40	16.3022	-2.2412e-05
2	0	0	1	1	170.307	0.130723	0.130316	-0.161774	2	0.00656594	40	16.802	-2.10819e-05
2	0	0	1	1	170.807	0.120727	0.120584	-0.162822	2	0.00648479	40	17.3017	-1.96338e-05
2	0	0	1	1	171.307	0.110732	0.110512	-0.164784	2	0.00640285	40	17.8015	-1.82106e-05
2	0	0	1	1	171.807	0.100737	0.100465	-0.166082	2	0.00632007	40	18.3013	-1.66853e-05
2	0	0	1	1	172.306	0.0907415	0.0904217	-0.167489	2	0.00623673	40	18.801	-1.51446e-05
2	0	0	1	1	172.806	0.0807463	0.0805561	-0.169076	2	0.00615261	40	19.3008	-1.36201e-05
2	0	0	1	1	173.306	0.0707506	0.0704764	-0.170017	2	0.00606788	40	19.8006	-1.19822e-05
2	0	0	1	1	173.806	0.0607558	0.0602478	-0.170776	2	0.00598267	40	20.3003	-1.02889e-05
2	0	0	1	1	174.305	0.0507605	0.0504111	-0.171733	2	0.00589702	40	20.8001	-8.65724e-06
2	0	0	1	1	174.805	0.0407653	0.0404692	-0.173629	2	0.00581067	40	21.2998	-7.0266e-06
2	0	0	1	1	175.305	0.03077	0.0302783	-0.174778	2	0.00572351	40	21.7996	-5.29198e-06
2	0	0	1	1	175.805	0.0207748	0.0205669	-0.17508	2	0.00563609	40	22.2994	-3.60085e-06
2	0	0	1	1	176.304	0.0107795	0.0106562	-0.175889	2	0.00554822	40	22.7991	-1.87431e-06
2	0	0	1	1	176.804	0.000784296	0.000605029	-0.175275	2	0.00546065	40	23.2989	-1.06047e-07
2	0	0	1	0	177.282	0.00878049	0.00865347	-0.1749	2	0.00537718	40	23.7768	-1.51349e-06
2	0	0	1	0	177.782	0.0187757	0.0184981	-0.173036	2	0.00529013	40	24.2766	-3.20085e-06
2	0	0	1	0	178.282	0.028771	0.0284334	-0.171168	2	0.00520432	40	24.7763	-4.86688e-06
2	0	0	1	0	178.781	0.0387662	0.0385294	-0.171606	2	0.00511882	40	25.2761	-6.61189e-06
2	0	0	1	0	179.281	0.0487615	0.0483426	-0.170017	2	0.00503321	40	25.7759	-8.21908e-06
2	0	0	1	0	179.781	0.0587567	0.0585628	-0.166561	2	0.0049493	40	26.2756	-9.7543e-06
2	0	0	1	0	180.281	0.068752	0.0685707	-0.16724	2	0.00486607	40	26.7754	-1.14678e-05
2	0	0	1	0	180.781	0.0787472	0.0785734	-0.166365	2	0.00478267	40	27.2752	-1.30719e-05
2	0	0	1	0	181.28	0.0887425	0.0884173	-0.164384	2	0.0047	40	27.7749	-1.45344e-05
2	0	0	1	0	181.78	0.0987377	0.0984614	-0.162982	2	0.00461828	40	28.2747	-1.60474e-05
2	0	0	1	0	182.28	0.108733	0.108578	-0.161916	2	0.00453709	40	28.7744	-1.75805e-05
2	0	0	1	0	182.78	0.118728	0.118392	-0.160417	2	0.00445656	40	29.2742	-1.89921e-05
2	0	0	1	0	183.279	0.128723	0.128465	-0.156079	2	0.00437749	40	29.774	-2.00508e-05
2	0	0	1	0	183.779	0.138719	0.138524	-0.152767	2	0.00430065	40	30.2737	-2.11618e-05
2	0	0	1	0	184.279	0.148714	0.148498	-0.149315	2	0.00422511	40	30.7735	-2.2173e-05
2	0	0	1	0	184.779	0.158707	0.158468	-0.146262	2	0.00415138	40	31.2732	-2.31779e-05
2	0	0	1	0	185.278	0.168704	0.168477	-0.14352	2	0.00407893	40	31.773	-2.41799e-05
2	0	0	1	0	185.778	0.1787	0.178385	-0.140033	2	0.0040081	40	32.2728	-2.49798e-05
2	0	0	1	0	186.278	0.188695	0.188394	-0.135926	2	0.00393919	40	32.7725	-2.56076e-05
2	0	0	1	0	186.778	0.19869	0.198306	-0.131154	2	0.00387246	40	33.2723	-2.60085e-05
2	0	0	1	0	187.277	0.208685	0.208455	-0.126468	2	0.00380814	40	33.7721	-2.63629e-05
2	0	0	1	0	187.777	0.218681	0.218402	-0.121541	2	0.00374623	40	34.2718	-2.65448e-05
2	0	0	1	0	188.277	0.228676	0.228428	-0.115804	2	0.00368698	40	34.7716	-2.64528e-05
2	0	0	1	0	188.777	0.238671	0.238308	-0.110091	2	0.00363059	40	35.2714	-2.62356e-05
2	0	0	1	0	189.276	0.248666	0.248327	-0.103568	2	0.00357728	40	35.7711	-2.57187e-05
2	0	0	1	0	189.776	0.258662	0.258491	-0.0970261	2	0.00352723	40	36.2709	-2.50803e-05
2	0	0	1	0	190.276	0.268657	0.268489	-0.0903689	2	0.00348047	40	36.7706	-2.42631e-05
2	0	0	1	0	190.776	0.278652	0.278292	-0.0837881	2	0.003437	40	37.2704	-2.33176e-05
2	0	0	1	0	191.276	0.288647	0.288322	-0.0765382	2	0.00339698	40	37.7702	-2.20676e-05
2	0	0	1	0	191.775	0.298643	0.298445	-0.0697075	2	0.0033605	40	38.2699	-2.08039e-05
2	0	0	1	0	192.275	0.308638	0.308252	-0.0629392	2	0.00332735	40	38.7697	-1.94012e-05
2	0	0	1	0	192.775	0.318632	0.318295	-0.0565922	2	0.00329751	40	39.2694	-1.8013e-05
2	0	0	1	0	193.275	0.328628	0.328429	-0.050372	2	0.00327082	40	39.7692	-1.65436e-05
2	0	0	1	0	193.804	0.339223	0.339149	-0.0441399	2	0.0032458	41	40.299	-1.497e-05
2	0	0	1	0	194.304	0.349219	0.34884	-0.0386161	2	0.00322517	41	40.7987	-1.34709e-05
2	0	0	1	0	194.804	0.359214	0.359244	-0.0334965	2	0.00320719	41	41.2985	-1.20334e-05
2	0	0	1	0	195.304	0.369208	0.368992	-0.0287122	2	0.00319169	41	41.7982	-1.05946e-05
2	0	0	1	0	195.803	0.379204	0.378842	-0.0243362	2	0.00317848	41	42.298	-9.21955e-06
2	0	0	1	0	196.303	0.3892	0.389062	-0.0203581	2	0.00316735	41	42.7978	-7.92057e-06
2	0	0	1	0	196.803	0.399195	0.398766	-0.0166698	2	0.00315815	41	43.2975	-6.64735e-06
2	0	0	1	0	197.303	0.40919	0.408878	-0.0132861	2	0.0031507	41	43.7973	-5.43238e-06
2	0	0	1	0	197.802	0.419185	0.418951	-0.0102084	2	0.00314486	41	44.2971	-4.27682e-06
2	0	0	1	0	198.302	0.429181	0.429002	-0.0073485	2	0.00314051	41	44.7968	-3.15252e-06
2	0	0	1	0	198.802	0.439176	0.438982	-0.00467039	2	0.00313754	41	45.2966	-2.05022e-06
2	0	0	1	0	199.332	0.449771	0.449603	-0.00186476	2	0.00313583	42	45.8263	-8.38403e-07
2	1	0	1	0	199.831	0.459766	0.459584	0.000651851	2	0.00313553	42	0.0999	2.9958e-07
2	1	0	1	0	200.306	0.469261	0.468837	0.00304817	3	0.00313641	42	0.5747	1.4291e-06
2	1	0	1	0	200.806	0.479257	0.478922	0.00561985	3	0.00313857	42	1.0744	2.69147e-06
2	1	0	1	0	201.306	0.489252	0.488911	0.00828929	3	0.00314205	42	1.5742	4.05273e-06
2	1	0	1	0	201.836	0.499849	0.49966	0.0112283	3	0.00314723	41	2.104	5.61035e-06
2	1	0	1	0	202.335	0.509842	0.5095	0.0142662	3	0.00315363	41	2.6037	7.26861e-06
2	1	0	1	0	202.835	0.519837	0.519648	0.017603	3	0.00316162	41	3.1035	9.14735e-06
2	1	0	1	0	203.335	0.529833	0.529548	0.0212203	3	0.00317135	41	3.6032	1.12372e-05
2	1	0	1	0	203.835	0.539828	0.539529	0.0252106	3	0.00318298	41	4.103	1.36018e-05
2	1	0	1	0	204.334	0.549823	0.549688	0.0295939	3	0.00319671	41	4.6028	1.62674e-05
2	1	0	1	0	204.834	0.559818	0.559375	0.0344219	3	0.00321274	41	5.1025	1.92547e-05
2	1	0	1	0	205.334	0.569814	0.569616	0.039736	3	0.0032313	41	5.6023	2.26343e-05
2	1	0	1	0	205.834	0.579809	0.579611	0.0455598	3	0.00325265	41	6.102	2.6407e-05
2	1	0	1	0	206.333	0.589804	0.589356	0.0519128	3	0.00327704	41	6.6018	3.05951e-05
2	1	0	1	0	206.833	0.599799	0.599607	0.0586974	3	0.00330472	41	7.1016	3.51954e-05
2	1	0	1	0	207.333	0.609795	0.609296	0.0657988	3	0.00333585	41	7.6013	4.0091e-05
2	1	0	1	0	207.833	0.61979	0.619626	0.0733108	3	0.00337066	41	8.1011	4.54252e-05
2	1	0	1	0	208.332	0.629783	0.62933	0.0807405	3	0.0034092	41	8.6008	5.08124e-05
2	1	0	1	0	208.832	0.63978	0.63945	0.0881848	3	0.00345146	41	9.1006	5.63898e-05
2	1	0	1	0	209.332	0.649776	0.649459	0.0955796	3	0.00349744	41	9.6004	6.20751e-05
2	1	0	1	0	209.832	0.659773	0.659461	0.102824	3	0.00354709	41	10.1002	6.78084e-05
2	1	0	1	0	210.361	0.670366	0.670224	0.110396	3	0.00360364	40	10.6299	7.39901e-05
2	1	0	1	0	210.861	0.680359	0.680079	0.116946	3	0.00366051	40	11.1296	7.95322e-05
2	1	0	1	0	211.361	0.690356	0.69008	0.123217	3	0.0037206	40	11.6294	8.50295e-05
2	1	0	1	0	211.861	0.700352	0.700051	0.129426	3	0.00378379	40	12.1292	9.06052e-05
2	1	0	1	0	212.36	0.710347	0.709984	0.135074	3	0.00384994	40	12.6289	9.59005e-05
2	1	0	1	0	212.86	0.720342	0.719963	0.140545	3	0.00391886	40	13.1287	0.000101187
2	1	0	1	0	213.36	0.730337	0.729998	0.146237	3	0.00399055	40	13.6285	0.000106753
2	1	0	1	0	213.86	0.740333	0.740231	0.150047	3	0.00406477	40	14.1282	0.000111069
2	1	0	1	0	214.36	0.750328	0.749843	0.154025	3	0.00414073	40	14.628	0.000115495
2	1	0	1	0	214.859	0.760324	0.760046	0.158158	3	0.00421885	40	15.1278	0.000120207
2	1	0	1	0	215.359	0.770318	0.770237	0.161532	3	0.00429884	40	15.6275	0.000124418
2	1	0	1	0	215.859	0.780314	0.779975	0.163923	3	0.00438027	40	16.1273	0.000127855
2	1	0	1	0	216.359	0.790309	0.789966	0.167939	3	0.00446315	40	16.627	0.000132666
2	1	0	1	0	216.858	0.800304	0.799791	0.173049	3	0.00454846	40	17.1268	0.000138403
2	1	0	1	0	217.358	0.810299	0.809708	0.17637	3	0.0046359	40	17.6266	0.000142809
2	1	0	1	0	217.858	0.820295	0.819943	0.176354	3	0.00472416	40	18.1263	0.0001446
2	1	0	1	0	218.358	0.83029	0.829987	0.176582	3	0.00481247	40	18.6261	0.000146561
2	1	0	1	0	218.857	0.840284	0.840292	0.178461	3	0.00490095	40	19.1258	0.000149959
2	1	0	1	0	219.357	0.85028	0.849892	0.182361	3	0.00499132	40	19.6256	0.000154988
2	1	0	1	0	219.857	0.860276	0.859922	0.183611	3	0.00508284	40	20.1254	0.000157891
2	1	0	1	0	220.357	0.870271	0.869924	0.18484	3	0.00517496	40	20.6251	0.000160797
2	1	0	1	0	220.856	0.880266	0.879958	0.186385	3	0.00526772	40	21.1249	0.000164011
2	1	0	1	0	221.356	0.890261	0.889868	0.186867	3	0.00536129	40	21.6247	0.000166287
2	1	0	1	0	221.856	0.900256	0.900082	0.187379	3	0.00545474	40	22.1244	0.000168657
2	1	0	1	0	222.356	0.910252	0.909927	0.18792	3	0.00554844	40	22.6242	0.000170994
2	1	0	1	0	222.856	0.920248	0.919781	0.188485	3	0.00564276	40	23.124	0.000173365
2	1	0	1	0	223.355	0.930242	0.929838	0.188688	3	0.00573683	40	23.6237	0.00017545
2	1	0	1	0	223.855	0.940238	0.939842	0.190987	3	0.00583174	40	24.1235	0.000179498
2	1	0	1	0	224.355	0.950233	0.950066	0.191592	3	0.00592746	40	24.6232	0.000182025
2	1	0	1	0	224.855	0.960228	0.959805	0.192074	3	0.00602336	40	25.123	0.000184354
2	1	0	1	0	225.354	0.970223	0.970002	0.192246	3	0.00611951	40	25.6228	0.000186479
2	1	0	1	0	225.854	0.980219	0.979752	0.192308	3	0.00621568	40	26.1225	0.000188414
2	1	0	1	0	226.354	0.990214	0.989959	0.193302	3	0.00631217	40	26.6223	0.000191361
2	1	0	0	0	226.843	0.999984	0.999613	0.193335	3	0.00640653	40	27.1114	0.00019326
2	1	0	1	0	227.332	0.990214	0.989886	0.191661	3	0.00650018	40	27.6	0.000189722
2	1	0	1	0	227.831	0.980219	0.980156	0.190192	3	0.00659561	40	28.0998	0.000186418
2	1	0	1	0	228.331	0.970223	0.969881	0.19022	3	0.00669063	40	28.5995	0.000184491
2	1	0	1	0	228.831	0.960228	0.959913	0.189014	3	0.00678543	40	29.0993	0.000181437
2	1	0	1	0	229.331	0.950233	0.949942	0.187333	3	0.00687944	40	29.5991	0.000177956
2	1	0	1	0	229.83	0.940237	0.939907	0.186108	3	0.0069727	40	30.0988	0.000174925
2	1	0	1	0	230.33	0.930242	0.929954	0.185225	3	0.00706537	40	30.5986	0.000172251
2	1	0	1	0	230.83	0.920246	0.91994	0.185383	3	0.00715798	40	31.0984	0.000170542
2	1	0	1	0	231.33	0.910252	0.909923	0.184459	3	0.00725028	40	31.5981	0.000167844
2	1	0	1	0	231.829	0.900257	0.900097	0.183194	3	0.00734214	40	32.0979	0.000164892
2	1	0	1	0	232.329	0.890261	0.889826	0.180612	3	0.00743301	40	32.5976	0.000160713
2	1	0	1	0	232.829	0.880266	0.879782	0.179477	3	0.00752298	40	33.0974	0.000157901
2	1	0	1	0	233.329	0.870271	0.870074	0.177237	3	0.00761213	40	33.5972	0.000154209
2	1	0	1	0	233.828	0.860276	0.859971	0.17654	3	0.0077004	40	34.0969	0.000151819
2	1	0	1	0	234.328	0.85028	0.849859	0.174904	3	0.00778821	40	34.5967	0.000148643
2	1	0	1	0	234.828	0.840285	0.840049	0.172837	3	0.007875	40	35.0964	0.000145191
2	1	0	1	0	235.328	0.83029	0.829967	0.170378	3	0.00796076	40	35.5962	0.000141408
2	1	0	1	0	235.828	0.820295	0.81997	0.167966	3	0.00804526	40	36.096	0.000137727
2	1	0	1	0	236.327	0.810299	0.809743	0.164969	3	0.00812848	40	36.5957	0.000133583
2	1	0	1	0	236.827	0.800304	0.799935	0.161994	3	0.00820998	40	37.0955	0.000129585
2	1	0	1	0	237.327	0.790309	0.789807	0.159726	3	0.00829035	40	37.5953	0.000126153
2	1	0	1	0	237.827	0.780314	0.77988	0.155647	3	0.00836908	40	38.095	0.000121386
2	1	0	1	0	238.326	0.770318	0.769922	0.151859	3	0.0084458	40	38.5948	0.000116919
2	1	0	1	0	238.826	0.760321	0.759998	0.14767	3	0.00852071	40	39.0946	0.000112229
2	1	0	1	0	239.326	0.750328	0.75004	0.14124	3	0.00859283	40	39.5943	0.000105936
2	1	0	1	0	239.826	0.740333	0.739952	0.137491	3	0.00866249	40	40.0941	0.000101737
2	1	0	1	0	240.325	0.730337	0.72997	0.132482	3	0.00872992	40	40.5938	9.6708e-05
2	1	0	1	0	240.825	0.720342	0.7198	0.127251	3	0.00879474	40	41.0936	9.15953e-05
2	1	0	1	0	241.325	0.710347	0.710087	0.12198	3	0.00885699	40	41.5934	8.66164e-05
2	1	0	1	0	241.825	0.700352	0.699953	0.116301	3	0.00891648	40	42.0931	8.14052e-05
2	1	0	1	0	242.324	0.690356	0.690031	0.109741	3	0.00897294	40	42.5929	7.57246e-05
2	1	0	1	0	242.824	0.680361	0.680219	0.10321	3	0.00902604	40	43.0926	7.0205e-05
2	1	0	1	0	243.324	0.670366	0.669989	0.0963848	3	0.00907583	40	43.5924	6.45767e-05
2	1	0	1	0	243.824	0.660371	0.660049	0.0897706	3	0.00912226	40	44.0922	5.9253e-05
2	1	0	1	0	244.323	0.650375	0.650239	0.0830386	3	0.00916537	40	44.5919	5.39949e-05
2	1	0	1	0	244.823	0.64038	0.640235	0.0760054	3	0.00920508	40	45.0917	4.86613e-05
2	1	0	1	0	245.323	0.630385	0.630268	0.0689797	3	0.00924125	40	45.5915	4.34757e-05
2	1	0	1	0	245.823	0.62039	0.620047	0.0621687	3	0.00927397	40	46.0912	3.85476e-05
2	1	0	1	0	246.323	0.610394	0.610022	0.0558189	3	0.00930337	40	46.591	3.40507e-05
2	1	0	1	0	246.822	0.600399	0.600198	0.0495232	3	0.00932962	40	47.0907	2.97237e-05
2	1	0	1	0	247.352	0.589804	0.589421	0.0434201	3	0.00935417	41	47.6205	2.55927e-05
2	1	0	1	0	247.852	0.579811	0.579528	0.0380349	3	0.00937443	41	48.1202	2.20423e-05
2	1	0	1	0	248.352	0.569814	0.569483	0.0330734	3	0.00939211	41	48.62	1.88347e-05
2	1	0	1	0	248.851	0.559818	0.559924	0.0284955	3	0.00940741	41	49.1198	1.59553e-05
2	1	0	1	0	249.351	0.549823	0.549403	0.0243389	3	0.00942053	41	49.6195	1.33719e-05
2	1	0	1	0	249.851	0.539828	0.539648	0.0205264	3	0.00943167	41	50.1193	1.1077e-05
2	1	0	1	0	250.351	0.529833	0.529692	0.0170087	3	0.00944098	41	50.6191	9.00934e-06
2	1	0	1	0	250.85	0.519837	0.519521	0.0138369	3	0.00944862	41	51.1188	7.18856e-06
2	1	0	1	0	251.35	0.509842	0.509673	0.0108738	3	0.00945473	41	51.6186	5.54209e-06
2	1	0	1	0	251.85	0.499846	0.499537	0.00814874	3	0.00945943	41	52.1184	4.0706e-06
2	1	0	1	0	252.35	0.489852	0.489706	0.00557052	3	0.0094628	41	52.6181	2.72792e-06
2	1	0	1	0	252.879	0.479257	0.478644	0.00287657	3	0.00946501	42	53.1479	1.37685e-06
2	1	0	1	0	253.379	0.469261	0.468984	0.000487387	3	0.00946584	42	53.6476	2.28577e-07
2	0	0	1	0	253.879	0.459266	0.458912	-0.00188963	3	0.00946549	42	0.3748	-8.67173e-07
2	0	0	1	0	254.379	0.44927	0.44899	-0.00429507	3	0.00946395	42	0.8746	-1.92844e-06
2	0	0	1	0	254.878	0.439276	0.438908	-0.00677896	3	0.00946118	42	1.3743	-2.97534e-06
2	0	0	1	0	255.378	0.42928	0.429039	-0.00940635	3	0.00945714	42	1.8741	-4.03569e-06
2	0	0	1	0	255.908	0.418686	0.41826	-0.0123324	3	0.00945138	41	2.4038	-5.15816e-06
2	0	0	1	0	256.408	0.40869	0.40819	-0.0154507	3	0.00944441	41	2.9036	-6.30683e-06
2	0	0	1	0	256.908	0.398694	0.398554	-0.0188943	3	0.0094358	41	3.4034	-7.53039e-06
2	0	0	1	0	257.407	0.3887	0.388388	-0.0226933	3	0.0094254	41	3.9031	-8.81382e-06
2	0	0	1	0	257.907	0.378705	0.378167	-0.0268965	3	0.00941299	41	4.4029	-1.01714e-05
2	0	0	1	0	258.407	0.368709	0.368443	-0.0315364	3	0.00939837	41	4.9026	-1.16194e-05
2	0	0	1	0	258.907	0.358714	0.358489	-0.0366647	3	0.00938132	41	5.4024	-1.31439e-05
2	0	0	1	0	259.406	0.348719	0.348461	-0.042283	3	0.00936159	41	5.9022	-1.4734e-05
2	0	0	1	0	259.906	0.338724	0.338464	-0.0483595	3	0.00933893	41	6.4019	-1.63679e-05
2	0	0	1	0	260.406	0.328728	0.328554	-0.0549084	3	0.00931311	41	6.9017	-1.80403e-05
2	0	0	1	0	260.906	0.318734	0.318584	-0.0618532	3	0.00928392	41	7.4014	-1.97054e-05
2	0	0	1	0	261.405	0.308738	0.308565	-0.0691157	3	0.00925119	41	7.9012	-2.13267e-05
2	0	0	1	0	261.905	0.298743	0.298581	-0.0766268	3	0.00921474	41	8.401	-2.28793e-05
2	0	0	1	0	262.405	0.288747	0.288253	-0.0840396	3	0.00917459	41	8.9007	-2.42247e-05
2	0	0	1	0	262.905	0.278752	0.278465	-0.0917546	3	0.00913062	41	9.4005	-2.55504e-05
2	0	0	1	0	263.404	0.268757	0.268675	-0.0989181	3	0.00908294	41	9.9003	-2.65768e-05
2	0	0	1	0	263.904	0.258762	0.258385	-0.105772	3	0.00903177	41	10.4	-2.73299e-05
2	0	0	1	0	264.434	0.248167	0.247878	-0.113124	3	0.00897373	40	10.9298	-2.80408e-05
2	0	0	1	0	264.934	0.238171	0.237829	-0.11933	3	0.00891556	40	11.4295	-2.83801e-05
2	0	0	1	0	265.433	0.228176	0.227929	-0.125092	3	0.0088544	40	11.9293	-2.8512e-05
2	0	0	1	0	265.933	0.218181	0.217705	-0.130647	3	0.00879039	40	12.4291	-2.84426e-05
2	0	0	1	0	266.433	0.208186	0.207964	-0.13581	3	0.00872371	40	12.9288	-2.82435e-05
2	0	0	1	0	266.933	0.19819	0.197898	-0.139991	3	0.00865474	40	13.4286	-2.7704e-05
2	0	0	1	0	267.433	0.188193	0.187869	-0.144361	3	0.00858358	40	13.9284	-2.71209e-05
2	0	0	1	0	267.932	0.1782	0.177979	-0.148078	3	0.00851051	40	14.4281	-2.63548e-05
2	0	0	1	0	268.432	0.168205	0.167905	-0.152881	3	0.00843526	40	14.9279	-2.56695e-05
2	0	0	1	0	268.932	0.158209	0.157708	-0.156191	3	0.00835778	40	15.4276	-2.46325e-05
2	0	0	1	0	269.432	0.148214	0.147998	-0.15778	3	0.00827924	40	15.9274	-2.33511e-05
2	0	0	1	0	269.931	0.138219	0.138059	-0.160195	3	0.00819975	40	16.4272	-2.21163e-05
2	0	0	1	0	270.431	0.128224	0.127953	-0.163548	3	0.00811886	40	16.9269	-2.09265e-05
2	0	0	1	0	270.931	0.118228	0.117999	-0.164713	3	0.00803664	40	17.4267	-1.9436e-05
2	0	0	1	0	271.431	0.108233	0.107952	-0.165787	3	0.00795414	40	17.9264	-1.78971e-05
2	0	0	1	0	271.93	0.0982379	0.0980879	-0.167296	3	0.00787066	40	18.4262	-1.64097e-05
2	0	0	1	0	272.43	0.0882427	0.0880069	-0.167498	3	0.00778694	40	18.926	-1.4741e-05
2	0	0	1	0	272.93	0.0782475	0.0779869	-0.16918	3	0.00770279	40	19.4257	-1.31938e-05
2	0	0	1	0	273.43	0.0682522	0.0679854	-0.170302	3	0.00761786	40	19.9255	-1.15781e-05
2	0	0	1	0	273.929	0.058257	0.0579299	-0.170655	3	0.00753265	40	20.4253	-9.88605e-06
2	0	0	1	0	274.429	0.0482617	0.0480596	-0.171331	3	0.00744712	40	20.925	-8.23412e-06
2	0	0	1	0	274.929	0.0382665	0.0381904	-0.171038	3	0.00736165	40	21.4248	-6.532e-06
2	0	0	1	0	275.429	0.0282712	0.0280949	-0.174575	3	0.00727538	40	21.9245	-4.90468e-06
2	0	0	1	0	275.928	0.018276	0.0179139	-0.175626	3	0.0071876	40	22.4243	-3.14616e-06
2	0	0	1	0	276.428	0.00828073	0.00817063	-0.174335	3	0.00710013	40	22.9241	-1.42443e-06
2	0	0	1	1	276.906	0.00128406	0.00100007	-0.174257	3	0.00701674	40	23.402	-1.74268e-07
2	0	0	1	1	277.406	0.0112793	0.0110314	-0.174195	3	0.00692979	40	23.9018	-1.92162e-06
2	0	0	1	1	277.906	0.0212746	0.0211297	-0.172448	3	0.00684322	40	24.4015	-3.64378e-06
2	0	0	1	1	278.405	0.0312698	0.0311965	-0.172269	3	0.00675722	40	24.9013	-5.3742e-06
2	0	0	1	1	278.905	0.0412646	0.0411352	-0.170649	3	0.00667152	40	25.401	-7.01967e-06
2	0	0	1	1	279.405	0.0512603	0.0508253	-0.168336	3	0.00658687	40	25.9008	-8.55573e-06
2	0	0	1	1	279.905	0.0612555	0.0609323	-0.167073	3	0.00650303	40	26.4006	-1.01802e-05
2	0	0	1	1	280.404	0.0712508	0.0710387	-0.165401	3	0.00642008	40	26.9003	-1.17499e-05
2	0	0	1	1	280.904	0.081246	0.0808826	-0.163252	3	0.00633804	40	27.4001	-1.32042e-05
2	0	0	1	1	281.404	0.0912413	0.0911262	-0.161982	3	0.00625683	40	27.8999	-1.47608e-05
2	0	0	1	1	281.904	0.101237	0.100732	-0.161325	3	0.00617622	40	28.3996	-1.62507e-05
2	0	0	1	1	282.404	0.111232	0.111001	-0.160348	3	0.00609582	40	28.8994	-1.77988e-05
2	0	0	1	1	282.903	0.121229	0.120959	-0.158245	3	0.00601616	40	29.3992	-1.91411e-05
2	0	0	1	1	283.403	0.131222	0.131035	-0.15491	3	0.005938	40	29.8989	-2.02987e-05
2	0	0	1	1	283.903	0.141217	0.140957	-0.153769	3	0.00586087	40	30.3987	-2.16748e-05
2	0	0	1	1	284.403	0.151213	0.150838	-0.150869	3	0.00578472	40	30.8984	-2.27568e-05
2	0	0	1	1	284.902	0.161208	0.160883	-0.147345	3	0.00571024	40	31.3982	-2.37053e-05
2	0	0	1	1	285.402	0.171203	0.170923	-0.14391	3	0.00563753	40	31.898	-2.45975e-05
2	0	0	1	1	285.902	0.181198	0.180872	-0.139951	3	0.00556666	40	32.3977	-2.53133e-05
2	0	0	1	1	286.402	0.191194	0.190997	-0.135632	3	0.00549789	40	32.8975	-2.59053e-05
2	0	0	1	1	286.901	0.201189	0.201008	-0.13097	3	0.00543132	40	33.3972	-2.63261e-05
2	0	0	1	1	287.401	0.211184	0.210831	-0.126481	3	0.00536706	40	33.897	-2.66661e-05
2	0	0	1	1	287.901	0.221179	0.220868	-0.120944	3	0.00530528	40	34.3968	-2.67126e-05
2	0	0	1	1	288.401	0.231175	0.230949	-0.11508	3	0.00524636	40	34.8965	-2.65776e-05
2	0	0	1	1	288.9	0.24117	0.240796	-0.108751	3	0.00519048	40	35.3963	-2.61868e-05
2	0	0	1	1	289.4	0.251165	0.250848	-0.10237	3	0.00513784	40	35.8961	-2.56792e-05
2	0	0	1	1	289.9	0.26116	0.261034	-0.0958473	3	0.0050884	40	36.3958	-2.50194e-05
2	0	0	1	1	290.4	0.271156	0.271107	-0.0890323	3	0.00504227	40	36.8956	-2.41373e-05
2	0	0	1	1	290.899	0.281151	0.280998	-0.0820808	3	0.00499956	40	37.3953	-2.30645e-05
2	0	0	1	1	291.399	0.291146	0.290848	-0.0751153	3	0.00496032	40	37.8951	-2.18471e-05
2	0	0	1	1	291.899	0.301141	0.301048	-0.0682582	3	0.00492449	40	38.3949	-2.0549e-05
2	0	0	1	1	292.399	0.311137	0.310947	-0.0616507	3	0.00489208	40	38.8946	-1.91701e-05
2	0	0	1	1	292.899	0.321132	0.320944	-0.0553627	3	0.00486293	40	39.3944	-1.77683e-05
2	0	0	1	1	293.398	0.331127	0.330541	-0.0490647	3	0.00483692	40	39.8942	-1.62179e-05
2	0	0	1	1	293.928	0.341722	0.341555	-0.0428799	3	0.00481261	41	40.4239	-1.46458e-05
2	0	0	1	1	294.428	0.351717	0.351573	-0.0373928	3	0.00479259	41	40.9237	-1.31463e-05
2	0	0	1	1	294.928	0.361713	0.361561	-0.0323315	3	0.00477521	41	41.4234	-1.16898e-05
2	0	0	1	1	295.427	0.371708	0.371352	-0.0276359	3	0.00476027	41	41.9232	-1.02627e-05
2	0	0	1	1	295.927	0.381703	0.381508	-0.0233527	3	0.00474757	41	42.423	-8.90924e-06
2	0	0	1	1	296.427	0.391698	0.391202	-0.0193866	3	0.00473694	41	42.9227	-7.5841e-06
2	0	0	1	1	296.927	0.401694	0.401304	-0.0157881	3	0.00472818	41	43.4225	-6.33583e-06
2	0	0	1	1	297.426	0.411689	0.411594	-0.0125154	3	0.00472115	41	43.9222	-5.15128e-06
2	0	0	1	1	297.926	0.421684	0.421709	-0.00948558	3	0.00471569	41	44.422	-4.00015e-06
2	0	0	1	1	298.426	0.431679	0.431352	-0.00668085	3	0.00471168	41	44.9218	-2.8818e-06
2	0	0	1	1	298.941	0.441974	0.441863	-0.00380166	3	0.00470899	41	45.4365	-1.67981e-06
2	0	0	1	1	299.455	0.45227	0.451944	-0.00124192	3	0.00470767	42	45.9513	-5.61276e-07
2	1	0	1	1	299.939	0.46194	0.461882	0.00122017	3	0.00470766	42	0.2084	5.63574e-07