File: Python/Data/RDE/240223-OCV-EIS-Fe2Fe3_5mM-HCl1M-2000RPM-Ag_AgCl_BLF8-GC-RDE-AllPreviousVariations_08_PEIS_C15.mpt
EC-Lab ASCII FILE
Nb header lines : 67

Potentio Electrochemical Impedance Spectroscopy

Run on channel : 15 (SN 19485)
User :
Electrode connection : standard
Potential control : Ewe
Ewe ctrl range : min = -1.00 V, max = 1.00 V
Ewe,I filtering : 50 kHz
Safety Limits :
	Do not start on E overload
Channel : Floating
Acquisition started on : 02/23/2024 12:36:41.987
Loaded Setting File :  C:\Data\mathias\RDE-RPM-variation\240222-CV-EIS-Fe2Fe3_5mM-HCl1M-0RPM-Ag_AgCl_BLF8-GC-RDE-DefaultSettings.mps
Saved on :
	File : 240223-OCV-EIS-Fe2Fe3_5mM-HCl1M-2000RPM-Ag_AgCl_BLF8-GC-RDE-AllPreviousVariations_08_PEIS_C15.mpr
	Directory : C:\Data\mathias\RDE-RPM-variation\
	Host : 192.168.0.1
Device : VMP-300 (SN 0826)
Address : USB
EC-Lab for windows v11.52 (software)
Internet server v11.52 (firmware)
Command interpretor v11.52 (firmware)
Electrode material :
Initial state :
Electrolyte :
Comments :
Cable : special
Reference electrode : SCE Saturated Calomel Electrode (0.241 V)
Electrode surface area : 0.001 cm²
Characteristic mass : 0.001 g
Equivalent Weight : 0.000 g/eq.
Density : 0.000 g/cm3
Volume (V) : 0.001 cm³
Record EIS quality indicators
Cycle Definition : Charge/Discharge alternance
Mode                Single sine
E (V)               0.0000
vs.                 Ref
tE (h:m:s)          0:05:0.0000
record              0
dI                  0.000
unit dI             mA
dt (s)              0.000
fi                  1.000
unit fi             MHz
ff                  100.000
unit ff             mHz
Nd                  10
Points              per decade
spacing             Logarithmic
Va (mV)             14.1
pw                  0.10
Na                  5
corr                0
E range min (V)     -1.000
E range max (V)     1.000
I Range             Auto
Bandwidth           8
nc cycles           2
goto Ns'            0
nr cycles           0
inc. cycle          1

freq/Hz	Re(Z)/Ohm	-Im(Z)/Ohm	|Z|/Ohm	Phase(Z)/deg	time/s	<Ewe>/V	<I>/mA	Cs/µF	Cp/µF	cycle number	I Range	|Ewe|/V	|I|/A	Ns	(Q-Qo)/mA.h	THD Ewe/%	NSD Ewe/%	NSR Ewe/%	|Ewe h2|/V	|Ewe h3|/V	|Ewe h4|/V	|Ewe h5|/V	|Ewe h6|/V	|Ewe h7|/V	THD I/%	NSD I/%	NSR I/%	|I h2|/A	|I h3|/A	|I h4|/A	|I h5|/A	|I h6|/A	|I h7|/A	Re(Y)/Ohm-1	Im(Y)/Ohm-1	|Y|/Ohm-1	Phase(Y)/deg	Re(C)/nF	Im(C)/nF	|C|/nF	Phase(C)/deg	Re(M)	Im(M)	|M|	Phase(M)/deg	Re(Permittivity)	Im(Permittivity)	|Permittivity|	Phase(Permittivity)/deg	Re(Resistivity)/Ohm.cm	Im(Resistivity)/Ohm.cm	|Resistivity|/Ohm.cm	Phase(Resistivity)/deg	Re(Conductivity)/mS/cm	Im(Conductivity)/mS/cm	|Conductivity|/mS/cm	Phase(Conductivity)/deg	Tan(Delta)	Loss Angle(Delta)/deg	dq/mA.h
1.00002e+06	3.54443	4.09868	5.41868	-49.1476	3085.37	-0.00015875	-0.511103	0.0388301	0.0222161	1	38	0.0111433	0.00205645	0	-0.0427995	-1	-1	-1	0	0	0	0	0	0	-1	-1	-1	0	0	0	0	0	0	0.120714	0.139591	0.184547	49.1476	22.2161	19.2119	29.371	-40.8524	0.0000000E+000	0.0000000E+000	0.0000000E+000	40.8524	0.0000000E+000	0.0000000E+000	0.0000000E+000	-40.8524	0.0000000E+000	0.0000000E+000	0.0000000E+000	-49.1476	0.0000000E+000	0.0000000E+000	0.0000000E+000	49.1476	0.864774	40.8524	-0.0427995
501206	3.53602	2.00305	4.06395	-29.5302	3090.67	-0.000153754	-0.511656	0.15853	0.0385123	1	38	0.0145099	0.00357039	0	-0.0435628	-1	-1	-1	0	0	0	0	0	0	-1	-1	-1	0	0	0	0	0	0	0.214101	0.121282	0.246066	29.5302	38.5123	67.9865	78.1368	-60.4698	0.0000000E+000	0.0000000E+000	0.0000000E+000	60.4698	0.0000000E+000	0.0000000E+000	0.0000000E+000	-60.4698	0.0000000E+000	0.0000000E+000	0.0000000E+000	-29.5302	0.0000000E+000	0.0000000E+000	0.0000000E+000	29.5302	1.76532	60.4698	-0.000263375
251188	3.43785	1.14152	3.62241	-18.3684	3096.11	-0.00015793	-0.509158	0.55506	0.0551198	1	38	0.014579	0.00402467	0	-0.044319	-1	-1	-1	0	0	0	0	0	0	-1	-1	-1	0	0	0	0	0	0	0.261994	0.0869933	0.276059	18.3684	55.1198	166.002	174.914	-71.6316	0.0000000E+000	0.0000000E+000	0.0000000E+000	71.6316	0.0000000E+000	0.0000000E+000	0.0000000E+000	-71.6316	0.0000000E+000	0.0000000E+000	0.0000000E+000	-18.3684	0.0000000E+000	0.0000000E+000	0.0000000E+000	18.3684	3.01165	71.6316	-0.000252545
125909	3.42203	0.932437	3.54679	-15.242	3101.55	-0.000166393	-0.511919	1.35564	0.0936937	1	38	0.0145706	0.0041081	0	-0.0451032	-1	-1	-1	0	0	0	0	0	0	-1	-1	-1	0	0	0	0	0	0	0.272027	0.0741221	0.281945	15.242	93.6937	343.855	356.391	-74.758	0.0000000E+000	0.0000000E+000	0.0000000E+000	74.758	0.0000000E+000	0.0000000E+000	0.0000000E+000	-74.758	0.0000000E+000	0.0000000E+000	0.0000000E+000	-15.242	0.0000000E+000	0.0000000E+000	0.0000000E+000	15.242	3.66999	74.758	-0.000258532
63093.8	3.48338	1.16807	3.67401	-18.5377	3106.99	-0.000177018	-0.510442	2.15955	0.218285	1	38	0.0145866	0.00397023	0	-0.045876	0.447062	0.2816	9.09279	2.76666e-05	3.12227e-05	1.29015e-05	2.05853e-05	2.93712e-05	2.57449e-05	0.0727487	0.0413345	0.731429	1.42916e-06	1.57797e-06	8.1812e-07	1.42728e-06	4.16565e-07	5.11308e-07	0.25806	0.0865346	0.272182	18.5377	218.285	650.96	686.583	-71.4623	0.0000000E+000	0.0000000E+000	0.0000000E+000	71.4623	0.0000000E+000	0.0000000E+000	0.0000000E+000	-71.4623	0.0000000E+000	0.0000000E+000	0.0000000E+000	-18.5377	0.0000000E+000	0.0000000E+000	0.0000000E+000	18.5377	2.98216	71.4623	-0.000256248
31621.1	3.63524	1.86428	4.0854	-27.1503	3112.43	-0.000147883	-0.511526	2.6998	0.562191	1	38	0.0146476	0.00358535	0	-0.0466488	0.481498	0.299568	9.12976	2.35151e-05	2.14658e-05	3.11868e-05	2.80101e-05	2.52082e-05	3.08684e-05	0.0541825	0.057058	0.815597	8.19031e-07	1.06157e-06	9.18177e-07	5.58994e-07	4.32259e-07	5.26993e-07	0.217803	0.111697	0.244774	27.1503	562.191	1096.24	1231.99	-62.8497	0.0000000E+000	0.0000000E+000	0.0000000E+000	62.8497	0.0000000E+000	0.0000000E+000	0.0000000E+000	-62.8497	0.0000000E+000	0.0000000E+000	0.0000000E+000	-27.1503	0.0000000E+000	0.0000000E+000	0.0000000E+000	27.1503	1.94995	62.8497	-0.000255742
15847.7	3.9437	3.30188	5.14346	-39.9379	3117.87	-0.000179106	-0.510468	3.04154	1.25344	1	38	0.0147822	0.00287397	0	-0.0474085	0.508602	0.299072	9.11253	2.39922e-05	2.72121e-05	1.87894e-05	2.99384e-05	2.49382e-05	4.13237e-05	0.0864435	0.0444606	1.03156	1.75057e-06	8.96233e-07	6.82387e-07	6.82672e-07	4.64946e-07	8.06465e-07	0.149071	0.12481	0.194422	39.9379	1253.44	1497.09	1952.54	-50.0621	0.0000000E+000	0.0000000E+000	0.0000000E+000	50.0621	0.0000000E+000	0.0000000E+000	0.0000000E+000	-50.0621	0.0000000E+000	0.0000000E+000	0.0000000E+000	-39.9379	0.0000000E+000	0.0000000E+000	0.0000000E+000	39.9379	1.19438	50.0621	-0.000252857
7944	4.59507	5.98846	7.54826	-52.5002	3123.33	-0.000287744	-0.509988	3.34554	2.10573	1	38	0.0145713	0.00193042	0	-0.0481802	0.481267	0.259879	9.25989	4.76854e-05	2.58219e-05	1.96491e-05	1.32097e-05	1.99783e-05	2.22107e-05	0.256688	0.060559	1.50263	4.66128e-06	7.02639e-07	7.13442e-07	5.97925e-07	4.88203e-07	7.72828e-07	0.0806487	0.105104	0.132481	52.5002	2105.73	1615.77	2654.2	-37.4998	0.0000000E+000	0.0000000E+000	0.0000000E+000	37.4998	0.0000000E+000	0.0000000E+000	0.0000000E+000	-37.4998	0.0000000E+000	0.0000000E+000	0.0000000E+000	-52.5002	0.0000000E+000	0.0000000E+000	0.0000000E+000	52.5002	0.76732	37.4998	-0.000255422
3981.28	6.0317	10.7896	12.3611	-60.7936	3128.73	-0.000304055	-0.51047	3.70503	2.82285	1	38	0.0139351	0.00112734	0	-0.0489377	0.583104	0.361421	9.4711	5.09064e-05	2.72997e-05	2.02935e-05	3.01631e-05	2.97749e-05	2.60022e-05	0.712379	0.117944	2.63609	7.5745e-06	2.10869e-06	7.42248e-07	8.12852e-07	5.44868e-07	8.7711e-07	0.0394751	0.0706139	0.0808988	60.7936	2822.85	1578.05	3234	-29.2064	0.0000000E+000	0.0000000E+000	0.0000000E+000	29.2064	0.0000000E+000	0.0000000E+000	0.0000000E+000	-29.2064	0.0000000E+000	0.0000000E+000	0.0000000E+000	-60.7936	0.0000000E+000	0.0000000E+000	0.0000000E+000	60.7936	0.559027	29.2064	-0.000258726
1995.64	9.03563	18.9999	21.039	-64.566	3134.23	-0.000280325	-0.508781	4.19746	3.42326	1	38	0.0127706	0.000606997	0	-0.0497119	0.628182	0.34046	10.4793	2.43167e-05	3.45834e-05	3.42732e-05	2.62836e-05	2.43298e-05	3.12166e-05	0.911081	0.206427	4.73922	4.63973e-06	1.998e-06	7.53444e-07	1.66408e-06	1.02235e-06	4.066e-07	0.0204131	0.0429241	0.0475308	64.566	3423.26	1627.97	3790.64	-25.434	0.0000000E+000	0.0000000E+000	0.0000000E+000	25.434	0.0000000E+000	0.0000000E+000	0.0000000E+000	-25.434	0.0000000E+000	0.0000000E+000	0.0000000E+000	-64.566	0.0000000E+000	0.0000000E+000	0.0000000E+000	64.566	0.475562	25.434	-0.000258192
999.682	15.2555	32.5752	35.9705	-64.9056	3140.2	-0.000299842	-0.507838	4.88732	4.00824	1	39	0.0151834	0.000422108	0	-0.0505488	0.575228	0.219267	8.7062	4.01759e-05	3.30948e-05	2.92002e-05	3.56808e-05	3.63245e-05	2.49204e-05	1.4487	0.114465	3.30362	5.62923e-06	2.19881e-06	1.7223e-07	6.74879e-07	3.86656e-07	2.67194e-07	0.0117905	0.0251765	0.0278006	64.9056	4008.24	1877.12	4426.01	-25.0944	0.0000000E+000	0.0000000E+000	0.0000000E+000	25.0944	0.0000000E+000	0.0000000E+000	0.0000000E+000	-25.0944	0.0000000E+000	0.0000000E+000	0.0000000E+000	-64.9056	0.0000000E+000	0.0000000E+000	0.0000000E+000	64.9056	0.468315	25.0944	-0.000288253
501.122	27.075	53.5083	59.9683	-63.1607	3145.69	-0.000263418	-0.509045	5.93547	4.72557	1	39	0.0140548	0.000234371	0	-0.0513192	0.606824	0.222723	9.00873	2.73706e-05	3.53943e-05	2.49586e-05	4.80404e-05	3.11949e-05	2.37757e-05	1.13577	0.152036	5.58324	2.351e-06	8.24628e-07	3.39091e-07	7.71352e-07	2.33173e-07	1.82021e-07	0.0075288	0.0148791	0.0166755	63.1607	4725.57	2391.12	5296.08	-26.8393	0.0000000E+000	0.0000000E+000	0.0000000E+000	26.8393	0.0000000E+000	0.0000000E+000	0.0000000E+000	-26.8393	0.0000000E+000	0.0000000E+000	0.0000000E+000	-63.1607	0.0000000E+000	0.0000000E+000	0.0000000E+000	63.1607	0.505997	26.8393	-0.000256712
251.206	48.2649	84.5852	97.3867	-60.2906	3151.18	-0.00028396	-0.5071	7.49024	5.65048	1	39	0.0137497	0.000141187	0	-0.0520888	0.503736	0.249044	9.21439	1.86435e-05	2.81571e-05	2.16422e-05	3.07867e-05	2.73949e-05	3.00819e-05	1.17268	0.325596	9.22548	1.39478e-06	4.81761e-07	2.64295e-07	3.54017e-07	2.2807e-07	3.14792e-07	0.005089	0.00891857	0.0102683	60.2906	5650.48	3224.21	6505.65	-29.7094	0.0000000E+000	0.0000000E+000	0.0000000E+000	29.7094	0.0000000E+000	0.0000000E+000	0.0000000E+000	-29.7094	0.0000000E+000	0.0000000E+000	0.0000000E+000	-60.2906	0.0000000E+000	0.0000000E+000	0.0000000E+000	60.2906	0.570607	29.7094	-0.0002564
125.927	83.5357	128.134	152.96	-56.8981	3156.68	-0.000274192	-0.50788	9.86362	6.92173	1	39	0.0136527	8.9257e-05	0	-0.0528598	0.512303	0.307187	9.45564	3.09675e-05	2.7004e-05	2.98721e-05	3.21971e-05	1.94703e-05	2.14332e-05	1.41747	0.436946	15.1619	9.64221e-07	3.18427e-07	3.95698e-07	4.13236e-07	1.75034e-07	3.34763e-07	0.00357041	0.00547662	0.00653768	56.8981	6921.73	4512.54	8262.77	-33.1019	0.0000000E+000	0.0000000E+000	0.0000000E+000	33.1019	0.0000000E+000	0.0000000E+000	0.0000000E+000	-33.1019	0.0000000E+000	0.0000000E+000	0.0000000E+000	-56.8981	0.0000000E+000	0.0000000E+000	0.0000000E+000	56.8981	0.651938	33.1019	-0.000256112
63.0823	135.78	188.754	232.518	-54.2708	3162.03	-0.0002601	-0.50804	13.3664	8.80843	1	39	0.0136365	5.86474e-05	0	-0.0536071	0.572073	0.238025	9.3841	3.0393e-05	2.27721e-05	2.42365e-05	3.77348e-05	2.63563e-05	3.29746e-05	1.97486	0.537764	22.1962	8.72218e-07	2.20873e-07	2.08266e-07	3.34431e-07	3.29777e-07	3.8127e-07	0.00251145	0.00349129	0.00430075	54.2708	8808.43	6336.31	10850.7	-35.7292	0.0000000E+000	0.0000000E+000	0.0000000E+000	35.7292	0.0000000E+000	0.0000000E+000	0.0000000E+000	-35.7292	0.0000000E+000	0.0000000E+000	0.0000000E+000	-54.2708	0.0000000E+000	0.0000000E+000	0.0000000E+000	54.2708	0.719346	35.7292	-0.000250921
31.6296	215.377	274.587	348.978	-51.8906	3167.28	-0.000279803	-0.507441	18.3251	11.3452	1	39	0.0136326	3.90645e-05	0	-0.0543431	0.559647	0.211735	9.35696	2.87232e-05	2.95102e-05	3.05604e-05	2.35894e-05	3.06097e-05	2.94859e-05	2.92284	1.06931	34.2487	8.22265e-07	3.80625e-07	2.85638e-07	2.71248e-07	2.68318e-07	3.15474e-07	0.0017685	0.00225468	0.00286551	51.8906	11345.2	8898.79	14418.8	-38.1094	0.0000000E+000	0.0000000E+000	0.0000000E+000	38.1094	0.0000000E+000	0.0000000E+000	0.0000000E+000	-38.1094	0.0000000E+000	0.0000000E+000	0.0000000E+000	-51.8906	0.0000000E+000	0.0000000E+000	0.0000000E+000	51.8906	0.784366	38.1094	-0.00024171
15.8469	329.541	394.647	514.143	-50.1371	3172.54	-0.000247275	-0.508391	25.4489	14.994	1	39	0.0136332	2.65162e-05	0	-0.0550797	0.47516	0.312109	9.36874	3.02317e-05	2.62401e-05	2.77184e-05	2.23597e-05	2.03256e-05	1.38507e-05	3.45686	1.98247	50.3792	6.60755e-07	3.52467e-07	2.69716e-07	1.57705e-07	2.86155e-07	1.77123e-07	0.00124664	0.00149293	0.00194498	50.1371	14994	12520.4	19534.1	-39.8629	0.0000000E+000	0.0000000E+000	0.0000000E+000	39.8629	0.0000000E+000	0.0000000E+000	0.0000000E+000	-39.8629	0.0000000E+000	0.0000000E+000	0.0000000E+000	-50.1371	0.0000000E+000	0.0000000E+000	0.0000000E+000	50.1371	0.835029	39.8629	-0.000241976
7.93956	508.074	558.015	754.666	-47.6821	3178.23	-0.000265002	-0.507096	35.9234	19.6408	1	39	0.0136248	1.80541e-05	0	-0.0558755	0.367773	0.203643	6.60945	2.11254e-05	1.72401e-05	1.19358e-05	1.60499e-05	2.82381e-05	1.6949e-05	3.74647	3.89271	52.4695	5.20471e-07	1.85988e-07	1.93883e-07	1.60446e-07	2.06746e-07	1.2047e-07	0.000892109	0.000979798	0.00132509	47.6821	19640.8	17883	26562.5	-42.3179	0.0000000E+000	0.0000000E+000	0.0000000E+000	42.3179	0.0000000E+000	0.0000000E+000	0.0000000E+000	-42.3179	0.0000000E+000	0.0000000E+000	0.0000000E+000	-47.6821	0.0000000E+000	0.0000000E+000	0.0000000E+000	47.6821	0.910502	42.3179	-0.000278101
3.9819	766.865	785.156	1097.52	-45.6752	3186.37	-0.000252522	-0.507575	50.9065	26.0531	1	39	0.0136283	1.24174e-05	0	-0.0570157	0.301527	0.116095	4.53105	1.7248e-05	1.85315e-05	1.42088e-05	1.88911e-05	9.04042e-06	1.07083e-05	3.95843	6.87628	52.7312	3.59882e-07	8.18365e-08	1.57124e-07	1.74813e-07	1.22312e-07	1.15813e-07	0.00063664	0.000651824	0.000911145	45.6752	26053.1	25446.2	36418.1	-44.3248	0.0000000E+000	0.0000000E+000	0.0000000E+000	44.3248	0.0000000E+000	0.0000000E+000	0.0000000E+000	-44.3248	0.0000000E+000	0.0000000E+000	0.0000000E+000	-45.6752	0.0000000E+000	0.0000000E+000	0.0000000E+000	45.6752	0.976704	44.3248	-0.00044591
1.99553	1331.75	922.423	1620.01	-34.7079	3200.5	-0.00027408	-0.50716	86.4631	28.0321	1	39	0.0136263	8.41123e-06	0	-0.0590009	0.209104	0.0834658	3.1021	8.9231e-06	1.44842e-05	7.74828e-06	1.48448e-05	7.53279e-06	9.90041e-06	9.12032	9.45696	53.1169	6.257e-07	2.90142e-07	1.47738e-07	1.17146e-07	1.00124e-07	7.13571e-08	0.000507445	0.000351475	0.00061728	34.7079	28032.1	40471.5	49231.5	-55.2921	0.0000000E+000	0.0000000E+000	0.0000000E+000	55.2921	0.0000000E+000	0.0000000E+000	0.0000000E+000	-55.2921	0.0000000E+000	0.0000000E+000	0.0000000E+000	-34.7079	0.0000000E+000	0.0000000E+000	0.0000000E+000	34.7079	1.44376	55.2921	-0.000797234
1.00006	1839.61	886.99	2042.28	-25.7416	3226.79	-0.000257535	-0.507189	179.422	33.8439	1	39	0.0136306	6.67422e-06	0	-0.0626978	0.170038	0.0680688	2.30953	7.69264e-06	1.17159e-05	6.34586e-06	1.32535e-05	6.07254e-06	6.90128e-06	9.47717	10.14	49.5635	3.76758e-07	2.74624e-07	2.38839e-07	2.13071e-07	8.10675e-08	9.77723e-08	0.000441056	0.00021266	0.000489648	25.7416	33843.9	70192	77925.1	-64.2584	0.0000000E+000	0.0000000E+000	0.0000000E+000	64.2584	0.0000000E+000	0.0000000E+000	0.0000000E+000	-64.2584	0.0000000E+000	0.0000000E+000	0.0000000E+000	-25.7416	0.0000000E+000	0.0000000E+000	0.0000000E+000	25.7416	2.07399	64.2584	-0.00150395
0.500946	2349.76	554.474	2414.29	-13.2772	3277.31	-0.000253487	-0.507078	572.992	30.2225	1	39	0.0136264	5.64405e-06	0	-0.0698085	0.136189	0.0466917	1.51596	4.40575e-06	1.16841e-05	3.52057e-06	1.06967e-05	2.73421e-06	5.20848e-06	12.7001	10.5946	43.1612	3.20343e-07	2.93801e-07	2.93527e-07	2.49404e-07	2.99879e-07	1.73973e-07	0.000403129	9.51265e-05	0.0004142	13.2772	30222.5	128078	131595	-76.7228	0.0000000E+000	0.0000000E+000	0.0000000E+000	76.7228	0.0000000E+000	0.0000000E+000	0.0000000E+000	-76.7228	0.0000000E+000	0.0000000E+000	0.0000000E+000	-13.2772	0.0000000E+000	0.0000000E+000	0.0000000E+000	13.2772	4.23782	76.7228	-0.00291462
0.251222	2469.5	325.065	2490.81	-7.49884	3376.49	-0.000231051	-0.506762	1948.91	33.1936	1	39	0.0136309	5.47249e-06	0	-0.0837574	0.149697	0.0299644	1.11679	2.98321e-06	1.26201e-05	1.56473e-06	1.43522e-05	3.35928e-06	3.58963e-06	12.9669	9.14303	35.0552	1.47017e-07	2.21934e-07	3.47205e-07	3.136e-07	2.28132e-07	2.54716e-07	0.000398043	5.23952e-05	0.000401477	7.49884	33193.6	252170	254345	-82.5012	0.0000000E+000	0.0000000E+000	0.0000000E+000	82.5012	0.0000000E+000	0.0000000E+000	0.0000000E+000	-82.5012	0.0000000E+000	0.0000000E+000	0.0000000E+000	-7.49884	0.0000000E+000	0.0000000E+000	0.0000000E+000	7.49884	7.59694	82.5012	-0.00573329
0.125939	2415.24	165.785	2420.92	-3.92671	3572.82	-0.000236677	-0.506021	7622.81	35.7476	1	39	0.0136276	5.62908e-06	0	-0.111341	0.120287	0.0393686	0.759027	1.6788e-06	1.05103e-05	2.4138e-06	1.18129e-05	1.91826e-06	8.85497e-07	11.1415	5.30544	30.1568	3.74812e-07	1.70659e-07	1.82375e-07	2.12502e-07	2.33446e-07	2.29373e-07	0.000412097	2.82869e-05	0.000413066	3.92671	35747.6	520787	522012	-86.0733	0.0000000E+000	0.0000000E+000	0.0000000E+000	86.0733	0.0000000E+000	0.0000000E+000	0.0000000E+000	-86.0733	0.0000000E+000	0.0000000E+000	0.0000000E+000	-3.92671	0.0000000E+000	0.0000000E+000	0.0000000E+000	3.92671	14.5685	86.0733	-0.0113458
794333	3.58998	3.21586	4.81972	-41.8536	3678.62	-0.00013599	-0.505331	0.0623047	0.0277377	2	38	0.0139081	0.00288567	0	-0.126195	-1	-1	-1	0	0	0	0	0	0	-1	-1	-1	0	0	0	0	0	0	0.154543	0.138437	0.207481	41.8536	27.7378	30.9646	41.5715	-48.1464	0.0000000E+000	0.0000000E+000	0.0000000E+000	48.1464	0.0000000E+000	0.0000000E+000	0.0000000E+000	-48.1464	0.0000000E+000	0.0000000E+000	0.0000000E+000	-41.8536	0.0000000E+000	0.0000000E+000	0.0000000E+000	41.8536	1.11634	48.1464	-0.000233667
398103	3.49444	1.61254	3.84856	-24.7714	3684.06	-0.000153307	-0.506685	0.247921	0.0435249	2	38	0.0145561	0.00378221	0	-0.126958	-1	-1	-1	0	0	0	0	0	0	-1	-1	-1	0	0	0	0	0	0	0.235929	0.108871	0.259837	24.7714	43.5249	94.3203	103.878	-65.2286	0.0000000E+000	0.0000000E+000	0.0000000E+000	65.2286	0.0000000E+000	0.0000000E+000	0.0000000E+000	-65.2286	0.0000000E+000	0.0000000E+000	0.0000000E+000	-24.7714	0.0000000E+000	0.0000000E+000	0.0000000E+000	24.7714	2.16704	65.2286	-0.000254039
199544	3.42199	1.01291	3.56875	-16.4888	3689.5	-0.000126092	-0.508666	0.787427	0.063434	2	38	0.0145526	0.00407778	0	-0.127701	-1	-1	-1	0	0	0	0	0	0	-1	-1	-1	0	0	0	0	0	0	0.268686	0.0795316	0.28021	16.4888	63.434	214.303	223.494	-73.5112	0.0000000E+000	0.0000000E+000	0.0000000E+000	73.5112	0.0000000E+000	0.0000000E+000	0.0000000E+000	-73.5112	0.0000000E+000	0.0000000E+000	0.0000000E+000	-16.4888	0.0000000E+000	0.0000000E+000	0.0000000E+000	16.4888	3.37836	73.5112	-0.000250055
100004	3.43743	0.967008	3.57086	-15.7122	3694.94	-0.000150641	-0.507309	1.64579	0.120695	2	38	0.0145862	0.0040848	0	-0.128468	0.516239	0.300626	9.28427	2.57202e-05	2.87177e-05	2.51898e-05	2.24158e-05	2.1678e-05	4.15246e-05	0.0797374	0.034985	0.716211	2.41487e-06	1.27584e-06	1.03535e-06	1.11985e-06	4.76423e-07	5.23085e-07	0.269581	0.0758376	0.280045	15.7122	120.695	429.035	445.688	-74.2878	0.0000000E+000	0.0000000E+000	0.0000000E+000	74.2878	0.0000000E+000	0.0000000E+000	0.0000000E+000	-74.2878	0.0000000E+000	0.0000000E+000	0.0000000E+000	-15.7122	0.0000000E+000	0.0000000E+000	0.0000000E+000	15.7122	3.55471	74.2878	-0.000249658
50122.5	3.52671	1.342	3.77341	-20.833	3700.38	-0.000140501	-0.508701	2.36612	0.299276	2	38	0.0145899	0.0038665	0	-0.129226	0.474312	0.262822	9.08048	2.45478e-05	2.3157e-05	1.70331e-05	2.82208e-05	3.26577e-05	3.22494e-05	0.0702116	0.025279	0.751559	1.26497e-06	1.5288e-06	8.88163e-07	7.57171e-07	8.18716e-07	7.82192e-07	0.247686	0.0942505	0.265012	20.833	299.276	786.483	841.499	-69.167	0.0000000E+000	0.0000000E+000	0.0000000E+000	69.167	0.0000000E+000	0.0000000E+000	0.0000000E+000	-69.167	0.0000000E+000	0.0000000E+000	0.0000000E+000	-20.833	0.0000000E+000	0.0000000E+000	0.0000000E+000	20.833	2.62795	69.167	-0.000254869
25116.9	3.72167	2.25363	4.35082	-31.1967	3705.82	-0.000147435	-0.506543	2.81172	0.754385	2	38	0.0146892	0.0033762	0	-0.129996	0.437778	0.272813	9.05044	2.80188e-05	2.22461e-05	2.68358e-05	2.20107e-05	1.96073e-05	2.75308e-05	0.0550187	0.0669905	0.860736	9.38171e-07	8.01144e-07	8.13783e-07	4.34596e-07	5.81266e-07	6.49529e-07	0.196605	0.119053	0.229842	31.1967	754.385	1245.8	1456.41	-58.8034	0.0000000E+000	0.0000000E+000	0.0000000E+000	58.8034	0.0000000E+000	0.0000000E+000	0.0000000E+000	-58.8034	0.0000000E+000	0.0000000E+000	0.0000000E+000	-31.1967	0.0000000E+000	0.0000000E+000	0.0000000E+000	31.1967	1.65141	58.8034	-0.000257506
12590.9	4.12331	4.04322	5.77489	-44.4381	3711.26	-0.000150772	-0.507532	3.12633	1.53251	2	38	0.0148087	0.00256432	0	-0.130761	0.438423	0.290084	8.95202	2.85304e-05	2.40639e-05	1.36616e-05	2.23785e-05	1.96762e-05	3.17471e-05	0.125143	0.0480276	1.13784	2.62597e-06	1.29375e-06	4.31203e-07	6.80112e-07	5.22887e-07	5.81823e-07	0.12364	0.121239	0.173164	44.4381	1532.51	1562.86	2188.86	-45.5619	0.0000000E+000	0.0000000E+000	0.0000000E+000	45.5619	0.0000000E+000	0.0000000E+000	0.0000000E+000	-45.5619	0.0000000E+000	0.0000000E+000	0.0000000E+000	-44.4381	0.0000000E+000	0.0000000E+000	0.0000000E+000	44.4381	1.01981	45.5619	-0.000255284
6307.74	4.98368	7.31531	8.8516	-55.7347	3716.63	-0.000306888	-0.507311	3.44916	2.35578	2	38	0.0150123	0.001696	0	-0.131509	0.565784	0.246079	8.87212	6.20183e-05	2.26546e-05	1.65111e-05	1.66661e-05	3.2747e-05	1.78511e-05	0.435134	0.0859524	1.72374	7.19542e-06	6.91444e-07	7.2884e-07	9.49427e-07	4.68099e-07	4.96115e-07	0.0636072	0.093366	0.112974	55.7347	2355.78	1604.92	2850.52	-34.2653	0.0000000E+000	0.0000000E+000	0.0000000E+000	34.2653	0.0000000E+000	0.0000000E+000	0.0000000E+000	-34.2653	0.0000000E+000	0.0000000E+000	0.0000000E+000	-55.7347	0.0000000E+000	0.0000000E+000	0.0000000E+000	55.7347	0.681268	34.2653	-0.000239032
3163.04	6.83927	13.0605	14.7429	-62.3607	3722.14	-0.000284463	-0.506735	3.85262	3.02351	2	38	0.0134002	0.000908929	0	-0.132281	0.495662	0.222049	9.74252	2.50933e-05	3.30431e-05	1.89818e-05	2.24707e-05	2.76932e-05	2.01853e-05	0.827009	0.0876518	3.20352	7.01754e-06	2.1723e-06	4.21188e-07	1.24259e-06	4.62414e-07	5.04024e-07	0.0314663	0.0600891	0.0678295	62.3607	3023.51	1583.29	3412.98	-27.6393	0.0000000E+000	0.0000000E+000	0.0000000E+000	27.6393	0.0000000E+000	0.0000000E+000	0.0000000E+000	-27.6393	0.0000000E+000	0.0000000E+000	0.0000000E+000	-62.3607	0.0000000E+000	0.0000000E+000	0.0000000E+000	62.3607	0.523661	27.6393	-0.000256434
1584.49	10.7589	22.8168	25.2262	-64.7545	3727.86	-0.000288769	-0.507432	4.40225	3.60148	2	38	0.0140263	0.000556021	0	-0.13308	0.548606	0.259601	9.71574	2.91385e-05	2.0807e-05	2.73353e-05	3.29684e-05	3.97318e-05	2.02445e-05	1.05052	0.133489	5.39985	5.16281e-06	1.85399e-06	4.70764e-07	1.58828e-06	5.20694e-07	6.01031e-07	0.016907	0.0358551	0.0396413	64.7545	3601.48	1698.22	3981.79	-25.2455	0.0000000E+000	0.0000000E+000	0.0000000E+000	25.2455	0.0000000E+000	0.0000000E+000	0.0000000E+000	-25.2455	0.0000000E+000	0.0000000E+000	0.0000000E+000	-64.7545	0.0000000E+000	0.0000000E+000	0.0000000E+000	64.7545	0.471535	25.2455	-0.000286621
794.239	18.5417	38.481	42.7151	-64.2733	3733.61	-0.000285339	-0.504753	5.20742	4.22621	2	39	0.0146049	0.000341913	0	-0.133879	0.415492	0.47479	8.8427	2.73564e-05	2.76184e-05	2.26802e-05	1.54352e-05	2.91829e-05	1.19077e-05	1.37837	0.136344	3.93771	4.27546e-06	1.55617e-06	3.51865e-07	1.06289e-06	3.30511e-07	1.46137e-07	0.0101622	0.0210903	0.0234109	64.2733	4226.21	2036.36	4691.23	-25.7267	0.0000000E+000	0.0000000E+000	0.0000000E+000	25.7267	0.0000000E+000	0.0000000E+000	0.0000000E+000	-25.7267	0.0000000E+000	0.0000000E+000	0.0000000E+000	-64.2733	0.0000000E+000	0.0000000E+000	0.0000000E+000	64.2733	0.481841	25.7267	-0.000256043
398.089	33.3922	62.352	70.7305	-61.829	3739.1	-0.000244442	-0.505693	6.41195	4.98283	2	39	0.0139134	0.00019671	0	-0.134645	0.54428	0.275038	9.18344	2.53709e-05	4.17662e-05	2.20567e-05	2.58881e-05	3.06622e-05	2.06203e-05	1.20825	0.236605	6.75018	2.05443e-06	6.99977e-07	1.35389e-07	8.2819e-07	2.08512e-07	2.28505e-07	0.0066747	0.0124634	0.0141382	61.829	4982.83	2668.53	5652.4	-28.171	0.0000000E+000	0.0000000E+000	0.0000000E+000	28.171	0.0000000E+000	0.0000000E+000	0.0000000E+000	-28.171	0.0000000E+000	0.0000000E+000	0.0000000E+000	-61.829	0.0000000E+000	0.0000000E+000	0.0000000E+000	61.829	0.535544	28.171	-0.000255687
199.553	59.042	96.3984	113.043	-58.5134	3744.59	-0.000250929	-0.505773	8.27354	6.01654	2	39	0.0137099	0.000121281	0	-0.135412	0.561028	0.26784	9.29091	3.32439e-05	2.52354e-05	2.34694e-05	3.63064e-05	2.46876e-05	3.227e-05	1.47584	0.366611	11.0619	1.59321e-06	4.43647e-07	3.64525e-07	2.87326e-07	1.96446e-07	3.12813e-07	0.00462038	0.00754373	0.00884623	58.5134	6016.54	3685.01	7055.36	-31.4866	0.0000000E+000	0.0000000E+000	0.0000000E+000	31.4866	0.0000000E+000	0.0000000E+000	0.0000000E+000	-31.4866	0.0000000E+000	0.0000000E+000	0.0000000E+000	-58.5134	0.0000000E+000	0.0000000E+000	0.0000000E+000	58.5134	0.61248	31.4866	-0.00025635
99.9682	99.8957	143.239	174.633	-55.1079	3750.04	-0.000275982	-0.505219	11.1147	7.47771	2	39	0.0136578	7.82089e-05	0	-0.13617	0.562434	0.322496	9.34466	2.64307e-05	2.43674e-05	3.1829e-05	3.56834e-05	2.7288e-05	2.56935e-05	1.52254	0.739535	16.7054	9.72223e-07	3.05505e-07	2.52791e-07	3.16157e-07	2.20799e-07	2.75764e-07	0.00327564	0.00469689	0.0057263	55.1079	7477.71	5215	9116.6	-34.8921	0.0000000E+000	0.0000000E+000	0.0000000E+000	34.8921	0.0000000E+000	0.0000000E+000	0.0000000E+000	-34.8921	0.0000000E+000	0.0000000E+000	0.0000000E+000	-55.1079	0.0000000E+000	0.0000000E+000	0.0000000E+000	55.1079	0.697405	34.8921	-0.000246461
50.1122	160.745	206.045	261.33	-52.0405	3755.36	-0.000232456	-0.506193	15.414	9.58206	2	39	0.0136342	5.21723e-05	0	-0.136913	0.560678	0.276435	9.36829	3.70795e-05	3.32303e-05	2.84456e-05	2.73914e-05	2.56078e-05	1.68265e-05	1.87063	0.816297	25.4344	6.98997e-07	2.99754e-07	2.76886e-07	3.14596e-07	2.98828e-07	2.14089e-07	0.00235374	0.00301705	0.00382658	52.0405	9582.06	7475.41	12153.1	-37.9595	0.0000000E+000	0.0000000E+000	0.0000000E+000	37.9595	0.0000000E+000	0.0000000E+000	0.0000000E+000	-37.9595	0.0000000E+000	0.0000000E+000	0.0000000E+000	-52.0405	0.0000000E+000	0.0000000E+000	0.0000000E+000	52.0405	0.780147	37.9595	-0.00024614
25.1206	247.637	292.56	383.296	-49.7537	3760.62	-0.000257937	-0.505289	21.6559	12.6164	2	39	0.013628	3.55549e-05	0	-0.137646	0.493751	0.19616	9.37604	1.42572e-05	2.51134e-05	2.99385e-05	2.7623e-05	2.11518e-05	2.96598e-05	2.81405	1.07614	37.5566	6.61819e-07	2.23042e-07	3.51199e-07	3.32267e-07	2.36447e-07	3.48898e-07	0.00168558	0.00199135	0.00260895	49.7537	12616.4	10679.2	16529.4	-40.2463	0.0000000E+000	0.0000000E+000	0.0000000E+000	40.2463	0.0000000E+000	0.0000000E+000	0.0000000E+000	-40.2463	0.0000000E+000	0.0000000E+000	0.0000000E+000	-49.7537	0.0000000E+000	0.0000000E+000	0.0000000E+000	49.7537	0.846451	40.2463	-0.000245879
12.5873	373.113	419.833	561.67	-48.3719	3766.05	-0.000241338	-0.5057	30.1169	16.8268	2	39	0.0136333	2.42728e-05	0	-0.138402	0.387182	0.256776	6.75724	1.38939e-05	2.07879e-05	1.75388e-05	2.13675e-05	2.08174e-05	2.31587e-05	2.91037	1.73603	39.6327	5.20753e-07	1.6993e-07	1.7663e-07	2.1146e-07	2.06433e-07	2.21277e-07	0.00118271	0.0013308	0.00178041	48.3719	16826.8	14954.3	22511.6	-41.6281	0.0000000E+000	0.0000000E+000	0.0000000E+000	41.6281	0.0000000E+000	0.0000000E+000	0.0000000E+000	-41.6281	0.0000000E+000	0.0000000E+000	0.0000000E+000	-48.3719	0.0000000E+000	0.0000000E+000	0.0000000E+000	48.3719	0.888718	41.6281	-0.000268526
6.31058	564.791	604.029	826.946	-46.9227	3772.09	-0.000252588	-0.504955	41.7535	22.2769	2	39	0.013634	1.64872e-05	0	-0.139242	0.393706	0.190325	6.65083	8.89278e-06	3.61062e-05	1.2156e-05	1.8574e-05	1.40207e-05	1.72235e-05	4.37917	6.03747	57.6088	4.89019e-07	2.10236e-07	2.29308e-07	2.743e-07	1.57359e-07	2.01735e-07	0.000825912	0.00088329	0.00120927	46.9227	22276.9	20829.8	30498.2	-43.0773	0.0000000E+000	0.0000000E+000	0.0000000E+000	43.0773	0.0000000E+000	0.0000000E+000	0.0000000E+000	-43.0773	0.0000000E+000	0.0000000E+000	0.0000000E+000	-46.9227	0.0000000E+000	0.0000000E+000	0.0000000E+000	46.9227	0.93504	43.0773	-0.000317772
3.16296	895.099	832.816	1222.61	-42.9356	3781.76	-0.000257702	-0.505174	60.4196	28.0348	2	39	0.0136286	1.11471e-05	0	-0.140593	0.267992	0.123246	4.24889	1.27775e-05	1.64133e-05	1.33327e-05	1.48406e-05	1.17238e-05	1.17197e-05	5.50002	5.59119	54.1525	4.67199e-07	1.78134e-07	1.94673e-07	1.46159e-07	1.42399e-07	1.12956e-07	0.000598815	0.000557148	0.00081792	42.9356	28034.8	30131.4	41156.4	-47.0644	0.0000000E+000	0.0000000E+000	0.0000000E+000	47.0644	0.0000000E+000	0.0000000E+000	0.0000000E+000	-47.0644	0.0000000E+000	0.0000000E+000	0.0000000E+000	-42.9356	0.0000000E+000	0.0000000E+000	0.0000000E+000	42.9356	1.07479	47.0644	-0.000533913
1.58533	1411.56	897.184	1672.55	-32.44	3799.04	-0.000251982	-0.505361	111.897	32.1976	2	39	0.0136254	8.14646e-06	0	-0.143011	0.155536	0.0900126	2.87575	5.17858e-06	8.64122e-06	7.19484e-06	1.2626e-05	4.28053e-06	9.10568e-06	6.70763	13.6156	49.5848	3.56503e-07	1.69083e-07	2.22365e-07	1.11772e-07	1.0195e-07	6.53147e-08	0.00050459	0.000320717	0.000597889	32.44	32197.6	50657.1	60023.5	-57.56	0.0000000E+000	0.0000000E+000	0.0000000E+000	57.56	0.0000000E+000	0.0000000E+000	0.0000000E+000	-57.56	0.0000000E+000	0.0000000E+000	0.0000000E+000	-32.44	0.0000000E+000	0.0000000E+000	0.0000000E+000	32.44	1.57332	57.56	-0.000975651
0.79456	1951.58	740.515	2087.35	-20.7789	3831.63	-0.00023973	-0.504573	270.495	34.0437	2	39	0.0136235	6.52671e-06	0	-0.147572	0.136295	0.0613643	1.80443	4.7364e-06	1.11315e-05	3.53952e-06	1.17643e-05	3.74632e-06	3.26864e-06	9.28801	7.72091	40.9046	4.12048e-07	2.13731e-07	1.60586e-07	2.11612e-07	1.42655e-07	1.35979e-07	0.000447916	0.000169959	0.000479077	20.7789	34043.7	89720.1	95961.8	-69.2211	0.0000000E+000	0.0000000E+000	0.0000000E+000	69.2211	0.0000000E+000	0.0000000E+000	0.0000000E+000	-69.2211	0.0000000E+000	0.0000000E+000	0.0000000E+000	-20.7789	0.0000000E+000	0.0000000E+000	0.0000000E+000	20.7789	2.63544	69.2211	-0.00185695
0.398211	2147.62	416.465	2187.63	-10.9746	3894.8	-0.000246636	-0.504446	959.683	34.7807	2	39	0.0136278	6.22948e-06	0	-0.156417	0.121318	0.0545052	1.26378	4.99365e-06	7.96465e-06	3.72115e-06	1.14155e-05	3.18588e-06	3.66995e-06	9.9022	6.70183	33.2389	1.78686e-07	2.33933e-07	2.98864e-07	1.8098e-07	3.08666e-07	1.28124e-07	0.000448756	8.70225e-05	0.000457116	10.9746	34780.7	179357	182698	-79.0255	0.0000000E+000	0.0000000E+000	0.0000000E+000	79.0255	0.0000000E+000	0.0000000E+000	0.0000000E+000	-79.0255	0.0000000E+000	0.0000000E+000	0.0000000E+000	-10.9746	0.0000000E+000	0.0000000E+000	0.0000000E+000	10.9746	5.15678	79.0255	-0.00362629
0.199573	2267.72	261.16	2282.71	-6.56947	4019.25	-0.000244649	-0.504245	3053.59	39.9688	2	39	0.0136288	5.97045e-06	0	-0.173839	0.119638	0.0420048	0.956302	3.04636e-06	1.13041e-05	2.57576e-06	9.78375e-06	2.74518e-06	2.57712e-06	8.93187	5.49957	29.2095	2.03505e-07	1.97748e-07	1.54197e-07	1.7353e-07	2.94926e-07	1.57808e-07	0.000435199	5.01192e-05	0.000438075	6.56947	39968.8	347060	349354	-83.4305	0.0000000E+000	0.0000000E+000	0.0000000E+000	83.4305	0.0000000E+000	0.0000000E+000	0.0000000E+000	-83.4305	0.0000000E+000	0.0000000E+000	0.0000000E+000	-6.56947	0.0000000E+000	0.0000000E+000	0.0000000E+000	6.56947	8.68327	83.4305	-0.00716337
0.0999518	2230.76	147.3	2235.61	-3.77785	4266.06	-0.000242058	-0.503679	10810	46.9289	2	39	0.0136285	6.09611e-06	0	-0.208367	0.122051	0.0300496	0.744944	2.39008e-06	1.19236e-05	1.0939e-06	1.087e-05	2.26402e-06	9.85913e-07	8.2013	5.12307	26.236	3.03334e-07	2.24129e-07	1.45853e-07	1.36437e-07	1.20516e-07	1.6701e-07	0.000446332	2.94721e-05	0.000447304	3.77785	46928.8	710703	712251	-86.2222	0.0000000E+000	0.0000000E+000	0.0000000E+000	86.2222	0.0000000E+000	0.0000000E+000	0.0000000E+000	-86.2222	0.0000000E+000	0.0000000E+000	0.0000000E+000	-3.77785	0.0000000E+000	0.0000000E+000	0.0000000E+000	3.77785	15.1443	86.2222	-0.0142197
630957	3.5656	2.52213	4.36745	-35.2737	4272.01	-0.000147454	-0.50553	0.100012	0.0333527	3	38	0.01443	0.003304	0	-0.209207	-1	-1	-1	0	0	0	0	0	0	-1	-1	-1	0	0	0	0	0	0	0.186929	0.132224	0.228967	35.2737	33.3528	47.1517	57.7554	-54.7263	0.0000000E+000	0.0000000E+000	0.0000000E+000	54.7263	0.0000000E+000	0.0000000E+000	0.0000000E+000	-54.7263	0.0000000E+000	0.0000000E+000	0.0000000E+000	-35.2737	0.0000000E+000	0.0000000E+000	0.0000000E+000	35.2737	1.41373	54.7263	-0.000251442
316230	3.4617	1.33357	3.70969	-21.0685	4277.45	-0.000130211	-0.505411	0.377399	0.0487707	3	38	0.0145639	0.00392592	0	-0.209968	-1	-1	-1	0	0	0	0	0	0	-1	-1	-1	0	0	0	0	0	0	0.251545	0.0969041	0.269565	21.0685	48.7707	126.6	135.669	-68.9315	0.0000000E+000	0.0000000E+000	0.0000000E+000	68.9315	0.0000000E+000	0.0000000E+000	0.0000000E+000	-68.9315	0.0000000E+000	0.0000000E+000	0.0000000E+000	-21.0685	0.0000000E+000	0.0000000E+000	0.0000000E+000	21.0685	2.59581	68.9315	-0.000255072
158486	3.42048	0.950791	3.55017	-15.5343	4282.89	-0.000148927	-0.504417	1.05619	0.0757558	3	38	0.0145817	0.00410732	0	-0.210718	-1	-1	-1	0	0	0	0	0	0	-1	-1	-1	0	0	0	0	0	0	0.271387	0.0754375	0.281677	15.5343	75.7558	272.532	282.865	-74.4657	0.0000000E+000	0.0000000E+000	0.0000000E+000	74.4657	0.0000000E+000	0.0000000E+000	0.0000000E+000	-74.4657	0.0000000E+000	0.0000000E+000	0.0000000E+000	-15.5343	0.0000000E+000	0.0000000E+000	0.0000000E+000	15.5343	3.59751	74.4657	-0.000241881
79433.3	3.45678	1.05099	3.61302	-16.9113	4288.33	-0.000165293	-0.506329	1.90641	0.161316	3	38	0.0145914	0.00403855	0	-0.21147	0.572085	0.26993	9.20429	4.51476e-05	2.35344e-05	3.08177e-05	2.25897e-05	1.74499e-05	3.93606e-05	0.0700006	0.0306721	0.721457	1.87633e-06	1.34313e-06	8.49012e-07	8.1537e-07	5.94302e-07	5.66345e-07	0.264808	0.0805116	0.276776	16.9113	161.316	530.577	554.558	-73.0887	0.0000000E+000	0.0000000E+000	0.0000000E+000	73.0887	0.0000000E+000	0.0000000E+000	0.0000000E+000	-73.0887	0.0000000E+000	0.0000000E+000	0.0000000E+000	-16.9113	0.0000000E+000	0.0000000E+000	0.0000000E+000	16.9113	3.28906	73.0887	-0.000249549
39814.1	3.58359	1.57153	3.91303	-23.6791	4293.77	-0.000137835	-0.507119	2.54367	0.410279	3	38	0.0145961	0.00373013	0	-0.212229	0.48153	0.258798	9.26027	3.23553e-05	2.19461e-05	2.90639e-05	2.52046e-05	1.44566e-05	3.23782e-05	0.0644361	0.0566869	0.783241	7.87806e-07	1.10698e-06	1.06162e-06	7.28951e-07	6.81209e-07	1.12e-06	0.234041	0.102635	0.255556	23.6791	410.279	935.568	1021.58	-66.3209	0.0000000E+000	0.0000000E+000	0.0000000E+000	66.3209	0.0000000E+000	0.0000000E+000	0.0000000E+000	-66.3209	0.0000000E+000	0.0000000E+000	0.0000000E+000	-23.6791	0.0000000E+000	0.0000000E+000	0.0000000E+000	23.6791	2.28032	66.3209	-0.00026008
19948.8	3.82732	2.71706	4.69369	-35.3714	4299.21	-0.000190626	-0.506493	2.93633	0.983951	3	38	0.0147217	0.00313649	0	-0.212984	0.473935	0.220348	9.01515	3.00891e-05	1.99009e-05	3.46012e-05	2.82265e-05	2.01053e-05	1.98332e-05	0.0679838	0.0473898	0.940801	1.03729e-06	1.17778e-06	5.30376e-07	6.24606e-07	5.52573e-07	7.26461e-07	0.173726	0.12333	0.213052	35.3714	983.951	1386.02	1699.77	-54.6286	0.0000000E+000	0.0000000E+000	0.0000000E+000	54.6286	0.0000000E+000	0.0000000E+000	0.0000000E+000	-54.6286	0.0000000E+000	0.0000000E+000	0.0000000E+000	-35.3714	0.0000000E+000	0.0000000E+000	0.0000000E+000	35.3714	1.40862	54.6286	-0.000252337
10002.2	4.35399	4.909	6.56167	-48.4289	4304.64	-0.000198026	-0.506357	3.24138	1.81421	3	38	0.0146502	0.0022327	0	-0.21374	0.398578	0.323355	9.26333	2.57823e-05	2.24675e-05	2.61752e-05	9.96512e-06	1.56921e-05	2.93465e-05	0.159193	0.0522849	1.32336	3.25156e-06	5.1095e-07	5.18618e-07	6.2547e-07	3.97219e-07	8.2626e-07	0.101125	0.114016	0.1524	48.4289	1814.21	1609.1	2424.98	-41.5711	0.0000000E+000	0.0000000E+000	0.0000000E+000	41.5711	0.0000000E+000	0.0000000E+000	0.0000000E+000	-41.5711	0.0000000E+000	0.0000000E+000	0.0000000E+000	-48.4289	0.0000000E+000	0.0000000E+000	0.0000000E+000	48.4289	0.886941	41.5711	-0.000256259
5011.6	5.46879	8.84421	10.3984	-58.2695	4310.05	-0.000301911	-0.506236	3.59074	2.59756	3	38	0.0147229	0.00141587	0	-0.214482	0.615326	0.25596	8.98033	5.35251e-05	3.50614e-05	2.1753e-05	3.6448e-05	1.83042e-05	2.91884e-05	0.586339	0.059182	2.10848	8.04178e-06	1.4986e-06	4.28962e-07	6.14535e-07	8.05739e-07	5.71286e-07	0.0505771	0.0817941	0.0961682	58.2695	2597.56	1606.19	3054.04	-31.7305	0.0000000E+000	0.0000000E+000	0.0000000E+000	31.7305	0.0000000E+000	0.0000000E+000	0.0000000E+000	-31.7305	0.0000000E+000	0.0000000E+000	0.0000000E+000	-58.2695	0.0000000E+000	0.0000000E+000	0.0000000E+000	58.2695	0.618347	31.7305	-0.000255423
2512.41	7.83065	15.7008	17.5452	-63.4926	4315.54	-0.000265412	-0.504171	4.03467	3.23098	3	38	0.0131985	0.000752255	0	-0.21525	0.59423	0.228133	10.1405	3.042e-05	2.18746e-05	2.86163e-05	2.96889e-05	2.67114e-05	3.67496e-05	0.897189	0.146972	3.8875	5.87037e-06	2.31218e-06	5.67617e-07	1.80521e-06	9.39252e-07	5.61231e-07	0.0254379	0.051004	0.0569956	63.4926	3230.98	1611.43	3610.53	-26.5074	0.0000000E+000	0.0000000E+000	0.0000000E+000	26.5074	0.0000000E+000	0.0000000E+000	0.0000000E+000	-26.5074	0.0000000E+000	0.0000000E+000	0.0000000E+000	-63.4926	0.0000000E+000	0.0000000E+000	0.0000000E+000	63.4926	0.498742	26.5074	-0.000255787
1258.79	12.8357	27.1603	30.0406	-64.705	4321.04	-0.000257863	-0.507599	4.65513	3.80525	3	38	0.0126651	0.000421599	0	-0.216018	0.502157	0.318581	10.6432	3.20985e-05	1.96535e-05	1.94747e-05	2.44846e-05	2.3845e-05	2.21125e-05	0.914043	0.236401	6.96005	3.22317e-06	1.20048e-06	5.94832e-07	1.24835e-06	5.61129e-07	6.49633e-07	0.0142234	0.0300966	0.0332882	64.705	3805.25	1798.33	4208.79	-25.295	0.0000000E+000	0.0000000E+000	0.0000000E+000	25.295	0.0000000E+000	0.0000000E+000	0.0000000E+000	-25.295	0.0000000E+000	0.0000000E+000	0.0000000E+000	-64.705	0.0000000E+000	0.0000000E+000	0.0000000E+000	64.705	0.472592	25.295	-0.00025625
631.01	22.5265	45.0821	50.3968	-63.4498	4327.01	-0.000256521	-0.503527	5.59474	4.47695	3	39	0.0142756	0.000283263	0	-0.216845	0.474168	0.20799	8.91197	2.88333e-05	3.14914e-05	1.94977e-05	3.53777e-05	1.54047e-05	1.64482e-05	1.40002	0.127476	4.74007	3.54533e-06	1.21692e-06	3.44622e-07	1.14297e-06	2.49267e-07	1.31927e-07	0.00886926	0.01775	0.0198425	63.4498	4476.95	2237.03	5004.73	-26.5502	0.0000000E+000	0.0000000E+000	0.0000000E+000	26.5502	0.0000000E+000	0.0000000E+000	0.0000000E+000	-26.5502	0.0000000E+000	0.0000000E+000	0.0000000E+000	-63.4498	0.0000000E+000	0.0000000E+000	0.0000000E+000	63.4498	0.499677	26.5502	-0.00025448
316.316	40.6933	71.7276	82.4669	-60.4324	4332.5	-0.000243193	-0.503431	7.01476	5.30672	3	39	0.0138282	0.000167682	0	-0.217607	0.463218	0.232787	9.14485	2.60667e-05	2.09132e-05	2.34395e-05	1.79631e-05	3.22625e-05	2.45912e-05	1.32915	0.225686	7.80969	2.06376e-06	4.46079e-07	2.58047e-07	4.96898e-07	2.60307e-07	2.04517e-07	0.00598361	0.010547	0.0121261	60.4324	5306.72	3010.66	6101.26	-29.5676	0.0000000E+000	0.0000000E+000	0.0000000E+000	29.5676	0.0000000E+000	0.0000000E+000	0.0000000E+000	-29.5676	0.0000000E+000	0.0000000E+000	0.0000000E+000	-60.4324	0.0000000E+000	0.0000000E+000	0.0000000E+000	60.4324	0.567331	29.5676	-0.000254183
158.529	71.1411	108.558	129.792	-56.7622	4338	-0.000266382	-0.503563	9.248	6.46962	3	39	0.0136881	0.000105461	0	-0.218372	0.483975	0.270939	9.19436	2.85985e-05	2.32227e-05	2.89729e-05	3.01074e-05	1.77128e-05	1.79734e-05	1.39708	0.427758	12.777	1.27646e-06	3.7397e-07	3.25271e-07	3.03333e-07	2.60289e-07	1.43009e-07	0.00422302	0.00644417	0.00770463	56.7622	6469.62	4239.7	7735.05	-33.2378	0.0000000E+000	0.0000000E+000	0.0000000E+000	33.2378	0.0000000E+000	0.0000000E+000	0.0000000E+000	-33.2378	0.0000000E+000	0.0000000E+000	0.0000000E+000	-56.7622	0.0000000E+000	0.0000000E+000	0.0000000E+000	56.7622	0.655325	33.2378	-0.000256049
79.4157	118.278	157.536	196.996	-53.1008	4343.38	-0.000264965	-0.504122	12.7214	8.13542	3	39	0.0136381	6.92302e-05	0	-0.219118	0.534816	0.297936	9.31813	1.92487e-05	2.60061e-05	2.22704e-05	3.18922e-05	3.77494e-05	2.20132e-05	1.73251	0.502708	19.5486	9.75757e-07	2.29178e-07	2.01715e-07	3.0052e-07	3.55793e-07	2.13465e-07	0.00304783	0.00405944	0.00507625	53.1008	8135.42	6108.08	10173.2	-36.8992	0.0000000E+000	0.0000000E+000	0.0000000E+000	36.8992	0.0000000E+000	0.0000000E+000	0.0000000E+000	-36.8992	0.0000000E+000	0.0000000E+000	0.0000000E+000	-53.1008	0.0000000E+000	0.0000000E+000	0.0000000E+000	53.1008	0.750801	36.8992	-0.000246553
39.8089	184.78	224.845	291.031	-50.5862	4348.7	-0.000280232	-0.50226	17.781	10.6132	3	39	0.0136364	4.68555e-05	0	-0.219858	0.405351	0.299441	9.40315	2.01493e-05	1.59478e-05	2.74624e-05	2.67216e-05	1.35139e-05	2.10348e-05	2.0958	0.745691	28.5296	7.43371e-07	2.13519e-07	2.30217e-07	3.79278e-07	2.32706e-07	1.32808e-07	0.00218161	0.00265463	0.00343606	50.5862	10613.2	8722.03	13737.3	-39.4138	0.0000000E+000	0.0000000E+000	0.0000000E+000	39.4138	0.0000000E+000	0.0000000E+000	0.0000000E+000	-39.4138	0.0000000E+000	0.0000000E+000	0.0000000E+000	-50.5862	0.0000000E+000	0.0000000E+000	0.0000000E+000	50.5862	0.821813	39.4138	-0.000245769
19.9553	279.208	313.475	419.79	-48.309	4353.97	-0.00026161	-0.503861	25.4424	14.1873	3	39	0.0136105	3.24221e-05	0	-0.220588	0.445101	0.230302	9.44473	2.3863e-05	2.27411e-05	2.55769e-05	2.09206e-05	2.38435e-05	1.86872e-05	2.62547	1.05611	41.6353	6.41251e-07	2.10936e-07	2.34665e-07	2.15708e-07	2.20392e-07	2.50193e-07	0.00158439	0.00177885	0.00238214	48.309	14187.3	12636.4	18998.9	-41.691	0.0000000E+000	0.0000000E+000	0.0000000E+000	41.691	0.0000000E+000	0.0000000E+000	0.0000000E+000	-41.691	0.0000000E+000	0.0000000E+000	0.0000000E+000	-48.309	0.0000000E+000	0.0000000E+000	0.0000000E+000	48.309	0.890685	41.691	-0.000245908
9.99682	420.001	447.034	613.384	-46.7858	4359.38	-0.000239185	-0.503218	35.6138	18.9162	3	39	0.0136303	2.22215e-05	0	-0.221341	0.56292	0.240589	9.46505	3.08626e-05	3.37091e-05	2.78794e-05	2.74703e-05	2.47593e-05	3.13332e-05	4.09156	2.31045	60.7154	5.41629e-07	2.63216e-07	2.38726e-07	2.88689e-07	3.27773e-07	2.8734e-07	0.00111631	0.00118816	0.0016303	46.7858	18916.2	17772.3	25955.3	-43.2142	0.0000000E+000	0.0000000E+000	0.0000000E+000	43.2142	0.0000000E+000	0.0000000E+000	0.0000000E+000	-43.2142	0.0000000E+000	0.0000000E+000	0.0000000E+000	-46.7858	0.0000000E+000	0.0000000E+000	0.0000000E+000	46.7858	0.939529	43.2142	-0.000245591
5.01283	637.369	626.474	893.705	-44.5061	4366.34	-0.000241117	-0.503822	50.6797	24.903	3	39	0.0136239	1.52443e-05	0	-0.222306	0.346294	0.168079	5.46457	1.69392e-05	1.81527e-05	1.91283e-05	2.23096e-05	1.67263e-05	1.07797e-05	4.54187	3.90975	49.5176	5.67844e-07	1.89769e-07	1.68009e-07	1.71299e-07	1.68024e-07	8.93018e-08	0.000797999	0.000784358	0.00111894	44.5061	24903	25336.1	35525.7	-45.4939	0.0000000E+000	0.0000000E+000	0.0000000E+000	45.4939	0.0000000E+000	0.0000000E+000	0.0000000E+000	-45.4939	0.0000000E+000	0.0000000E+000	0.0000000E+000	-44.5061	0.0000000E+000	0.0000000E+000	0.0000000E+000	44.5061	1.01739	45.4939	-0.000371502
2.51085	1012.9	791.705	1285.6	-38.0118	4377.97	-0.000261228	-0.50321	80.0639	30.3634	3	39	0.0136255	1.05986e-05	0	-0.223926	0.199991	0.104874	3.55571	6.49023e-06	1.55081e-05	7.12531e-06	1.35544e-05	9.33057e-06	6.62735e-06	6.12491	7.97155	48.3264	5.49365e-07	2.18689e-07	1.28218e-07	1.53803e-07	7.2093e-08	5.17746e-08	0.000612852	0.000479016	0.000777846	38.0118	30363.4	38846.8	49305.3	-51.9882	0.0000000E+000	0.0000000E+000	0.0000000E+000	51.9882	0.0000000E+000	0.0000000E+000	0.0000000E+000	-51.9882	0.0000000E+000	0.0000000E+000	0.0000000E+000	-38.0118	0.0000000E+000	0.0000000E+000	0.0000000E+000	38.0118	1.2794	51.9882	-0.000646457
1.25825	1567.82	855.314	1785.95	-28.6144	4399.24	-0.000268976	-0.503285	147.886	33.9187	3	39	0.0136318	7.63281e-06	0	-0.226892	0.184016	0.0699439	2.79866	7.73592e-06	1.09811e-05	7.76609e-06	1.43498e-05	7.71972e-06	5.22718e-06	5.73426	9.08906	50.0509	1.75804e-07	2.55873e-07	1.48081e-07	8.32013e-08	1.59413e-07	1.09787e-07	0.000491538	0.000268156	0.000559926	28.6144	33918.7	62174.1	70824.4	-61.3856	0.0000000E+000	0.0000000E+000	0.0000000E+000	61.3856	0.0000000E+000	0.0000000E+000	0.0000000E+000	-61.3856	0.0000000E+000	0.0000000E+000	0.0000000E+000	-28.6144	0.0000000E+000	0.0000000E+000	0.0000000E+000	28.6144	1.83303	61.3856	-0.00120263
0.630906	1917.91	582.493	2004.42	-16.8942	4439.75	-0.000243796	-0.503338	433.077	36.5738	3	39	0.0136298	6.79986e-06	0	-0.232544	0.152021	0.0486461	1.67896	4.43999e-06	1.24187e-05	4.68026e-06	1.25948e-05	5.61415e-06	5.33197e-06	9.30985	10.0056	37.8083	2.89235e-07	2.42525e-07	2.45129e-07	3.25545e-07	1.69053e-07	1.16829e-07	0.000477367	0.000144982	0.000498898	16.8942	36573.8	120423	125854	-73.1058	0.0000000E+000	0.0000000E+000	0.0000000E+000	73.1058	0.0000000E+000	0.0000000E+000	0.0000000E+000	-73.1058	0.0000000E+000	0.0000000E+000	0.0000000E+000	-16.8942	0.0000000E+000	0.0000000E+000	0.0000000E+000	16.8942	3.29259	73.1058	-0.00231031
0.316193	2069.94	327.116	2095.63	-8.98029	4518.87	-0.000261268	-0.502886	1538.74	37.4923	3	39	0.0136288	6.50344e-06	0	-0.243586	0.124976	0.053192	1.25533	2.64765e-06	1.15061e-05	2.88814e-06	1.07275e-05	2.77578e-06	2.97862e-06	10.1104	8.80435	32.6593	2.2208e-07	3.28334e-07	2.20551e-07	1.20535e-07	2.57712e-07	2.37163e-07	0.000471335	7.4486e-05	0.000477184	8.98029	37492.3	237245	240190	-81.0197	0.0000000E+000	0.0000000E+000	0.0000000E+000	81.0197	0.0000000E+000	0.0000000E+000	0.0000000E+000	-81.0197	0.0000000E+000	0.0000000E+000	0.0000000E+000	-8.98029	0.0000000E+000	0.0000000E+000	0.0000000E+000	8.98029	6.32784	81.0197	-0.00453411
0.158419	2153.89	188.171	2162.09	-4.99288	4675.16	-0.000266923	-0.502488	5339.01	40.4406	3	39	0.0136269	6.30264e-06	0	-0.265392	0.119546	0.0346397	0.839901	3.0944e-06	1.09793e-05	2.2783e-06	1.01565e-05	2.4619e-06	2.81232e-06	9.92681	5.6731	27.431	3.15427e-07	2.94492e-07	2.22267e-07	1.22345e-07	1.99577e-07	2.28207e-07	0.00046076	4.02536e-05	0.000462515	4.99288	40440.6	462901	464664	-85.0071	0.0000000E+000	0.0000000E+000	0.0000000E+000	85.0071	0.0000000E+000	0.0000000E+000	0.0000000E+000	-85.0071	0.0000000E+000	0.0000000E+000	0.0000000E+000	-4.99288	0.0000000E+000	0.0000000E+000	0.0000000E+000	4.99288	11.4464	85.0071	-0.00897223
0.0999518	2159.49	120.833	2162.86	-3.20263	4857.63	-0.000238386	-0.502102	13177.8	41.1299	3	39	0.0136272	6.30052e-06	0	-0.290834	0.120734	0.0590389	0.734094	1.97281e-06	1.05794e-05	3.66169e-06	1.12781e-05	2.27369e-06	1.39418e-06	7.55636	4.47844	26.6903	2.14358e-07	1.98151e-07	2.35922e-07	9.54058e-08	1.59038e-07	1.36018e-07	0.000461628	2.58302e-05	0.00046235	3.20263	41129.9	735058	736207	-86.7974	0.0000000E+000	0.0000000E+000	0.0000000E+000	86.7974	0.0000000E+000	0.0000000E+000	0.0000000E+000	-86.7974	0.0000000E+000	0.0000000E+000	0.0000000E+000	-3.20263	0.0000000E+000	0.0000000E+000	0.0000000E+000	3.20263	17.8716	86.7974	-0.0141732