File: Python/Data/RDE/240222-CV-EIS-Fe2Fe3_5mM-HCl1M-0RPM-Ag_AgCl_BLF8-GC-RDE-DefaultSettings_01_CV_C15.mpt
EC-Lab ASCII FILE
Nb header lines : 60

Cyclic Voltammetry

Run on channel : 15 (SN 19485)
User :
Electrode connection : standard
Potential control : Ewe
Ewe ctrl range : min = -1.00 V, max = 1.00 V
Ewe,I filtering : <None>
Safety Limits :
	Do not start on E overload
Channel : Floating
Acquisition started on : 02/22/2024 14:35:39.248
Loaded Setting File :  C:\Data\mathias\RDE-RPM-variation\240219-CV-EIS-Fe2Fe3_5mM-HCl1M-RPMtest-Ag_AgCl_BLF8-GC-RDE.mps
Saved on :
	File : 240222-CV-EIS-Fe2Fe3_5mM-HCl1M-0RPM-Ag_AgCl_BLF8-GC-RDE-DefaultSettings_01_CV_C15.mpr
	Directory : C:\Data\mathias\RDE-RPM-variation\
	Host : 192.168.0.1
Device : VMP-300 (SN 0826)
Address : USB
EC-Lab for windows v11.52 (software)
Internet server v11.52 (firmware)
Command interpretor v11.52 (firmware)
Electrode material :
Initial state :
Electrolyte :
Comments :
Cable : special
Electrode surface area : 0.001 cm²
Characteristic mass : 0.001 g
Equivalent Weight : 0.000 g/eq.
Density : 0.000 g/cm3
Volume (V) : 0.001 cm³
Record EIS quality indicators
Cycle Definition : Charge/Discharge alternance
Ei (V)              0.000
vs.                 Eoc
dE/dt               20.000
dE/dt unit          mV/s
E1 (V)              1.000
vs.                 Ref
Step percent        50
N                   10
E range min (V)     -1.000
E range max (V)     1.000
I Range             Auto
I Range min         Unset
I Range max         Unset
I Range init        Unset
Bandwidth           8
E2 (V)              0.000
vs.                 Ref
nc cycles           2
Reverse Scan        1
Ef (V)              0.000
vs.                 Eoc

mode	ox/red	error	control changes	counter inc.	time/s	control/V	Ewe/V	<I>/mA	cycle number	(Q-Qo)/C	I Range	step time/s	P/W
2	1	1	0	0	0.000000000000000E+000	0.463489	0.463199	0.000412757	1	0.0000000E+000	43	0.000000000000000E+000	1.91189e-07
2	1	0	1	0	0.5186	0.473859	0.473574	0.00280029	1	8.41662e-07	42	0.5048	1.32614e-06
2	1	0	1	0	1.0183	0.483855	0.483431	0.0050547	1	2.80411e-06	42	1.0045	2.4436e-06
2	1	0	1	0	1.5181	0.49385	0.493757	0.00738421	1	5.90975e-06	42	1.5043	3.64601e-06
2	1	0	1	0	2.0179	0.503845	0.503657	0.00986548	1	1.02152e-05	42	2.0041	4.96882e-06
2	1	0	1	0	2.5476	0.51444	0.514024	0.0126387	1	1.61859e-05	41	2.5338	6.4966e-06
2	1	0	1	0	3.0474	0.524435	0.523979	0.015567	1	2.32672e-05	41	3.0336	8.15677e-06
2	1	0	1	0	3.5471	0.534431	0.533921	0.0188004	1	3.18782e-05	41	3.5333	1.00379e-05
2	1	0	1	0	4.0469	0.544426	0.5439	0.0222787	1	4.21665e-05	41	4.0331	1.21174e-05
2	1	0	1	0	4.5466	0.554419	0.55386	0.0260924	1	5.42768e-05	41	4.5328	1.44516e-05
2	1	0	1	0	5.0464	0.564416	0.563968	0.0301772	1	6.83637e-05	41	5.0326	1.7019e-05
2	1	0	1	0	5.5462	0.574411	0.573903	0.0345198	1	8.4563e-05	41	5.5324	1.98111e-05
2	1	0	1	0	6.046	0.584409	0.584274	0.0390242	1	0.000102986	41	6.0322	2.28008e-05
2	1	0	1	0	6.5457	0.594402	0.594336	0.0436798	1	0.000123705	41	6.5319	2.59605e-05
2	1	0	1	0	7.0455	0.604397	0.60408	0.0483434	1	0.000146748	41	7.0317	2.92033e-05
2	1	0	1	0	7.5452	0.614392	0.614313	0.0527667	1	0.000172064	41	7.5314	3.24153e-05
2	1	0	1	0	8.045	0.624388	0.624162	0.0569135	1	0.000199534	41	8.0312	3.55233e-05
2	1	0	1	0	8.5448	0.634383	0.633938	0.060517	1	0.000228943	41	8.531	3.8364e-05
2	1	0	1	0	9.0445	0.644378	0.643838	0.0635018	1	0.000259997	41	9.0307	4.08849e-05
2	1	0	1	0	9.5443	0.654373	0.653966	0.0657374	1	0.000292363	41	9.5305	4.299e-05
2	1	0	1	0	10.044	0.664369	0.663951	0.0672321	1	0.000325652	41	10.0302	4.46388e-05
2	1	0	1	0	10.5438	0.674364	0.674193	0.0679532	1	0.000359499	41	10.53	4.58136e-05
2	1	0	1	0	11.0436	0.684359	0.683917	0.0680363	1	0.00039355	41	11.0298	4.65312e-05
2	1	0	1	0	11.5433	0.694354	0.693966	0.0675909	1	0.000427497	41	11.5295	4.69058e-05
2	1	0	1	0	12.0431	0.70435	0.704131	0.0666989	1	0.000461109	41	12.0293	4.69648e-05
2	1	0	1	0	12.5428	0.714343	0.714006	0.0654962	1	0.000494187	41	12.529	4.67647e-05
2	1	0	1	0	13.0426	0.72434	0.723734	0.0640952	1	0.00052661	41	13.0288	4.63879e-05
2	1	0	1	0	13.5424	0.734335	0.733758	0.0624807	1	0.000558279	41	13.5286	4.58457e-05
2	1	0	1	0	14.0421	0.744331	0.744003	0.0608401	1	0.000589134	41	14.0283	4.52652e-05
2	1	0	1	0	14.5419	0.754326	0.754125	0.0592116	1	0.000619171	41	14.5281	4.46529e-05
2	1	0	1	0	15.0417	0.764321	0.764186	0.0575286	1	0.000648385	41	15.0279	4.39626e-05
2	1	0	1	0	15.5414	0.774316	0.773906	0.0559752	1	0.000676781	41	15.5276	4.33196e-05
2	1	0	1	0	16.0412	0.784312	0.784141	0.0544151	1	0.000704397	41	16.0274	4.26691e-05
2	1	0	1	0	16.541	0.794307	0.794072	0.0529679	1	0.000731264	41	16.5272	4.20603e-05
2	1	0	1	0	17.0407	0.804302	0.803905	0.0516092	1	0.00075742	41	17.0269	4.14889e-05
2	1	0	1	0	17.5405	0.814297	0.814037	0.0503109	1	0.000782911	41	17.5267	4.09549e-05
2	1	0	1	0	18.0402	0.824293	0.823918	0.049114	1	0.000807776	41	18.0264	4.0466e-05
2	1	0	1	0	18.54	0.834288	0.834064	0.0479616	1	0.000832063	41	18.5262	4.0003e-05
2	1	0	1	0	19.0398	0.844283	0.843813	0.0469125	1	0.000855806	41	19.026	3.95854e-05
2	1	0	1	0	19.5395	0.854278	0.853709	0.0459383	1	0.000879041	41	19.5257	3.92179e-05
2	1	0	1	0	20.0393	0.864274	0.863737	0.0450855	1	0.000901812	41	20.0255	3.8942e-05
2	1	0	1	0	20.539	0.874267	0.873825	0.0442555	1	0.00092415	41	20.5252	3.86716e-05
2	1	0	1	0	21.0388	0.884264	0.883894	0.0434914	1	0.000946093	41	21.025	3.84418e-05
2	1	0	1	0	21.5386	0.894259	0.893962	0.0427624	1	0.000967668	41	21.5248	3.82279e-05
2	1	0	1	0	22.0383	0.904255	0.903895	0.0420973	1	0.000988901	41	22.0245	3.80516e-05
2	1	0	1	0	22.5381	0.91425	0.913843	0.0415211	1	0.00100982	41	22.5243	3.79438e-05
2	1	0	1	0	23.0379	0.924245	0.923897	0.0409452	1	0.00103045	41	23.0241	3.78292e-05
2	1	0	1	0	23.5376	0.93424	0.933991	0.0404387	1	0.00105082	41	23.5238	3.77694e-05
2	1	0	1	0	24.0374	0.944236	0.944127	0.0399632	1	0.00107094	41	24.0236	3.77304e-05
2	1	0	1	0	24.5372	0.954231	0.953702	0.0395368	1	0.00109084	41	24.5234	3.77064e-05
2	1	0	1	0	25.0369	0.964226	0.96379	0.0391384	1	0.00111053	41	25.0231	3.77212e-05
2	1	0	1	0	25.5367	0.974221	0.973929	0.0387667	1	0.00113002	41	25.5229	3.7756e-05
2	1	0	1	0	26.0364	0.984217	0.984003	0.0384057	1	0.00114934	41	26.0226	3.77913e-05
2	1	0	1	0	26.5362	0.994212	0.993919	0.0381646	1	0.00116852	41	26.5224	3.79325e-05
2	1	0	1	0	27.0141	0.996211	0.996069	0.0367576	1	0.00118655	41	27.0003	3.66131e-05
2	1	0	1	0	27.5139	0.986216	0.985947	0.0354877	1	0.00120454	41	27.5001	3.4989e-05
2	1	0	1	0	28.0137	0.97622	0.97595	0.0346123	1	0.001222	41	27.9999	3.37799e-05
2	1	0	1	0	28.5134	0.966225	0.966017	0.0339268	1	0.00123908	41	28.4996	3.27739e-05
2	1	0	1	0	29.0132	0.95623	0.95541	0.0333919	1	0.00125586	41	28.9994	3.19029e-05
2	1	0	1	0	29.513	0.946235	0.945718	0.0329242	1	0.00127238	41	29.4992	3.1137e-05
2	1	0	1	0	30.0127	0.936239	0.935641	0.0324594	1	0.00128867	41	29.9989	3.03703e-05
2	1	0	1	0	30.5125	0.926244	0.925983	0.0320447	1	0.00130474	41	30.4987	2.96728e-05
2	1	0	1	0	31.0122	0.916249	0.91583	0.0316705	1	0.00132061	41	30.9984	2.90048e-05
2	1	0	1	0	31.512	0.906254	0.905758	0.0313054	1	0.0013363	41	31.4982	2.83551e-05
2	1	0	1	0	32.0118	0.896258	0.895871	0.0309368	1	0.0013518	41	31.998	2.77154e-05
2	1	0	1	0	32.5115	0.886263	0.885872	0.0305498	1	0.00136712	41	32.4977	2.70633e-05
2	1	0	1	0	33.0113	0.876268	0.875893	0.0302181	1	0.00138226	41	32.9975	2.64678e-05
2	1	0	1	0	33.511	0.866274	0.865736	0.0298703	1	0.00139722	41	33.4972	2.58598e-05
2	1	0	1	0	34.0108	0.856277	0.855991	0.0294813	1	0.00141201	41	33.997	2.52357e-05
2	1	0	1	0	34.5106	0.846282	0.845731	0.029179	1	0.00142662	41	34.4968	2.46776e-05
2	1	0	1	0	35.0103	0.836287	0.83592	0.0287743	1	0.00144103	41	34.9965	2.40531e-05
2	1	0	1	0	35.5101	0.826292	0.825552	0.0283977	1	0.00145527	41	35.4963	2.34438e-05
2	1	0	1	0	36.0099	0.816296	0.815914	0.027997	1	0.00146931	41	35.9961	2.28431e-05
2	1	0	1	0	36.5096	0.806301	0.805924	0.0275715	1	0.00148314	41	36.4958	2.22206e-05
2	1	0	1	0	37.0094	0.796306	0.795863	0.0271029	1	0.00149676	41	36.9956	2.15702e-05
2	1	0	1	0	37.5092	0.78631	0.785892	0.0266814	1	0.00151016	41	37.4954	2.09687e-05
2	1	0	1	0	38.0089	0.776316	0.776035	0.0261923	1	0.00152332	41	37.9951	2.03262e-05
2	1	0	1	0	38.5087	0.76632	0.765924	0.0256962	1	0.00153623	41	38.4949	1.96814e-05
2	1	0	1	0	39.0084	0.756325	0.756127	0.0251425	1	0.00154887	41	38.9946	1.90109e-05
2	1	0	1	0	39.5082	0.74633	0.745916	0.0245222	1	0.00156122	41	39.4944	1.82915e-05
2	1	0	1	0	40.008	0.736334	0.736192	0.0239141	1	0.00157328	41	39.9942	1.76054e-05
2	1	0	1	0	40.5077	0.726339	0.725796	0.0232368	1	0.00158501	41	40.4939	1.68651e-05
2	1	0	1	0	41.0075	0.716344	0.715769	0.0225462	1	0.0015964	41	40.9937	1.61379e-05
2	1	0	1	0	41.5072	0.706351	0.705956	0.0217977	1	0.00160743	41	41.4934	1.53882e-05
2	1	0	1	0	42.007	0.696353	0.696016	0.0210024	1	0.00161807	41	41.9932	1.4618e-05
2	1	0	1	0	42.5068	0.686358	0.685873	0.0201383	1	0.0016283	41	42.493	1.38123e-05
2	1	0	1	0	43.0065	0.676363	0.675955	0.0192395	1	0.00163809	41	42.9927	1.30051e-05
2	1	0	1	0	43.5063	0.666368	0.666105	0.0182945	1	0.00164742	41	43.4925	1.21861e-05
2	1	0	1	0	44.0061	0.656373	0.655976	0.0172687	1	0.00165626	41	43.9923	1.13279e-05
2	1	0	1	0	44.5058	0.646377	0.645945	0.0162025	1	0.00166457	41	44.492	1.0466e-05
2	1	0	1	0	45.0056	0.636382	0.636047	0.0151254	1	0.00167235	41	44.9918	9.62047e-06
2	1	0	1	0	45.5054	0.626386	0.62587	0.0139878	1	0.00167955	41	45.4916	8.75458e-06
2	1	0	1	0	46.0051	0.616392	0.61616	0.0127644	1	0.00168618	41	45.9913	7.86491e-06
2	1	0	1	0	46.5049	0.606396	0.605955	0.0115999	1	0.00169222	41	46.4911	7.02901e-06
2	1	0	1	0	47.0046	0.596401	0.59591	0.0104139	1	0.00169768	41	46.9908	6.20577e-06
2	1	0	1	0	47.5044	0.586406	0.586347	0.00926203	1	0.00170254	41	47.4906	5.43076e-06
2	1	0	1	0	48.0042	0.576411	0.576016	0.00806509	1	0.00170681	41	47.9904	4.64562e-06
2	1	0	1	0	48.5039	0.566415	0.566211	0.00690023	1	0.00171049	41	48.4901	3.90699e-06
2	1	0	1	0	49.0037	0.55642	0.555986	0.00575669	1	0.00171359	41	48.9899	3.20064e-06
2	1	0	1	0	49.5034	0.546426	0.546086	0.00455575	1	0.0017161	41	49.4896	2.48783e-06
2	1	0	1	0	50.0332	0.53583	0.535325	0.00313804	1	0.00171811	42	50.0194	1.67987e-06
2	1	0	1	0	50.533	0.525835	0.525731	0.001885	1	0.00171936	42	50.5192	9.91004e-07
2	1	0	1	0	51.0327	0.515839	0.51547	0.000579002	1	0.00171998	42	51.0189	2.98458e-07
2	0	0	1	0	51.5625	0.505244	0.504906	-0.000896891	1	0.0017199	43	0.2999	-4.52846e-07
2	0	0	1	0	52.0922	0.494649	0.493962	-0.0024924	1	0.00171901	42	0.8296	-1.23115e-06
2	0	0	1	0	52.592	0.484654	0.484396	-0.00413345	1	0.00171736	42	1.3294	-2.00223e-06
2	0	0	1	0	53.0918	0.474657	0.474284	-0.00594163	1	0.00171484	42	1.8292	-2.81802e-06
2	0	0	1	0	53.5915	0.464664	0.464222	-0.00794152	1	0.00171138	42	2.3289	-3.68663e-06
2	0	0	1	0	54.0913	0.454668	0.454164	-0.0101686	1	0.00170686	42	2.8287	-4.61821e-06
2	0	0	1	0	54.621	0.444073	0.443896	-0.0127597	1	0.00170078	41	3.3584	-5.66398e-06
2	0	0	1	0	55.1208	0.434078	0.433992	-0.0156161	1	0.00169368	41	3.8582	-6.77726e-06
2	0	0	1	0	55.6205	0.424083	0.423391	-0.018781	1	0.00168507	41	4.3579	-7.95169e-06
2	0	0	1	0	56.1203	0.414088	0.413821	-0.0223435	1	0.00167478	41	4.8577	-9.24621e-06
2	0	0	1	0	56.6201	0.404092	0.403869	-0.0263434	1	0.0016626	41	5.3575	-1.06393e-05
2	0	0	1	0	57.1198	0.394097	0.393621	-0.0307726	1	0.00164832	41	5.8572	-1.21127e-05
2	0	0	1	0	57.6196	0.384102	0.383361	-0.0356125	1	0.00163172	41	6.357	-1.36525e-05
2	0	0	1	0	58.1194	0.374107	0.373832	-0.0409579	1	0.00161256	41	6.8568	-1.53114e-05
2	0	0	1	0	58.6191	0.364112	0.363895	-0.0466478	1	0.00159065	41	7.3565	-1.69749e-05
2	0	0	1	0	59.1189	0.354116	0.353904	-0.0526733	1	0.0015658	41	7.8563	-1.86413e-05
2	0	0	1	0	59.6186	0.344121	0.34379	-0.0589239	1	0.0015379	41	8.356	-2.02575e-05
2	0	0	1	0	60.1184	0.334126	0.33414	-0.0652047	1	0.00150686	41	8.8558	-2.17875e-05
2	0	0	1	0	60.6182	0.324131	0.323801	-0.0713436	1	0.0014727	41	9.3556	-2.31011e-05
2	0	0	1	0	61.1179	0.314135	0.313931	-0.0771526	1	0.00143555	41	9.8553	-2.42206e-05
2	0	0	1	0	61.6177	0.30414	0.303845	-0.0824275	1	0.00139562	41	10.3551	-2.50451e-05
2	0	0	1	0	62.1174	0.294147	0.293884	-0.0869382	1	0.00135325	41	10.8548	-2.55497e-05
2	0	0	1	0	62.6172	0.284149	0.284162	-0.0904632	1	0.00130886	41	11.3546	-2.57062e-05
2	0	0	1	0	63.117	0.274154	0.273826	-0.0929728	1	0.00126295	41	11.8544	-2.54583e-05
2	0	0	1	0	63.6167	0.264159	0.263898	-0.0943592	1	0.00121607	41	12.3541	-2.49012e-05
2	0	0	1	0	64.1165	0.254164	0.253814	-0.094692	1	0.00116874	41	12.8539	-2.40341e-05
2	0	0	1	0	64.6163	0.244169	0.243685	-0.0941483	1	0.00112148	41	13.3537	-2.29425e-05
2	0	0	1	0	65.116	0.234173	0.233959	-0.092717	1	0.00107474	41	13.8534	-2.1692e-05
2	0	0	1	0	65.6158	0.224178	0.224155	-0.0906548	1	0.00102887	41	14.3532	-2.03207e-05
2	0	0	1	0	66.1156	0.214182	0.214143	-0.0881345	1	0.000984149	41	14.853	-1.88733e-05
2	0	0	1	0	66.6153	0.204188	0.204054	-0.0853702	1	0.000940767	41	15.3527	-1.74202e-05
2	0	0	1	0	67.1151	0.194192	0.193937	-0.0824107	1	0.000898807	41	15.8525	-1.59825e-05
2	0	0	1	0	67.6148	0.184197	0.184103	-0.0794574	1	0.000858339	41	16.3522	-1.46283e-05
2	0	0	1	0	68.1146	0.174202	0.173714	-0.0765279	1	0.000819336	41	16.852	-1.3294e-05
2	0	0	1	0	68.6144	0.164207	0.164289	-0.0737132	1	0.000781768	41	17.3518	-1.21103e-05
2	0	0	1	0	69.1141	0.154211	0.154147	-0.0710328	1	0.000745582	41	17.8515	-1.09495e-05
2	0	0	1	0	69.6139	0.144216	0.144076	-0.0684992	1	0.000710693	41	18.3513	-9.86911e-06
2	0	0	1	0	70.1136	0.134223	0.134094	-0.0661124	1	0.000677039	41	18.851	-8.86527e-06
2	0	0	1	0	70.6134	0.124226	0.124185	-0.0639193	1	0.000644526	41	19.3508	-7.9378e-06
2	0	0	1	0	71.1132	0.11423	0.114057	-0.0618123	1	0.000613084	41	19.8506	-7.05012e-06
2	0	0	1	0	71.6129	0.104235	0.103891	-0.0599015	1	0.000582645	41	20.3503	-6.22322e-06
2	0	0	1	0	72.1127	0.0942399	0.0940386	-0.0581205	1	0.000553131	41	20.8501	-5.46557e-06
2	0	0	1	0	72.6125	0.0842446	0.083897	-0.0564004	1	0.000524481	41	21.3499	-4.73183e-06
2	0	0	1	0	73.1122	0.0742494	0.0739647	-0.0548536	1	0.000496644	41	21.8496	-4.05723e-06
2	0	0	1	0	73.612	0.0642541	0.0641068	-0.0534303	1	0.000469551	41	22.3494	-3.42524e-06
2	0	0	1	0	74.1118	0.0542584	0.0539164	-0.0520586	1	0.000443157	41	22.8492	-2.80681e-06
2	0	0	1	0	74.6115	0.0442636	0.0439336	-0.0507892	1	0.000417426	41	23.3489	-2.23135e-06
2	0	0	1	0	75.1113	0.0342684	0.0338558	-0.0496364	1	0.000392299	41	23.8487	-1.68048e-06
2	0	0	1	0	75.611	0.0242731	0.0238064	-0.0485174	1	0.000367751	41	24.3484	-1.15502e-06
2	0	0	1	0	76.1108	0.0142779	0.0140229	-0.0474609	1	0.000343733	41	24.8482	-6.6554e-07
2	0	0	1	0	76.6106	0.00428263	0.00393854	-0.0464934	1	0.000320221	41	25.348	-1.83116e-07
2	0	0	1	1	77.0885	0.00528216	0.00495608	-0.0444373	1	0.000298443	41	25.8259	-2.20235e-07
2	0	0	1	1	77.5883	0.0152774	0.0152551	-0.0429438	1	0.000276657	41	26.3257	-6.55113e-07
2	0	0	1	1	78.088	0.0252727	0.0249685	-0.0417301	1	0.000255541	41	26.8254	-1.04194e-06
2	0	0	1	1	78.5878	0.0352679	0.0349289	-0.0406346	1	0.000234992	41	27.3252	-1.41932e-06
2	0	0	1	1	79.0876	0.0452631	0.0450377	-0.0396645	1	0.000214957	41	27.825	-1.7864e-06
2	0	0	1	1	79.5873	0.0552584	0.0550134	-0.0387433	1	0.000195405	41	28.3247	-2.1314e-06
2	0	0	1	1	80.0871	0.0652536	0.06498	-0.037837	1	0.000176302	41	28.8245	-2.45865e-06
2	0	0	1	1	80.5868	0.0752484	0.0747974	-0.0370082	1	0.000157636	41	29.3242	-2.76812e-06
2	0	0	1	1	81.0866	0.0852441	0.0851136	-0.036185	1	0.000139381	41	29.824	-3.07983e-06
2	0	0	1	1	81.5864	0.0952394	0.0950221	-0.0353675	1	0.000121528	41	30.3238	-3.3607e-06
2	0	0	1	1	82.0861	0.105235	0.10496	-0.0345903	1	0.000104072	41	30.8235	-3.63059e-06
2	0	0	1	1	82.5859	0.11523	0.114626	-0.0338439	1	8.69976e-05	41	31.3233	-3.87939e-06
2	0	0	1	1	83.0857	0.125225	0.125054	-0.0330989	1	7.03048e-05	41	31.8231	-4.13913e-06
2	0	0	1	1	83.5854	0.13522	0.134957	-0.0322964	1	5.39957e-05	41	32.3228	-4.35862e-06
2	0	0	1	1	84.0852	0.145216	0.145094	-0.0315705	1	3.80613e-05	41	32.8226	-4.58067e-06
2	0	0	1	1	84.585	0.155213	0.154939	-0.0308106	1	2.25093e-05	41	33.3224	-4.77376e-06
2	0	0	1	1	85.0847	0.165206	0.165286	-0.0300309	1	7.34958e-06	41	33.8221	-4.96369e-06
2	0	0	1	1	85.5845	0.175201	0.175084	-0.0291691	1	-7.41069e-06	41	34.3219	-5.10704e-06
2	0	0	1	1	86.0842	0.185197	0.184747	-0.0283495	1	-2.17512e-05	41	34.8216	-5.23749e-06
2	0	0	1	1	86.584	0.195192	0.194949	-0.0274398	1	-3.56641e-05	41	35.3214	-5.34937e-06
2	0	0	1	1	87.0838	0.205187	0.205023	-0.0265562	1	-4.91322e-05	41	35.8212	-5.44465e-06
2	0	0	1	1	87.5835	0.215182	0.214879	-0.0255924	1	-6.2135e-05	41	36.3209	-5.49927e-06
2	0	0	1	1	88.0833	0.225178	0.224922	-0.0245852	1	-7.4651e-05	41	36.8207	-5.52976e-06
2	0	0	1	1	88.583	0.235173	0.234897	-0.0235639	1	-8.66541e-05	41	37.3204	-5.53509e-06
2	0	0	1	1	89.0828	0.245168	0.244898	-0.0224623	1	-9.81286e-05	41	37.8202	-5.50097e-06
2	0	0	1	1	89.5826	0.255163	0.255045	-0.0213547	1	-0.000109051	41	38.32	-5.44641e-06
2	0	0	1	1	90.0823	0.265159	0.264863	-0.0201532	1	-0.000119393	41	38.8197	-5.33784e-06
2	0	0	1	1	90.5821	0.275154	0.275041	-0.0189382	1	-0.00012914	41	39.3195	-5.2088e-06
2	0	0	1	1	91.0819	0.285149	0.284906	-0.0176951	1	-0.000138273	41	39.8193	-5.04142e-06
2	0	0	1	1	91.5816	0.295144	0.294507	-0.0164207	1	-0.000146778	41	40.319	-4.83602e-06
2	0	0	1	1	92.0814	0.30514	0.304858	-0.0151607	1	-0.000154646	41	40.8188	-4.62187e-06
2	0	0	1	1	92.5812	0.315137	0.315016	-0.013843	1	-0.000161862	41	41.3186	-4.36077e-06
2	0	0	1	1	93.0809	0.32513	0.325162	-0.0125223	1	-0.00016842	41	41.8183	-4.07178e-06
2	0	0	1	1	93.5807	0.335125	0.335067	-0.0111829	1	-0.000174321	41	42.3181	-3.74704e-06
2	0	0	1	1	94.0804	0.345121	0.344803	-0.00984605	1	-0.000179557	41	42.8178	-3.39495e-06
2	0	0	1	1	94.5802	0.355116	0.354735	-0.00853424	1	-0.000184129	41	43.3176	-3.02739e-06
2	0	0	1	1	95.08	0.365111	0.364999	-0.00719355	1	-0.000188036	41	43.8174	-2.62564e-06
2	0	0	1	1	95.5797	0.375106	0.374784	-0.00582903	1	-0.000191273	41	44.3171	-2.18463e-06
2	0	0	1	1	96.0945	0.385401	0.385304	-0.00413592	1	-0.000193898	41	44.8319	-1.59359e-06
2	0	0	1	1	96.6092	0.395696	0.39537	-0.00297667	1	-0.000195797	42	45.3466	-1.17689e-06
2	0	0	1	1	97.109	0.405692	0.405647	-0.00151968	1	-0.00019692	42	45.8464	-6.16453e-07
2	1	0	1	1	97.6387	0.416287	0.416067	9.64452e-05	1	-0.000197305	43	0.000000000000000E+000	4.01277e-08
2	1	0	1	1	98.1685	0.426882	0.426485	0.00181637	1	-0.000196808	42	0.5298	7.74654e-07
2	1	0	1	1	98.6682	0.436876	0.436577	0.00357771	1	-0.000195467	42	1.0295	1.56194e-06
2	1	0	1	1	99.168	0.446872	0.44642	0.00549708	1	-0.000193205	42	1.5293	2.45401e-06
2	1	0	1	1	99.6678	0.456867	0.456423	0.00762254	1	-0.000189933	42	2.0291	3.4791e-06
2	1	0	1	1	100.133	0.466163	0.465838	0.00981716	2	-0.000185886	42	2.4939	4.57321e-06
2	1	0	1	1	100.662	0.476758	0.476311	0.0125599	2	-0.000179961	41	3.0236	5.98242e-06
2	1	0	1	1	101.162	0.486753	0.486479	0.0154947	2	-0.000172935	41	3.5234	7.53782e-06
2	1	0	1	1	101.662	0.496748	0.49626	0.0188042	2	-0.00016435	41	4.0231	9.33175e-06
2	1	0	1	1	102.162	0.506744	0.506564	0.0224336	2	-0.000154028	41	4.5229	1.1364e-05
2	1	0	1	1	102.661	0.516739	0.516464	0.0265085	2	-0.000141778	41	5.0227	1.36907e-05
2	1	0	1	1	103.161	0.526734	0.526679	0.0309547	2	-0.000127406	41	5.5224	1.63032e-05
2	1	0	1	1	103.661	0.536729	0.536251	0.0358206	2	-0.000110699	41	6.0222	1.92088e-05
2	1	0	1	1	104.161	0.546725	0.546593	0.0410972	2	-9.14636e-05	41	6.5219	2.24635e-05
2	1	0	1	1	104.66	0.55672	0.556519	0.0467072	2	-6.95017e-05	41	7.0217	2.59935e-05
2	1	0	1	1	105.16	0.566715	0.566452	0.0525906	2	-4.466e-05	41	7.5215	2.97901e-05
2	1	0	1	1	105.66	0.57671	0.576416	0.0586741	2	-1.68217e-05	41	8.0212	3.38207e-05
2	1	0	1	1	106.16	0.586706	0.586245	0.0648422	2	1.40845e-05	41	8.521	3.80134e-05
2	1	0	1	1	106.659	0.5967	0.596725	0.0708316	2	4.80288e-05	41	9.0207	4.2267e-05
2	1	0	1	1	107.159	0.606696	0.606494	0.0765146	2	8.49036e-05	41	9.5205	4.64057e-05
2	1	0	1	1	107.659	0.616691	0.616428	0.0816204	2	0.000124493	41	10.0203	5.03131e-05
2	1	0	1	1	108.159	0.626687	0.626528	0.0860138	2	0.000166459	41	10.52	5.38901e-05
2	1	0	1	1	108.658	0.636682	0.636624	0.0894272	2	0.000210392	41	11.0198	5.69315e-05
2	1	0	1	1	109.158	0.646677	0.646442	0.091818	2	0.000255773	41	11.5196	5.9355e-05
2	1	0	1	1	109.658	0.656672	0.656366	0.093104	2	0.000302056	41	12.0193	6.11103e-05
2	1	0	1	1	110.158	0.666668	0.666589	0.0933222	2	0.000348721	41	12.5191	6.22076e-05
2	1	0	1	1	110.658	0.676663	0.676271	0.0926613	2	0.000395272	41	13.0189	6.26641e-05
2	1	0	1	1	111.157	0.686658	0.686494	0.0912595	2	0.00044129	41	13.5186	6.26491e-05
2	1	0	1	1	111.657	0.696653	0.696278	0.0892869	2	0.000486469	41	14.0184	6.21685e-05
2	1	0	1	1	112.157	0.706649	0.706557	0.0869482	2	0.000530553	41	14.5181	6.14339e-05
2	1	0	1	1	112.657	0.716644	0.716246	0.0843693	2	0.000573406	41	15.0179	6.04292e-05
2	1	0	1	1	113.156	0.726639	0.726265	0.0816199	2	0.000614929	41	15.5177	5.92777e-05
2	1	0	1	1	113.656	0.736634	0.736438	0.0788666	2	0.000655067	41	16.0174	5.80804e-05
2	1	0	1	1	114.156	0.74663	0.746081	0.0761683	2	0.000693836	41	16.5172	5.68277e-05
2	1	0	1	1	114.656	0.756624	0.756588	0.073453	2	0.00073125	41	17.0169	5.55737e-05
2	1	0	1	1	115.155	0.76662	0.766289	0.0709201	2	0.000767364	41	17.5167	5.43453e-05
2	1	0	1	1	115.655	0.776615	0.776385	0.0684855	2	0.000802231	41	18.0165	5.31711e-05
2	1	0	1	1	116.155	0.78661	0.786486	0.0661798	2	0.000835908	41	18.5162	5.20495e-05
2	1	0	1	1	116.655	0.796606	0.79599	0.0640364	2	0.000868476	41	19.016	5.09723e-05
2	1	0	1	1	117.154	0.806601	0.806337	0.0619946	2	0.000899998	41	19.5158	4.99886e-05
2	1	0	1	1	117.654	0.816596	0.816274	0.0601043	2	0.000930537	41	20.0155	4.90616e-05
2	1	0	1	1	118.154	0.826591	0.826216	0.0583359	2	0.000960168	41	20.5153	4.81981e-05
2	1	0	1	1	118.654	0.836588	0.836132	0.0567273	2	0.000988953	41	21.0151	4.74315e-05
2	1	0	1	1	119.153	0.846582	0.846354	0.0551775	2	0.00101695	41	21.5148	4.66997e-05
2	1	0	1	1	119.653	0.856577	0.856413	0.0537894	2	0.00104422	41	22.0146	4.6066e-05
2	1	0	1	1	120.153	0.866573	0.86598	0.0525156	2	0.0010708	41	22.5143	4.54775e-05
2	1	0	1	1	120.653	0.876568	0.87653	0.0512795	2	0.00109677	41	23.0141	4.4948e-05
2	1	0	1	1	121.153	0.886563	0.886424	0.050111	2	0.00112215	41	23.5139	4.44196e-05
2	1	0	1	1	121.652	0.896558	0.896393	0.0490857	2	0.00114697	41	24.0136	4.40001e-05
2	1	0	1	1	122.152	0.906554	0.906239	0.0480921	2	0.00117129	41	24.5134	4.35829e-05
2	1	0	1	1	122.652	0.916548	0.91622	0.0471774	2	0.00119513	41	25.0131	4.32249e-05
2	1	0	1	1	123.152	0.926544	0.926353	0.0463567	2	0.00121853	41	25.5129	4.29426e-05
2	1	0	1	1	123.651	0.936539	0.936307	0.0455336	2	0.00124151	41	26.0127	4.26334e-05
2	1	0	1	1	124.151	0.946535	0.94624	0.0448026	2	0.00126411	41	26.5124	4.2394e-05
2	1	0	1	1	124.651	0.95653	0.956263	0.0441127	2	0.00128636	41	27.0122	4.21833e-05
2	1	0	1	1	125.151	0.966525	0.966072	0.0435009	2	0.00130828	41	27.512	4.2025e-05
2	1	0	1	1	125.65	0.97652	0.976218	0.0429453	2	0.00132991	41	28.0117	4.1924e-05
2	1	0	1	1	126.15	0.986516	0.986168	0.0424488	2	0.00135127	41	28.5115	4.18617e-05
2	1	0	1	1	126.65	0.996512	0.996072	0.0419925	2	0.0013724	41	29.0113	4.18275e-05
2	1	0	1	1	127.113	0.994212	0.994067	0.0402995	2	0.00139148	41	29.4742	4.00604e-05
2	1	0	1	1	127.613	0.984217	0.983976	0.0391367	2	0.00141127	41	29.974	3.85096e-05
2	1	0	1	1	128.112	0.974221	0.973935	0.0382115	2	0.00143056	41	30.4737	3.72156e-05
2	1	0	1	1	128.612	0.964226	0.964183	0.0374364	2	0.00144942	41	30.9735	3.60955e-05
2	1	0	1	1	129.112	0.954231	0.954017	0.0367438	2	0.00146791	41	31.4732	3.50542e-05
2	1	0	1	1	129.612	0.944236	0.943862	0.0361212	2	0.00148609	41	31.973	3.40934e-05
2	1	0	1	1	130.111	0.93424	0.933924	0.0355395	2	0.00150397	41	32.4728	3.31912e-05
2	1	0	1	1	130.611	0.924245	0.924003	0.035012	2	0.00152155	41	32.9725	3.23512e-05
2	1	0	1	1	131.111	0.91425	0.913932	0.0344577	2	0.00153888	41	33.4723	3.1492e-05
2	1	0	1	1	131.611	0.904255	0.903665	0.0340054	2	0.00155594	41	33.9721	3.07294e-05
2	1	0	1	1	132.11	0.894259	0.893938	0.0334889	2	0.00157276	41	34.4718	2.9937e-05
2	1	0	1	1	132.61	0.884264	0.883847	0.0330342	2	0.00158933	41	34.9716	2.91972e-05
2	1	0	1	1	133.11	0.874269	0.874375	0.0325077	2	0.00160567	41	35.4713	2.84239e-05
2	1	0	1	1	133.61	0.864274	0.864108	0.0321002	2	0.00162178	41	35.9711	2.7738e-05
2	1	0	1	1	134.11	0.854278	0.854067	0.0316432	2	0.00163766	41	36.4709	2.70254e-05
2	1	0	1	1	134.609	0.844283	0.843938	0.0311987	2	0.00165331	41	36.9706	2.63297e-05
2	1	0	1	1	135.109	0.834288	0.83405	0.030721	2	0.00166873	41	37.4704	2.56229e-05
2	1	0	1	1	135.609	0.824293	0.823929	0.0302381	2	0.00168391	41	37.9702	2.4914e-05
2	1	0	1	1	136.109	0.814297	0.81395	0.0297441	2	0.00169885	41	38.4699	2.42102e-05
2	1	0	1	1	136.608	0.804302	0.804313	0.0292497	2	0.00171354	41	38.9697	2.35259e-05
2	1	0	1	1	137.108	0.794307	0.794068	0.0287489	2	0.00172798	41	39.4694	2.28285e-05
2	1	0	1	1	137.608	0.784312	0.784165	0.028202	2	0.00174216	41	39.9692	2.2115e-05
2	1	0	1	1	138.108	0.774316	0.774056	0.0276289	2	0.00175606	41	40.469	2.13863e-05
2	1	0	1	1	138.607	0.764321	0.764382	0.0270434	2	0.00176967	41	40.9687	2.06715e-05
2	1	0	1	1	139.107	0.754326	0.754065	0.0264151	2	0.00178298	41	41.4685	1.99187e-05
2	1	0	1	1	139.607	0.744331	0.744049	0.025768	2	0.00179597	41	41.9683	1.91727e-05
2	1	0	1	1	140.107	0.734335	0.733928	0.0250584	2	0.00180862	41	42.468	1.83911e-05
2	1	0	1	1	140.606	0.72434	0.723877	0.0243621	2	0.00182091	41	42.9678	1.76351e-05
2	1	0	1	1	141.106	0.714345	0.713805	0.0235805	2	0.00183284	41	43.4675	1.68319e-05
2	1	0	1	1	141.606	0.70435	0.704361	0.0227697	2	0.00184437	41	43.9673	1.60381e-05
2	1	0	1	1	142.106	0.694354	0.693934	0.0219407	2	0.0018555	41	44.4671	1.52254e-05
2	1	0	1	1	142.605	0.684359	0.684084	0.02106	2	0.00186618	41	44.9668	1.44068e-05
2	1	0	1	1	143.105	0.674364	0.67395	0.0201017	2	0.00187641	41	45.4666	1.35475e-05
2	1	0	1	1	143.605	0.664371	0.664093	0.0191069	2	0.00188615	41	45.9663	1.26887e-05
2	1	0	1	1	144.105	0.654373	0.654175	0.0179975	2	0.00189537	41	46.4661	1.17735e-05
2	1	0	1	1	144.605	0.644378	0.643924	0.0168828	2	0.00190405	41	46.9659	1.08712e-05
2	1	0	1	1	145.104	0.634383	0.634091	0.0157484	2	0.00191216	41	47.4656	9.98593e-06
2	1	0	1	1	145.604	0.624388	0.624434	0.0145248	2	0.00191968	41	47.9654	9.0698e-06
2	1	0	1	1	146.104	0.614393	0.613865	0.0133325	2	0.00192659	41	48.4652	8.18433e-06
2	1	0	1	1	146.604	0.604397	0.604201	0.0120764	2	0.00193289	41	48.9649	7.29656e-06
2	1	0	1	1	147.103	0.594402	0.594017	0.0108553	2	0.00193857	41	49.4647	6.44823e-06
2	1	0	1	1	147.603	0.584406	0.584079	0.00963748	2	0.00194364	41	49.9645	5.62905e-06
2	1	0	1	1	148.103	0.574412	0.57403	0.00834905	2	0.00194809	41	50.4642	4.7926e-06
2	1	0	1	1	148.603	0.564416	0.563963	0.00715462	2	0.00195192	41	50.964	4.03494e-06
2	1	0	1	1	149.102	0.554421	0.554166	0.00593145	2	0.00195514	41	51.4637	3.28701e-06
2	1	0	1	1	149.602	0.544426	0.544005	0.00464924	2	0.00195774	41	51.9635	2.52921e-06
2	1	0	1	1	150.132	0.53383	0.533495	0.00319864	2	0.0019598	42	52.4933	1.70646e-06
2	1	0	1	1	150.632	0.523835	0.523681	0.00185398	2	0.00196106	42	52.993	9.70896e-07
2	1	0	1	1	151.131	0.51384	0.513501	0.000446365	2	0.00196163	42	53.4928	2.29209e-07
2	0	0	1	1	151.691	0.502646	0.502166	-0.00124436	2	0.00196142	42	0.3798	-6.24877e-07
2	0	0	1	1	152.191	0.49265	0.4923	-0.0028742	2	0.0019604	42	0.8796	-1.41497e-06
2	0	0	1	1	152.691	0.482655	0.482419	-0.00465304	2	0.00195852	42	1.3793	-2.24472e-06
2	0	0	1	1	153.19	0.47266	0.472431	-0.00661237	2	0.00195571	42	1.8791	-3.12389e-06
2	0	0	1	1	153.69	0.462665	0.462312	-0.00877224	2	0.00195187	42	2.3789	-4.05551e-06
2	0	0	1	1	154.22	0.45207	0.451822	-0.0112641	2	0.00194656	41	2.9086	-5.08935e-06
2	0	0	1	1	154.72	0.442074	0.44176	-0.0139863	2	0.00194023	41	3.4084	-6.1786e-06
2	0	0	1	1	155.219	0.432079	0.431444	-0.0170018	2	0.00193246	41	3.9081	-7.33531e-06
2	0	0	1	1	155.719	0.422084	0.421674	-0.0204273	2	0.00192308	41	4.4079	-8.61369e-06
2	0	0	1	1	156.219	0.412089	0.411885	-0.0242307	2	0.0019119	41	4.9077	-9.98027e-06
2	0	0	1	1	156.719	0.402093	0.401567	-0.0284819	2	0.00189872	41	5.4074	-1.14374e-05
2	0	0	1	1	157.219	0.392098	0.391667	-0.0331069	2	0.00188332	41	5.9072	-1.29669e-05
2	0	0	1	1	157.718	0.382101	0.381909	-0.0381876	2	0.00186548	41	6.407	-1.45842e-05
2	0	0	1	1	158.218	0.372108	0.371626	-0.0437131	2	0.001845	41	6.9067	-1.62449e-05
2	0	0	1	1	158.718	0.362112	0.3618	-0.0495403	2	0.00182168	41	7.4065	-1.79237e-05
2	0	0	1	1	159.218	0.352117	0.352365	-0.0556493	2	0.00179538	41	7.9062	-1.96089e-05
2	0	0	1	1	159.717	0.342122	0.341903	-0.0618227	2	0.00176599	41	8.406	-2.11374e-05
2	0	0	1	1	160.217	0.332127	0.331565	-0.0679948	2	0.00173351	41	8.9058	-2.25447e-05
2	0	0	1	1	160.717	0.322131	0.321739	-0.0739375	2	0.00169799	41	9.4055	-2.37886e-05
2	0	0	1	1	161.217	0.312136	0.311862	-0.0794469	2	0.0016596	41	9.9053	-2.47764e-05
2	0	0	1	1	161.716	0.302141	0.301883	-0.0842953	2	0.00161863	41	10.405	-2.54473e-05
2	0	0	1	1	162.216	0.292146	0.291806	-0.0883013	2	0.00157543	41	10.9048	-2.57669e-05
2	0	0	1	1	162.716	0.28215	0.281898	-0.0913221	2	0.00153047	41	11.4046	-2.57435e-05
2	0	0	1	1	163.216	0.272155	0.271616	-0.0932826	2	0.00148428	41	11.9043	-2.5337e-05
2	0	0	1	1	163.715	0.26216	0.262018	-0.0941882	2	0.00143736	41	12.4041	-2.4679e-05
2	0	0	1	1	164.215	0.252165	0.252168	-0.0940421	2	0.00139026	41	12.9039	-2.37144e-05
2	0	0	1	1	164.715	0.242169	0.242061	-0.0930683	2	0.00134345	41	13.4036	-2.25282e-05
2	0	0	1	1	165.215	0.232174	0.231839	-0.0913418	2	0.00129732	41	13.9034	-2.11766e-05
2	0	0	1	1	165.714	0.222179	0.221976	-0.089048	2	0.0012522	41	14.4031	-1.97666e-05
2	0	0	1	1	166.214	0.212184	0.211708	-0.0864347	2	0.00120829	41	14.9029	-1.82989e-05
2	0	0	1	1	166.714	0.202189	0.201906	-0.0836161	2	0.00116576	41	15.4027	-1.68826e-05
2	0	0	1	1	167.214	0.192193	0.191828	-0.0806579	2	0.00112468	41	15.9024	-1.54725e-05
2	0	0	1	1	167.714	0.182198	0.182206	-0.0777755	2	0.00108506	41	16.4022	-1.41711e-05
2	0	0	1	1	168.213	0.172203	0.171929	-0.0749196	2	0.00104689	41	16.902	-1.28808e-05
2	0	0	1	1	168.713	0.162208	0.162012	-0.0721673	2	0.00101011	41	17.4017	-1.1692e-05
2	0	0	1	1	169.213	0.152212	0.151671	-0.0695896	2	0.000974663	41	17.9015	-1.05547e-05
2	0	0	1	1	169.713	0.142217	0.141841	-0.0671452	2	0.000940481	41	18.4012	-9.52392e-06
2	0	0	1	1	170.212	0.132222	0.132007	-0.0648626	2	0.000907471	41	18.901	-8.56231e-06
2	0	0	1	1	170.712	0.122227	0.122088	-0.062727	2	0.000875566	41	19.4008	-7.6582e-06
2	0	0	1	1	171.212	0.112231	0.112002	-0.0607324	2	0.000844698	41	19.9005	-6.80213e-06
2	0	0	1	1	171.712	0.102236	0.101905	-0.0588847	2	0.00081478	41	20.4003	-6.00066e-06
2	0	0	1	1	172.211	0.0922408	0.0919879	-0.0571575	2	0.000785755	41	20.9001	-5.2578e-06
2	0	0	1	1	172.711	0.0822456	0.0821722	-0.0555777	2	0.000757566	41	21.3998	-4.56694e-06
2	0	0	1	1	173.211	0.0722503	0.0719247	-0.0540432	2	0.000730146	41	21.8996	-3.88704e-06
2	0	0	1	1	173.711	0.0622551	0.0620485	-0.0526588	2	0.000703452	41	22.3993	-3.2674e-06
2	0	0	1	1	174.21	0.0522598	0.0518743	-0.0513651	2	0.000677429	41	22.8991	-2.66453e-06
2	0	0	1	1	174.71	0.0422646	0.0419975	-0.0501618	2	0.000652037	41	23.3989	-2.10667e-06
2	0	0	1	1	175.21	0.0322693	0.0318756	-0.0490523	2	0.000627235	41	23.8986	-1.56357e-06
2	0	0	1	1	175.71	0.0222741	0.0222053	-0.0479632	2	0.000602979	41	24.3984	-1.06504e-06
2	0	0	1	1	176.21	0.0122788	0.0119032	-0.046963	2	0.000579237	41	24.8982	-5.59013e-07
2	0	0	1	1	176.709	0.00228358	0.00203371	-0.0460072	2	0.000555979	41	25.3979	-9.35655e-08
2	0	0	1	0	177.187	0.00728121	0.00690609	-0.0438492	2	0.000534548	41	25.8759	-3.02826e-07
2	0	0	1	0	177.687	0.0172765	0.0168213	-0.0424993	2	0.000513021	41	26.3756	-7.14895e-07
2	0	0	1	0	178.187	0.0272717	0.026878	-0.0413377	2	0.000492115	41	26.8754	-1.11108e-06
2	0	0	1	0	178.687	0.0372678	0.0369018	-0.0403147	2	0.000471751	41	27.3752	-1.48768e-06
2	0	0	1	0	179.186	0.0472622	0.0470875	-0.039376	2	0.000451882	41	27.8749	-1.85412e-06
2	0	0	1	0	179.686	0.0572574	0.0567707	-0.0384688	2	0.000432467	41	28.3747	-2.1839e-06
2	0	0	1	0	180.186	0.0672527	0.0672495	-0.0376285	2	0.00041349	41	28.8744	-2.5305e-06
2	0	0	1	0	180.686	0.0772479	0.077141	-0.0368365	2	0.000394924	41	29.3742	-2.8416e-06
2	0	0	1	0	181.185	0.0872432	0.0869819	-0.0360096	2	0.000376762	41	29.874	-3.13218e-06
2	0	0	1	0	181.685	0.0972384	0.096972	-0.0352535	2	0.000358993	41	30.3737	-3.4186e-06
2	0	0	1	0	182.185	0.107234	0.106752	-0.0344895	2	0.0003416	41	30.8735	-3.6818e-06
2	0	0	1	0	182.685	0.117228	0.117319	-0.03378	2	0.000324581	41	31.3732	-3.96305e-06
2	0	0	1	0	183.184	0.127224	0.126899	-0.0330126	2	0.000307929	41	31.873	-4.18926e-06
2	0	0	1	0	183.684	0.137219	0.136996	-0.032266	2	0.000291649	41	32.3728	-4.42032e-06
2	0	0	1	0	184.184	0.147215	0.147082	-0.0315086	2	0.000275751	41	32.8725	-4.63435e-06
2	0	0	1	0	184.684	0.15721	0.156961	-0.0307168	2	0.000260237	41	33.3723	-4.82135e-06
2	0	0	1	0	185.183	0.167205	0.167076	-0.0299487	2	0.000245113	41	33.8721	-5.00369e-06
2	0	0	1	0	185.683	0.1772	0.176993	-0.0291043	2	0.000230391	41	34.3718	-5.15124e-06
2	0	0	1	0	186.183	0.187196	0.186987	-0.0282738	2	0.000216079	41	34.8716	-5.28684e-06
2	0	0	1	0	186.683	0.197192	0.196916	-0.027414	2	0.000202192	41	35.3714	-5.39826e-06
2	0	0	1	0	187.182	0.207186	0.206854	-0.0264787	2	0.000188755	41	35.8711	-5.47722e-06
2	0	0	1	0	187.682	0.217181	0.216946	-0.025568	2	0.000175775	41	36.3709	-5.54686e-06
2	0	0	1	0	188.182	0.227177	0.227227	-0.0245938	2	0.000163279	41	36.8706	-5.58837e-06
2	0	0	1	0	188.682	0.237172	0.23714	-0.0235237	2	0.000151293	41	37.3704	-5.57842e-06
2	0	0	1	0	189.182	0.247167	0.246977	-0.0224101	2	0.000139842	41	37.8702	-5.53477e-06
2	0	0	1	0	189.681	0.257162	0.256744	-0.021274	2	0.000128951	41	38.3699	-5.46197e-06
2	0	0	1	0	190.181	0.267158	0.267163	-0.0201115	2	0.000118631	41	38.8697	-5.37304e-06
2	0	0	1	0	190.681	0.277152	0.276739	-0.0189028	2	0.00010891	41	39.3694	-5.23115e-06
2	0	0	1	0	191.181	0.287148	0.286708	-0.0176434	2	9.98018e-05	41	39.8692	-5.05849e-06
2	0	0	1	0	191.68	0.297143	0.296594	-0.0163744	2	9.13249e-05	41	40.369	-4.85654e-06
2	0	0	1	0	192.18	0.307139	0.306758	-0.0150502	2	8.34938e-05	41	40.8687	-4.61678e-06
2	0	0	1	0	192.68	0.317134	0.316808	-0.0137845	2	7.63145e-05	41	41.3685	-4.36702e-06
2	0	0	1	0	193.18	0.327129	0.326882	-0.0124326	2	6.97925e-05	41	41.8683	-4.06398e-06
2	0	0	1	0	193.679	0.337124	0.336797	-0.0111155	2	6.39364e-05	41	42.368	-3.74368e-06
2	0	0	1	0	194.179	0.34712	0.346933	-0.00975025	2	5.87462e-05	41	42.8678	-3.38268e-06
2	0	0	1	0	194.679	0.357117	0.356853	-0.00839526	2	5.42253e-05	41	43.3676	-2.99587e-06
2	0	0	1	0	195.179	0.36711	0.366707	-0.00705631	2	5.03818e-05	41	43.8673	-2.5876e-06
2	0	0	1	0	195.678	0.377105	0.376801	-0.00567508	2	4.72164e-05	41	44.3671	-2.13838e-06
2	0	0	1	0	196.208	0.3877	0.387445	-0.00426087	2	4.46148e-05	42	44.8968	-1.65085e-06
2	0	0	1	0	196.708	0.397696	0.397376	-0.00273287	2	4.28861e-05	42	45.3966	-1.08598e-06
2	0	0	1	0	197.208	0.407693	0.407344	-0.00124301	2	4.1889e-05	42	45.8964	-5.06334e-07
2	1	0	1	0	197.737	0.418286	0.418087	0.000424525	2	4.16637e-05	43	0.1	1.77488e-07
2	1	0	1	0	198.267	0.428881	0.428215	0.0022262	2	4.23562e-05	42	0.6297	9.53289e-07
2	1	0	1	0	198.767	0.438876	0.438347	0.00406511	2	4.39213e-05	42	1.1295	1.78193e-06
2	1	0	1	0	199.267	0.448871	0.44858	0.00608145	2	4.64503e-05	42	1.6293	2.72802e-06
2	1	0	1	0	199.766	0.458866	0.458959	0.00832227	2	5.00416e-05	42	2.129	3.81959e-06
2	1	0	1	0	200.231	0.468162	0.467933	0.0106346	3	5.4439e-05	42	2.5938	4.97628e-06
2	1	0	1	0	200.761	0.478757	0.478541	0.0135393	3	6.08366e-05	41	3.1236	6.4791e-06
2	1	0	1	0	201.261	0.488752	0.488324	0.016635	3	6.83848e-05	41	3.6233	8.12326e-06
2	1	0	1	0	201.761	0.498747	0.498299	0.0200951	3	7.75773e-05	41	4.1231	1.00134e-05
2	1	0	1	0	202.26	0.508743	0.508557	0.0239248	3	8.85899e-05	41	4.6228	1.21671e-05
2	1	0	1	0	202.76	0.518738	0.518482	0.0281412	3	0.000101626	41	5.1226	1.45907e-05
2	1	0	1	0	203.26	0.528733	0.528456	0.0328319	3	0.000116885	41	5.6224	1.73502e-05
2	1	0	1	0	203.76	0.538728	0.538396	0.0379048	3	0.000134571	41	6.1221	2.04078e-05
2	1	0	1	0	204.259	0.548724	0.548187	0.0433272	3	0.000154885	41	6.6219	2.37514e-05
2	1	0	1	0	204.759	0.558719	0.558458	0.0490819	3	0.000178005	41	7.1217	2.74102e-05
2	1	0	1	0	205.259	0.568714	0.568487	0.0551183	3	0.000204066	41	7.6214	3.1334e-05
2	1	0	1	0	205.759	0.578709	0.578265	0.0612579	3	0.000233182	41	8.1212	3.54233e-05
2	1	0	1	0	206.258	0.588705	0.588417	0.0674143	3	0.000265368	41	8.6209	3.96678e-05
2	1	0	1	0	206.758	0.5987	0.5986	0.0732879	3	0.000300577	41	9.1207	4.38701e-05
2	1	0	1	0	207.258	0.608695	0.608387	0.0788353	3	0.000338651	41	9.6205	4.79624e-05
2	1	0	1	0	207.758	0.61869	0.618475	0.0836676	3	0.000379316	41	10.1202	5.17463e-05
2	1	0	1	0	208.257	0.628686	0.628294	0.0876979	3	0.000422222	41	10.62	5.51001e-05
2	1	0	1	0	208.757	0.638679	0.638315	0.090716	3	0.000466878	41	11.1197	5.79054e-05
2	1	0	1	0	209.257	0.648676	0.648197	0.0926483	3	0.000512771	41	11.6195	6.00544e-05
2	1	0	1	0	209.757	0.658671	0.658276	0.0934248	3	0.000559346	41	12.1193	6.14993e-05
2	1	0	1	0	210.256	0.668667	0.668046	0.0932724	3	0.000606063	41	12.619	6.23102e-05
2	1	0	1	0	210.756	0.678662	0.678605	0.092233	3	0.000652485	41	13.1188	6.25897e-05
2	1	0	1	0	211.256	0.688657	0.688233	0.09053	3	0.000698219	41	13.6186	6.23058e-05
2	1	0	1	0	211.756	0.698652	0.69841	0.0883118	3	0.000742959	41	14.1183	6.16778e-05
2	1	0	1	0	212.256	0.708648	0.708072	0.0858401	3	0.000786529	41	14.6181	6.0781e-05
2	1	0	1	0	212.755	0.718643	0.718283	0.0831191	3	0.000828792	41	15.1179	5.9703e-05
2	1	0	1	0	213.255	0.728638	0.728407	0.0803735	3	0.000869678	41	15.6176	5.85446e-05
2	1	0	1	0	213.755	0.738633	0.738091	0.0775837	3	0.000909181	41	16.1174	5.72638e-05
2	1	0	1	0	214.255	0.748629	0.748349	0.0748282	3	0.000947299	41	16.6171	5.59977e-05
2	1	0	1	0	214.754	0.758624	0.758146	0.0722475	3	0.000984084	41	17.1169	5.47742e-05
2	1	0	1	0	215.254	0.768619	0.768302	0.0697032	3	0.00101958	41	17.6167	5.35531e-05
2	1	0	1	0	215.754	0.778614	0.77802	0.0673279	3	0.00105385	41	18.1164	5.23825e-05
2	1	0	1	0	216.254	0.78861	0.788175	0.0650793	3	0.00108697	41	18.6162	5.12939e-05
2	1	0	1	0	216.753	0.798604	0.798275	0.0629738	3	0.001119	41	19.1159	5.02704e-05
2	1	0	1	0	217.253	0.8086	0.808206	0.061024	3	0.00115001	41	19.6157	4.932e-05
2	1	0	1	0	217.753	0.818595	0.818334	0.0591709	3	0.00118007	41	20.1155	4.84215e-05
2	1	0	1	0	218.253	0.828591	0.828498	0.0574375	3	0.00120924	41	20.6152	4.75868e-05
2	1	0	1	0	218.752	0.838586	0.838075	0.0558797	3	0.00123759	41	21.115	4.68314e-05
2	1	0	1	0	219.252	0.848581	0.848272	0.0543852	3	0.00126518	41	21.6148	4.61335e-05
2	1	0	1	0	219.752	0.858576	0.858257	0.053014	3	0.00129204	41	22.1145	4.54996e-05
2	1	0	1	0	220.252	0.868572	0.868109	0.0517344	3	0.00131825	41	22.6143	4.49111e-05
2	1	0	1	0	220.752	0.878567	0.878017	0.0505464	3	0.00134384	41	23.1141	4.43806e-05
2	1	0	1	0	221.251	0.888562	0.888122	0.0494446	3	0.00136885	41	23.6138	4.39128e-05
2	1	0	1	0	221.751	0.898557	0.898267	0.0484091	3	0.00139333	41	24.1136	4.34843e-05
2	1	0	1	0	222.251	0.908553	0.908308	0.0474304	3	0.00141731	41	24.6133	4.30815e-05
2	1	0	1	0	222.751	0.918548	0.918386	0.0465265	3	0.00144083	41	25.1131	4.27293e-05
2	1	0	1	0	223.25	0.928543	0.92835	0.0457066	3	0.00146391	41	25.6129	4.24317e-05
2	1	0	1	0	223.75	0.938538	0.938259	0.0449346	3	0.00148659	41	26.1126	4.21603e-05
2	1	0	1	0	224.25	0.948534	0.948355	0.0442129	3	0.00150889	41	26.6124	4.19295e-05
2	1	0	1	0	224.75	0.958527	0.95815	0.0435541	3	0.00153085	41	27.1121	4.17313e-05
2	1	0	1	0	225.249	0.968524	0.968287	0.0429153	3	0.00155248	41	27.6119	4.15543e-05
2	1	0	1	0	225.749	0.978519	0.978397	0.0423292	3	0.00157381	41	28.1117	4.14147e-05
2	1	0	1	0	226.249	0.988514	0.988458	0.0418607	3	0.00159487	41	28.6114	4.13775e-05
2	1	0	1	0	226.749	0.99851	0.99844	0.041415	3	0.00161571	41	29.1112	4.13504e-05
2	1	0	1	0	227.212	0.992214	0.991793	0.0396218	3	0.00163438	41	29.5741	3.92966e-05
2	1	0	1	0	227.711	0.982218	0.981995	0.0385988	3	0.00165387	41	30.0739	3.79039e-05
2	1	0	1	0	228.211	0.972222	0.971915	0.0377367	3	0.00167289	41	30.5737	3.66769e-05
2	1	0	1	0	228.711	0.962227	0.961658	0.0370438	3	0.00169152	41	31.0734	3.56235e-05
2	1	0	1	0	229.211	0.952232	0.951976	0.0363651	3	0.00170982	41	31.5732	3.46187e-05
2	1	0	1	0	229.71	0.942237	0.941575	0.0358115	3	0.00172781	41	32.073	3.37192e-05
2	1	0	1	0	230.21	0.932241	0.931867	0.0352368	3	0.00174552	41	32.5727	3.2836e-05
2	1	0	1	0	230.71	0.922246	0.921789	0.0347291	3	0.00176296	41	33.0725	3.20129e-05
2	1	0	1	0	231.21	0.91225	0.911833	0.0342316	3	0.00178015	41	33.5723	3.12135e-05
2	1	0	1	0	231.709	0.902256	0.901946	0.0337816	3	0.0017971	41	34.072	3.04692e-05
2	1	0	1	0	232.209	0.89226	0.891758	0.0333142	3	0.00181382	41	34.5718	2.97082e-05
2	1	0	1	0	232.709	0.882265	0.881867	0.0328289	3	0.0018303	41	35.0715	2.89507e-05
2	1	0	1	0	233.209	0.87227	0.871816	0.0323861	3	0.00184655	41	35.5713	2.82348e-05
2	1	0	1	0	233.709	0.862275	0.862205	0.0319048	3	0.00186258	41	36.0711	2.75085e-05
2	1	0	1	0	234.208	0.852279	0.851981	0.0314697	3	0.00187838	41	36.5708	2.68116e-05
2	1	0	1	0	234.708	0.842284	0.841984	0.0310225	3	0.00189395	41	37.0706	2.61204e-05
2	1	0	1	0	235.208	0.83229	0.83226	0.0305513	3	0.00190929	41	37.5703	2.54266e-05
2	1	0	1	0	235.708	0.822294	0.822286	0.0300826	3	0.00192439	41	38.0701	2.47365e-05
2	1	0	1	0	236.207	0.812298	0.812032	0.0296045	3	0.00193926	41	38.5699	2.40398e-05
2	1	0	1	0	236.707	0.802303	0.801667	0.0291055	3	0.00195388	41	39.0696	2.3333e-05
2	1	0	1	0	237.207	0.792308	0.792457	0.0286021	3	0.00196825	41	39.5694	2.26659e-05
2	1	0	1	0	237.707	0.782313	0.781948	0.0280845	3	0.00198235	41	40.0692	2.19606e-05
2	1	0	1	0	238.206	0.772317	0.771776	0.0275101	3	0.00199619	41	40.5689	2.12316e-05
2	1	0	1	0	238.706	0.762322	0.761901	0.0269046	3	0.00200973	41	41.0687	2.04986e-05
2	1	0	1	0	239.206	0.752325	0.752048	0.0262693	3	0.00202297	41	41.5685	1.97557e-05
2	1	0	1	0	239.706	0.742332	0.742175	0.0255915	3	0.00203588	41	42.0682	1.89934e-05
2	1	0	1	0	240.205	0.732336	0.731934	0.0249432	3	0.00204846	41	42.568	1.82568e-05
2	1	0	1	0	240.705	0.722341	0.722102	0.0242074	3	0.00206069	41	43.0677	1.74802e-05
2	1	0	1	0	241.205	0.712346	0.711977	0.0234269	3	0.00207254	41	43.5675	1.66794e-05
2	1	0	1	0	241.705	0.702351	0.702055	0.0226581	3	0.00208401	41	44.0673	1.59073e-05
2	1	0	1	0	242.204	0.692355	0.691997	0.0218362	3	0.00209507	41	44.567	1.51106e-05
2	1	0	1	0	242.704	0.68236	0.682137	0.0209035	3	0.00210569	41	45.0668	1.4259e-05
2	1	0	1	0	243.204	0.672365	0.672072	0.0199704	3	0.00211586	41	45.5665	1.34215e-05
2	1	0	1	0	243.704	0.66237	0.66216	0.0189401	3	0.00212554	41	46.0663	1.25414e-05
2	1	0	1	0	244.204	0.652374	0.651893	0.0178901	3	0.0021347	41	46.5661	1.16625e-05
2	1	0	1	0	244.703	0.642379	0.641833	0.0167706	3	0.00214331	41	47.0658	1.07639e-05
2	1	0	1	0	245.203	0.632384	0.632039	0.0156116	3	0.00215136	41	47.5656	9.86717e-06
2	1	0	1	0	245.703	0.622389	0.622069	0.0144097	3	0.00215881	41	48.0654	8.96381e-06
2	1	0	1	0	246.203	0.612393	0.612036	0.0131832	3	0.00216565	41	48.5651	8.06862e-06
2	1	0	1	0	246.702	0.602398	0.602232	0.0119383	3	0.00217188	41	49.0649	7.18966e-06
2	1	0	1	0	247.202	0.592401	0.592269	0.0107083	3	0.0021775	41	49.5647	6.34217e-06
2	1	0	1	0	247.702	0.582408	0.58221	0.00948003	3	0.0021825	41	50.0644	5.51937e-06
2	1	0	1	0	248.202	0.572412	0.572265	0.00823281	3	0.00218688	41	50.5642	4.71135e-06
2	1	0	1	0	248.701	0.562417	0.562047	0.00698319	3	0.00219064	41	51.0639	3.92488e-06
2	1	0	1	0	249.201	0.552422	0.552021	0.00573539	3	0.00219377	41	51.5637	3.16606e-06
2	1	0	1	0	249.701	0.542427	0.542285	0.00446674	3	0.00219627	41	52.0635	2.42224e-06
2	1	0	1	0	250.231	0.531832	0.531385	0.00295512	3	0.00219821	42	52.5932	1.57031e-06
2	1	0	1	0	250.73	0.521837	0.521488	0.0015773	3	0.00219934	42	53.093	8.22541e-07
2	1	0	1	0	251.26	0.511242	0.511094	2.32565e-05	3	0.00219978	43	53.6227	1.18862e-08
2	0	0	1	0	251.79	0.500647	0.500401	-0.00163684	3	0.00219936	42	0.5048	-8.19079e-07
2	0	0	1	0	252.29	0.490651	0.490078	-0.00333313	3	0.00219812	42	1.0045	-1.6335e-06
2	0	0	1	0	252.789	0.480656	0.48024	-0.00520179	3	0.00219599	42	1.5043	-2.49811e-06
2	0	0	1	0	253.289	0.470662	0.470369	-0.00724642	3	0.00219289	42	2.004	-3.40849e-06
2	0	0	1	0	253.789	0.460666	0.460092	-0.00952536	3	0.00218871	42	2.5038	-4.38254e-06
2	0	0	1	0	254.319	0.450071	0.449768	-0.0121661	3	0.00218296	41	3.0336	-5.47192e-06
2	0	0	1	0	254.818	0.440075	0.439695	-0.0150208	3	0.00217615	41	3.5333	-6.60456e-06
2	0	0	1	0	255.318	0.43008	0.42996	-0.0182231	3	0.00216783	41	4.0331	-7.83519e-06
2	0	0	1	0	255.818	0.420086	0.419635	-0.0217749	3	0.00215783	41	4.5328	-9.13752e-06
2	0	0	1	0	256.318	0.41009	0.410073	-0.0257563	3	0.00214595	41	5.0326	-1.0562e-05
2	0	0	1	0	256.818	0.400094	0.399736	-0.0301639	3	0.00213197	41	5.5324	-1.20576e-05
2	0	0	1	0	257.317	0.390099	0.389631	-0.0349777	3	0.00211568	41	6.0321	-1.36284e-05
2	0	0	1	0	257.817	0.380104	0.379629	-0.040226	3	0.00209687	41	6.5319	-1.5271e-05
2	0	0	1	0	258.317	0.370109	0.369604	-0.0458823	3	0.00207534	41	7.0317	-1.69583e-05
2	0	0	1	0	258.817	0.360113	0.359582	-0.0518271	3	0.0020509	41	7.5314	-1.86361e-05
2	0	0	1	0	259.316	0.350118	0.349912	-0.0580122	3	0.00202343	41	8.0312	-2.02992e-05
2	0	0	1	0	259.816	0.340122	0.3395	-0.06421	3	0.00199285	41	8.531	-2.17993e-05
2	0	0	1	0	260.316	0.330128	0.329921	-0.0703648	3	0.00195917	41	9.0307	-2.32148e-05
2	0	0	1	0	260.816	0.320132	0.319693	-0.0761655	3	0.00192251	41	9.5305	-2.43496e-05
2	0	0	1	0	261.315	0.310137	0.309658	-0.0814526	3	0.00188307	41	10.0302	-2.52225e-05
2	0	0	1	0	261.815	0.300142	0.30001	-0.0860262	3	0.00184115	41	10.53	-2.58087e-05
2	0	0	1	0	262.315	0.290147	0.289754	-0.0896856	3	0.00179716	41	11.0298	-2.59867e-05
2	0	0	1	0	262.815	0.280151	0.279837	-0.0923379	3	0.00175162	41	11.5295	-2.58396e-05
2	0	0	1	0	263.314	0.270156	0.269825	-0.0939095	3	0.001705	41	12.0293	-2.53391e-05
2	0	0	1	0	263.814	0.260161	0.259956	-0.0944407	3	0.00165788	41	12.529	-2.45504e-05
2	0	0	1	0	264.314	0.250166	0.24982	-0.0939853	3	0.00161073	41	13.0288	-2.34794e-05
2	0	0	1	0	264.814	0.24017	0.240001	-0.0926877	3	0.00156403	41	13.5286	-2.22451e-05
2	0	0	1	0	265.313	0.230175	0.22999	-0.0907675	3	0.00151814	41	14.0283	-2.08757e-05
2	0	0	1	0	265.813	0.22018	0.219998	-0.0883151	3	0.00147334	41	14.5281	-1.94291e-05
2	0	0	1	0	266.313	0.210185	0.209992	-0.0856178	3	0.00142983	41	15.0279	-1.79791e-05
2	0	0	1	0	266.813	0.200189	0.20008	-0.0827342	3	0.00138774	41	15.5276	-1.65534e-05
2	0	0	1	0	267.313	0.190194	0.189896	-0.079782	3	0.0013471	41	16.0274	-1.51503e-05
2	0	0	1	0	267.812	0.180197	0.180056	-0.0768376	3	0.00130792	41	16.5272	-1.38351e-05
2	0	0	1	0	268.312	0.170204	0.170001	-0.0740314	3	0.0012702	41	17.0269	-1.25854e-05
2	0	0	1	0	268.812	0.160208	0.159568	-0.0713159	3	0.00123384	41	17.5267	-1.13797e-05
2	0	0	1	0	269.312	0.150213	0.149998	-0.0687922	3	0.0011988	41	18.0264	-1.03187e-05
2	0	0	1	0	269.811	0.140218	0.140025	-0.0664057	3	0.00116499	41	18.5262	-9.29844e-06
2	0	0	1	0	270.311	0.130223	0.129915	-0.0641675	3	0.00113233	41	19.026	-8.33629e-06
2	0	0	1	0	270.811	0.120228	0.119949	-0.0620908	3	0.00110077	41	19.5257	-7.44775e-06
2	0	0	1	0	271.311	0.110232	0.110211	-0.0601135	3	0.0010702	41	20.0255	-6.62518e-06
2	0	0	1	0	271.81	0.100237	0.0999923	-0.0583302	3	0.00104058	41	20.5252	-5.83257e-06
2	0	0	1	0	272.31	0.0902418	0.0899883	-0.0566271	3	0.00101182	41	21.025	-5.09577e-06
2	0	0	1	0	272.81	0.0802465	0.0799908	-0.0550757	3	0.000983885	41	21.5248	-4.40555e-06
2	0	0	1	0	273.31	0.0702513	0.0698714	-0.0536078	3	0.000956708	41	22.0245	-3.74565e-06
2	0	0	1	0	273.809	0.060256	0.0600237	-0.0522398	3	0.000930232	41	22.5243	-3.13562e-06
2	0	0	1	0	274.309	0.0502608	0.0499992	-0.0509881	3	0.000904415	41	23.0241	-2.54936e-06
2	0	0	1	0	274.809	0.0402655	0.0401112	-0.0497631	3	0.000879218	41	23.5238	-1.99606e-06
2	0	0	1	0	275.309	0.0302703	0.0300122	-0.0486693	3	0.000854594	41	24.0236	-1.46067e-06
2	0	0	1	0	275.808	0.020275	0.0198906	-0.0476382	3	0.00083051	41	24.5233	-9.47555e-07
2	0	0	1	0	276.308	0.0102798	0.0100912	-0.0466644	3	0.000806924	41	25.0231	-4.70899e-07
2	0	0	1	0	276.808	0.000284534	-0.000353818	-0.0457265	3	0.000783813	41	25.5229	1.61789e-08
2	0	0	1	1	277.286	0.00928026	0.00889369	-0.0434522	3	0.000762672	41	26.0008	-3.8645e-07
2	0	0	1	1	277.786	0.0192755	0.0189093	-0.0421904	3	0.000741313	41	26.5006	-7.97791e-07
2	0	0	1	1	278.285	0.0292708	0.0288681	-0.041067	3	0.000720553	41	27.0003	-1.18552e-06
2	0	0	1	1	278.785	0.039266	0.0390557	-0.0400611	3	0.000700312	41	27.5001	-1.56462e-06
2	0	0	1	1	279.285	0.0492612	0.0488899	-0.0391342	3	0.000680553	41	27.9999	-1.91326e-06
2	0	0	1	1	279.785	0.0592565	0.0589825	-0.0382286	3	0.000661256	41	28.4996	-2.25482e-06
2	0	0	1	1	280.285	0.0692517	0.0690978	-0.0374088	3	0.000642386	41	28.9994	-2.58487e-06
2	0	0	1	1	280.784	0.0792474	0.0787019	-0.0366024	3	0.000623927	41	29.4992	-2.88068e-06
2	0	0	1	1	281.284	0.0892422	0.0892311	-0.0358183	3	0.000605869	41	29.9989	-3.19611e-06
2	0	0	1	1	281.784	0.0992375	0.0991909	-0.0350707	3	0.000588196	41	30.4987	-3.47869e-06
2	0	0	1	1	282.284	0.109233	0.109055	-0.0342921	3	0.000570905	41	30.9984	-3.73974e-06
2	0	0	1	1	282.783	0.119228	0.11882	-0.0335447	3	0.000553984	41	31.4982	-3.98578e-06
2	0	0	1	1	283.283	0.129223	0.129061	-0.0327922	3	0.000537436	41	31.998	-4.23217e-06
2	0	0	1	1	283.783	0.139218	0.139052	-0.0320491	3	0.000521265	41	32.4977	-4.45648e-06
2	0	0	1	1	284.283	0.149214	0.148944	-0.0313059	3	0.000505464	41	32.9975	-4.66283e-06
2	0	0	1	1	284.782	0.159208	0.159047	-0.0305108	3	0.000490045	41	33.4972	-4.85265e-06
2	0	0	1	1	285.282	0.169204	0.169073	-0.0297461	3	0.000475011	41	33.997	-5.02925e-06
2	0	0	1	1	285.782	0.179199	0.178798	-0.028939	3	0.000460375	41	34.4968	-5.17423e-06
2	0	0	1	1	286.282	0.189195	0.189046	-0.0281223	3	0.00044615	41	34.9965	-5.31641e-06
2	0	0	1	1	286.781	0.19919	0.199143	-0.0272313	3	0.000432352	41	35.4963	-5.42292e-06
2	0	0	1	1	287.281	0.209185	0.208875	-0.0263133	3	0.000419	41	35.9961	-5.49619e-06
2	0	0	1	1	287.781	0.21918	0.218897	-0.0253629	3	0.000406115	41	36.4958	-5.55186e-06
2	0	0	1	1	288.281	0.229176	0.228896	-0.0243847	3	0.000393713	41	36.9956	-5.58156e-06
2	0	0	1	1	288.781	0.239172	0.238592	-0.0232962	3	0.000381821	41	37.4954	-5.55828e-06
2	0	0	1	1	289.28	0.249166	0.248972	-0.0222229	3	0.000370466	41	37.9951	-5.53289e-06
2	0	0	1	1	289.78	0.259161	0.258832	-0.0210983	3	0.000359664	41	38.4949	-5.46093e-06
2	0	0	1	1	290.28	0.269157	0.268828	-0.0199206	3	0.000349438	41	38.9946	-5.35521e-06
2	0	0	1	1	290.78	0.279152	0.278714	-0.0187302	3	0.000339809	41	39.4944	-5.22039e-06
2	0	0	1	1	291.279	0.289147	0.288718	-0.017458	3	0.000330794	41	39.9942	-5.04043e-06
2	0	0	1	1	291.779	0.299142	0.299115	-0.0161895	3	0.000322415	41	40.4939	-4.84253e-06
2	0	0	1	1	292.279	0.309138	0.308812	-0.0148647	3	0.000314678	41	40.9937	-4.59039e-06
2	0	0	1	1	292.779	0.319132	0.318881	-0.0135503	3	0.000307597	41	41.4934	-4.32094e-06
2	0	0	1	1	293.278	0.329128	0.328762	-0.0122139	3	0.000301174	41	41.9932	-4.01547e-06
2	0	0	1	1	293.778	0.339123	0.339141	-0.0108973	3	0.000295418	41	42.493	-3.69571e-06
2	0	0	1	1	294.278	0.349119	0.348701	-0.00955418	3	0.000290333	41	42.9927	-3.33156e-06
2	0	0	1	1	294.778	0.359114	0.358716	-0.00818817	3	0.000285918	41	43.4925	-2.93723e-06
2	0	0	1	1	295.277	0.369109	0.368804	-0.00681935	3	0.000282181	41	43.9923	-2.51501e-06
2	0	0	1	1	295.777	0.379104	0.378588	-0.00544753	3	0.000279133	41	44.492	-2.06237e-06
2	0	0	1	1	296.307	0.389699	0.389652	-0.00391301	3	0.000276663	42	45.0218	-1.52471e-06
2	0	0	1	1	296.807	0.399695	0.39927	-0.00244435	3	0.000275075	42	45.5215	-9.75954e-07
2	0	0	1	1	297.306	0.40969	0.409413	-0.000909072	3	0.000274235	42	46.0213	-3.72186e-07
2	1	0	1	1	297.836	0.420285	0.419819	0.000807466	3	0.000274199	43	0.2248	3.3899e-07
2	1	0	1	1	298.366	0.43088	0.430585	0.00266747	3	0.000275115	42	0.7546	1.14857e-06
2	1	0	1	1	298.866	0.440875	0.440845	0.00458773	3	0.000276924	42	1.2544	2.02248e-06
2	1	0	1	1	299.365	0.45087	0.451001	0.00668647	3	0.000279736	42	1.7541	3.01561e-06
2	1	0	1	1	299.865	0.460865	0.460732	0.00903287	3	0.000283658	42	2.2539	4.16173e-06
2	1	0	1	1	299.938	0.46234	0.462295	0.0094001	3	0.000284329	42	2.3268	4.34561e-06