File: Python/Data/RDE/240219-CV-EIS-Fe2Fe3_5mM-HCl1M-0RPM-Ag_AgCl_BLF8-GC-RDE_03_PEIS_C15.mpt
EC-Lab ASCII FILE
Nb header lines : 66

Potentio Electrochemical Impedance Spectroscopy

Run on channel : 15 (SN 19485)
User :
Electrode connection : standard
Potential control : Ewe
Ewe ctrl range : min = -1.00 V, max = 1.00 V
Ewe,I filtering : <None>
Safety Limits :
	Do not start on E overload
Channel : Floating
Acquisition started on : 02/19/2024 14:54:22.739
Loaded Setting File :  NONE
Saved on :
	File : 240219-CV-EIS-Fe2Fe3_5mM-HCl1M-0RPM-Ag_AgCl_BLF8-GC-RDE_03_PEIS_C15.mpr
	Directory : C:\Data\mathias\RDE-RPM-variation\
	Host : 192.168.0.1
Device : VMP-300 (SN 0826)
Address : USB
EC-Lab for windows v11.52 (software)
Internet server v11.52 (firmware)
Command interpretor v11.52 (firmware)
Electrode material :
Initial state :
Electrolyte :
Comments :
Cable : special
Electrode surface area : 0.001 cm²
Characteristic mass : 0.001 g
Equivalent Weight : 0.000 g/eq.
Density : 0.000 g/cm3
Volume (V) : 0.001 cm³
Record EIS quality indicators
Cycle Definition : Charge/Discharge alternance
Mode                Single sine
E (V)               0.0000
vs.                 Ref
tE (h:m:s)          0:00:0.0000
record              0
dI                  0.000
unit dI             mA
dt (s)              0.000
fi                  400.000
unit fi             kHz
ff                  100.000
unit ff             mHz
Nd                  10
Points              per decade
spacing             Logarithmic
Va (mV)             7.0
pw                  0.10
Na                  3
corr                0
E range min (V)     -1.000
E range max (V)     1.000
I Range             Auto
Bandwidth           8
nc cycles           2
goto Ns'            0
nr cycles           0
inc. cycle          1

freq/Hz	Re(Z)/Ohm	-Im(Z)/Ohm	|Z|/Ohm	Phase(Z)/deg	time/s	<Ewe>/V	<I>/mA	Cs/µF	Cp/µF	cycle number	I Range	|Ewe|/V	|I|/A	Ns	(Q-Qo)/mA.h	THD Ewe/%	NSD Ewe/%	NSR Ewe/%	|Ewe h2|/V	|Ewe h3|/V	|Ewe h4|/V	|Ewe h5|/V	|Ewe h6|/V	|Ewe h7|/V	THD I/%	NSD I/%	NSR I/%	|I h2|/A	|I h3|/A	|I h4|/A	|I h5|/A	|I h6|/A	|I h7|/A	Re(Y)/Ohm-1	Im(Y)/Ohm-1	|Y|/Ohm-1	Phase(Y)/deg	Re(C)/nF	Im(C)/nF	|C|/nF	Phase(C)/deg	Re(M)	Im(M)	|M|	Phase(M)/deg	Re(Permittivity)	Im(Permittivity)	|Permittivity|	Phase(Permittivity)/deg	Re(Resistivity)/Ohm.cm	Im(Resistivity)/Ohm.cm	|Resistivity|/Ohm.cm	Phase(Resistivity)/deg	Re(Conductivity)/mS/cm	Im(Conductivity)/mS/cm	|Conductivity|/mS/cm	Phase(Conductivity)/deg	Tan(Delta)	Loss Angle(Delta)/deg	dq/mA.h
399996	3.93573	1.34803	4.16019	-18.9069	362.413	-0.00014065	-0.0870532	0.295164	0.0309912	1	38	0.00655155	0.00157482	0	-7.80058e-05	-1	-1	-1	0	0	0	0	0	0	-1	-1	-1	0	0	0	0	0	0	0.227404	0.0778886	0.240374	18.9069	30.9912	90.4822	95.6425	-71.0931	0.0000000E+000	0.0000000E+000	0.0000000E+000	71.0931	0.0000000E+000	0.0000000E+000	0.0000000E+000	-71.0931	0.0000000E+000	0.0000000E+000	0.0000000E+000	-18.9069	0.0000000E+000	0.0000000E+000	0.0000000E+000	18.9069	2.91961	71.0931	-7.80058e-05
200434	3.68666	0.805608	3.77365	-12.3265	365.854	-0.000145627	-0.059288	0.985654	0.0449208	1	38	0.00727987	0.00192913	0	-0.000138751	-1	-1	-1	0	0	0	0	0	0	-1	-1	-1	0	0	0	0	0	0	0.258886	0.0565717	0.264995	12.3265	44.9208	205.569	210.42	-77.6735	0.0000000E+000	0.0000000E+000	0.0000000E+000	77.6735	0.0000000E+000	0.0000000E+000	0.0000000E+000	-77.6735	0.0000000E+000	0.0000000E+000	0.0000000E+000	-12.3265	0.0000000E+000	0.0000000E+000	0.0000000E+000	12.3265	4.57625	77.6735	-1.69871e-05
100431	3.70959	0.811284	3.79727	-12.3363	369.295	-0.00015299	-0.0502502	1.95336	0.0891631	1	38	0.00717457	0.0018894	0	-0.000193927	0.672615	0.449396	13.6242	2.02004e-05	1.53455e-05	1.72256e-05	2.29267e-05	2.41841e-05	1.44541e-05	0.0864869	0.126199	1.46212	6.55152e-07	5.53995e-07	6.96321e-07	9.22108e-07	3.42048e-07	4.84386e-07	0.257267	0.056264	0.263347	12.3363	89.1631	407.697	417.334	-77.6637	0.0000000E+000	0.0000000E+000	0.0000000E+000	77.6637	0.0000000E+000	0.0000000E+000	0.0000000E+000	-77.6637	0.0000000E+000	0.0000000E+000	0.0000000E+000	-12.3363	0.0000000E+000	0.0000000E+000	0.0000000E+000	12.3363	4.57249	77.6637	-1.97736e-05
50326.6	3.76906	1.1883	3.95194	-17.4989	372.736	-0.000117498	-0.0454203	2.66131	0.240618	1	38	0.00721009	0.00182444	0	-0.000240364	0.881281	0.416985	14.0472	2.42872e-05	2.22795e-05	2.89831e-05	1.78938e-05	3.11536e-05	1.65304e-05	0.0873628	0.0708292	1.51749	5.2554e-07	1.1002e-06	6.39415e-07	3.60651e-07	5.37437e-07	2.59875e-07	0.24133	0.0760861	0.25304	17.4989	240.618	763.192	800.225	-72.5011	0.0000000E+000	0.0000000E+000	0.0000000E+000	72.5011	0.0000000E+000	0.0000000E+000	0.0000000E+000	-72.5011	0.0000000E+000	0.0000000E+000	0.0000000E+000	-17.4989	0.0000000E+000	0.0000000E+000	0.0000000E+000	17.4989	3.1718	72.5011	-1.26726e-05
25219	3.98477	2.0607	4.48607	-27.3455	376.179	-0.000133977	-0.0411323	3.06252	0.646211	1	38	0.00724314	0.00161458	0	-0.000279708	0.758973	0.722111	13.9251	2.40943e-05	2.07508e-05	2.17883e-05	1.43233e-05	1.90629e-05	2.58195e-05	0.0930193	0.258945	1.76539	6.59258e-07	4.36454e-07	4.5892e-07	6.67094e-07	6.90144e-07	5.69607e-07	0.198002	0.102396	0.222912	27.3455	646.211	1249.58	1406.78	-62.6545	0.0000000E+000	0.0000000E+000	0.0000000E+000	62.6545	0.0000000E+000	0.0000000E+000	0.0000000E+000	-62.6545	0.0000000E+000	0.0000000E+000	0.0000000E+000	-27.3455	0.0000000E+000	0.0000000E+000	0.0000000E+000	27.3455	1.9337	62.6545	-1.28383e-05
12637.3	4.23385	3.75933	5.66198	-41.6026	379.621	-0.000156327	-0.039127	3.35007	1.47686	1	38	0.00736535	0.00130084	0	-0.000320249	0.655884	0.460233	13.601	1.83589e-05	1.52891e-05	2.26363e-05	1.02971e-05	1.56063e-05	2.06719e-05	0.119969	0.173313	2.1508	7.51626e-07	6.14857e-07	5.68918e-07	5.34424e-07	5.62076e-07	4.89682e-07	0.132068	0.117266	0.176617	41.6026	1476.86	1663.27	2224.32	-48.3974	0.0000000E+000	0.0000000E+000	0.0000000E+000	48.3974	0.0000000E+000	0.0000000E+000	0.0000000E+000	-48.3974	0.0000000E+000	0.0000000E+000	0.0000000E+000	-41.6026	0.0000000E+000	0.0000000E+000	0.0000000E+000	41.6026	1.12622	48.3974	-1.01837e-05
6332.63	4.68395	7.01969	8.43893	-56.2865	382.995	-0.000276	-0.0394417	3.58029	2.47731	1	38	0.00762264	0.000903271	0	-0.000355256	0.718453	0.370142	13.065	8.00833e-06	2.84265e-05	1.59983e-05	1.75315e-05	2.95855e-05	1.49891e-05	0.183114	0.11915	3.11769	4.54593e-07	6.27568e-07	4.04597e-07	8.6083e-07	5.57419e-07	6.31604e-07	0.0657715	0.0985698	0.118498	56.2865	2477.31	1653	2978.17	-33.7135	0.0000000E+000	0.0000000E+000	0.0000000E+000	33.7135	0.0000000E+000	0.0000000E+000	0.0000000E+000	-33.7135	0.0000000E+000	0.0000000E+000	0.0000000E+000	-56.2865	0.0000000E+000	0.0000000E+000	0.0000000E+000	56.2865	0.667258	33.7135	-1.11934e-05
3171.96	5.9635	13.0866	14.3813	-65.5015	386.328	-0.000303235	-0.035945	3.83412	3.17484	1	38	0.00678598	0.000471861	0	-0.000389734	0.659136	0.50881	14.9275	1.56948e-05	2.04192e-05	1.82342e-05	1.65424e-05	1.87891e-05	9.3724e-06	0.338642	0.167663	5.83133	4.58825e-07	1.08739e-06	3.86519e-07	6.26768e-07	4.8297e-07	3.80231e-07	0.0288339	0.0632746	0.0695346	65.5015	3174.84	1446.76	3488.94	-24.4986	0.0000000E+000	0.0000000E+000	0.0000000E+000	24.4986	0.0000000E+000	0.0000000E+000	0.0000000E+000	-24.4986	0.0000000E+000	0.0000000E+000	0.0000000E+000	-65.5015	0.0000000E+000	0.0000000E+000	0.0000000E+000	65.5015	0.455696	24.4986	-1.13446e-05
1589.49	8.51823	24.1514	25.6095	-70.5722	389.646	-0.000269197	-0.0354981	4.14591	3.68723	1	38	0.00632602	0.000247018	0	-0.000422817	0.765996	0.415091	15.6487	1.92474e-05	1.66556e-05	1.23319e-05	2.8027e-05	1.45041e-05	1.89403e-05	0.817188	0.321351	11.4417	1.03365e-06	7.79669e-07	5.41884e-07	1.09415e-06	5.09485e-07	5.7645e-07	0.0129881	0.0368246	0.039048	70.5722	3687.23	1300.49	3909.85	-19.4278	0.0000000E+000	0.0000000E+000	0.0000000E+000	19.4278	0.0000000E+000	0.0000000E+000	0.0000000E+000	-19.4278	0.0000000E+000	0.0000000E+000	0.0000000E+000	-70.5722	0.0000000E+000	0.0000000E+000	0.0000000E+000	70.5722	0.352702	19.4278	-1.06382e-05
796.787	13.7817	43.8358	45.9512	-72.5472	393.442	-0.000278871	-0.0283217	4.55668	4.1468	1	39	0.00723924	0.000157542	0	-0.000455279	0.783112	0.432167	14.2524	3.47191e-05	1.80264e-05	1.43917e-05	1.47484e-05	1.33193e-05	2.1987e-05	0.686893	0.301082	8.044	4.21733e-07	6.70047e-07	1.43338e-07	6.05214e-07	1.24035e-07	2.32698e-07	0.00652694	0.0207604	0.0217622	72.5472	4146.8	1303.73	4346.91	-17.4528	0.0000000E+000	0.0000000E+000	0.0000000E+000	17.4528	0.0000000E+000	0.0000000E+000	0.0000000E+000	-17.4528	0.0000000E+000	0.0000000E+000	0.0000000E+000	-72.5472	0.0000000E+000	0.0000000E+000	0.0000000E+000	72.5472	0.314394	17.4528	-8.75855e-06
399.106	23.6456	77.8336	81.3461	-73.1014	396.766	-0.000243808	-0.027636	5.12348	4.69057	1	39	0.00687479	8.45128e-05	0	-0.000480683	0.752903	0.394559	14.3802	1.95494e-05	1.61211e-05	1.3854e-05	3.00744e-05	2.28644e-05	1.29282e-05	0.979104	0.450223	14.4199	3.13564e-07	4.06394e-07	1.22615e-07	3.34837e-07	3.49895e-07	3.08259e-07	0.00357335	0.0117623	0.0122932	73.1014	4690.57	1424.98	4902.25	-16.8986	0.0000000E+000	0.0000000E+000	0.0000000E+000	16.8986	0.0000000E+000	0.0000000E+000	0.0000000E+000	-16.8986	0.0000000E+000	0.0000000E+000	0.0000000E+000	-73.1014	0.0000000E+000	0.0000000E+000	0.0000000E+000	73.1014	0.303796	16.8986	-8.38166e-06
199.936	41.2544	137.711	143.758	-73.3232	400.078	-0.000259969	-0.0269393	5.78042	5.30438	1	39	0.00678828	4.72203e-05	0	-0.000505506	0.678807	0.487129	14.8493	1.07293e-05	2.10456e-05	1.98978e-05	2.29429e-05	1.70331e-05	1.48761e-05	1.27187	0.891392	26.3384	1.75266e-07	3.86361e-07	1.01185e-07	2.41198e-07	1.5782e-07	1.21743e-07	0.00199622	0.00666356	0.00695615	73.3232	5304.39	1589.05	5537.29	-16.6768	0.0000000E+000	0.0000000E+000	0.0000000E+000	16.6768	0.0000000E+000	0.0000000E+000	0.0000000E+000	-16.6768	0.0000000E+000	0.0000000E+000	0.0000000E+000	-73.3232	0.0000000E+000	0.0000000E+000	0.0000000E+000	73.3232	0.299572	16.6768	-8.24863e-06
100.224	71.0999	243.236	253.414	-73.7059	403.645	-0.000226472	-0.0266078	6.52859	6.01467	1	40	0.00687741	2.7139e-05	0	-0.000531748	2.08185	0.943756	27.3047	6.54521e-05	6.39761e-05	6.9913e-05	3.78686e-05	3.72178e-05	4.91857e-05	0.806507	0.324595	9.32953	1.00327e-07	7.66966e-08	8.09855e-08	9.71344e-08	5.28329e-08	7.03593e-08	0.00110715	0.00378761	0.00394611	73.7059	6014.67	1758.14	6266.36	-16.2941	0.0000000E+000	0.0000000E+000	0.0000000E+000	16.2941	0.0000000E+000	0.0000000E+000	0.0000000E+000	-16.2941	0.0000000E+000	0.0000000E+000	0.0000000E+000	-73.7059	0.0000000E+000	0.0000000E+000	0.0000000E+000	73.7059	0.292309	16.2941	-9.70367e-06
50.2089	125.182	433.602	451.31	-73.8964	406.873	-0.000271788	-0.0263532	7.31053	6.74808	1	40	0.00679354	1.50529e-05	0	-0.000555153	1.65905	0.867237	28.7505	2.77513e-05	6.34044e-05	6.1726e-05	3.30017e-05	4.46207e-05	1.36723e-05	1.0513	0.511347	17.247	4.27691e-08	3.80023e-08	8.12605e-08	9.84559e-08	4.95679e-08	3.21333e-08	0.000614598	0.00212883	0.00221577	73.8964	6748.08	1948.19	7023.68	-16.1036	0.0000000E+000	0.0000000E+000	0.0000000E+000	16.1036	0.0000000E+000	0.0000000E+000	0.0000000E+000	-16.1036	0.0000000E+000	0.0000000E+000	0.0000000E+000	-73.8964	0.0000000E+000	0.0000000E+000	0.0000000E+000	73.8964	0.288702	16.1035	-7.76227e-06
25.1691	233.108	763.608	798.397	-73.0241	410.05	-0.000236203	-0.0262358	8.28098	7.57506	1	40	0.00675127	8.45604e-06	0	-0.000578131	2.02584	0.949766	29.0232	4.22702e-05	6.56582e-05	4.79598e-05	3.23105e-05	5.28915e-05	6.60372e-05	2.03394	1.08749	30.7449	5.49647e-08	9.07265e-08	5.36601e-08	4.6884e-08	6.16217e-08	7.11849e-08	0.000365695	0.00119794	0.00125251	73.0241	7575.06	2312.45	7920.16	-16.9759	0.0000000E+000	0.0000000E+000	0.0000000E+000	16.9759	0.0000000E+000	0.0000000E+000	0.0000000E+000	-16.9759	0.0000000E+000	0.0000000E+000	0.0000000E+000	-73.0241	0.0000000E+000	0.0000000E+000	0.0000000E+000	73.0241	0.305271	16.9759	-7.68795e-06
12.6144	448.19	1339.97	1412.94	-71.5061	413.615	-0.000202994	-0.0261105	9.41587	8.46846	1	41	0.00678158	4.79964e-06	0	-0.000603584	1.44854	0.794809	23.9644	3.70864e-05	2.27433e-05	4.91733e-05	2.75719e-05	4.09095e-05	4.97536e-05	0.646859	0.241072	6.63746	1.08295e-08	1.33772e-08	1.45589e-08	1.62192e-08	6.64126e-09	8.56316e-09	0.0002245	0.000671196	0.000707746	71.5061	8468.46	2832.51	8929.61	-18.494	0.0000000E+000	0.0000000E+000	0.0000000E+000	18.494	0.0000000E+000	0.0000000E+000	0.0000000E+000	-18.494	0.0000000E+000	0.0000000E+000	0.0000000E+000	-71.5061	0.0000000E+000	0.0000000E+000	0.0000000E+000	71.5061	0.334478	18.494	-1.02264e-05
6.31569	859.936	2275.51	2432.58	-69.298	417.264	-0.000185164	-0.0260364	11.0744	9.69048	1	41	0.00673323	2.76794e-06	0	-0.000629746	1.39403	0.719402	24.2241	3.47316e-05	3.97507e-05	2.77747e-05	4.00006e-05	3.37184e-05	4.11503e-05	0.696364	0.362517	11.6286	6.93742e-09	7.3574e-09	7.3396e-09	7.74806e-09	5.37563e-09	7.32546e-09	0.000145323	0.000384544	0.000411087	69.298	9690.48	3662.12	10359.4	-20.702	0.0000000E+000	0.0000000E+000	0.0000000E+000	20.702	0.0000000E+000	0.0000000E+000	0.0000000E+000	-20.702	0.0000000E+000	0.0000000E+000	0.0000000E+000	-69.298	0.0000000E+000	0.0000000E+000	0.0000000E+000	69.298	0.377909	20.702	-9.9236e-06
3.16616	1632.26	3808.57	4143.6	-66.8012	423.108	-0.000208972	-0.0259091	13.1985	11.1504	1	41	0.0067476	1.62844e-06	0	-0.000671592	0.899642	0.567426	15.4881	1.32764e-05	3.5975e-05	2.36698e-05	2.05775e-05	1.79493e-05	1.54113e-05	0.818968	0.347436	12.9719	6.44289e-09	7.2299e-09	4.22691e-09	4.69589e-09	3.638e-09	2.69563e-09	9.50678e-05	0.000221822	0.000241336	66.8012	11150.4	4778.82	12131.3	-23.1988	0.0000000E+000	0.0000000E+000	0.0000000E+000	23.1988	0.0000000E+000	0.0000000E+000	0.0000000E+000	-23.1988	0.0000000E+000	0.0000000E+000	0.0000000E+000	-66.8012	0.0000000E+000	0.0000000E+000	0.0000000E+000	66.8012	0.428576	23.1988	-1.65208e-05
1.5871	2962.23	6197.13	6868.72	-64.4522	433.539	-0.000228278	-0.0258249	16.1817	13.1721	1	41	0.00674939	9.82628e-07	0	-0.000746258	0.729721	0.249885	10.1757	1.87972e-05	2.24119e-05	1.63698e-05	1.79063e-05	1.45301e-05	2.30375e-05	1.21595	0.583405	14.8272	5.50078e-09	4.36034e-09	3.85358e-09	6.31315e-09	2.8719e-09	4.57265e-09	6.27867e-05	0.000131353	0.000145588	64.4522	13172.1	6296.27	14599.6	-25.5478	0.0000000E+000	0.0000000E+000	0.0000000E+000	25.5478	0.0000000E+000	0.0000000E+000	0.0000000E+000	-25.5478	0.0000000E+000	0.0000000E+000	0.0000000E+000	-64.4522	0.0000000E+000	0.0000000E+000	0.0000000E+000	64.4522	0.478	25.5478	-3.0081e-05
0.79456	5226.4	9843.12	11144.6	-62.033	453.214	-0.000219148	-0.0257698	20.3498	15.8744	1	41	0.00674309	6.05054e-07	0	-0.000886876	0.422969	0.199517	7.11831	1.24349e-05	6.27587e-06	1.49716e-05	1.00491e-05	1.03178e-05	7.95903e-06	1.00139	0.885107	18.7112	3.30544e-09	2.71831e-09	2.6323e-09	9.86719e-10	1.70099e-09	1.39391e-09	4.20797e-05	7.92507e-05	8.97295e-05	62.033	15874.4	8428.81	17973.3	-27.967	0.0000000E+000	0.0000000E+000	0.0000000E+000	27.967	0.0000000E+000	0.0000000E+000	0.0000000E+000	-27.967	0.0000000E+000	0.0000000E+000	0.0000000E+000	-62.033	0.0000000E+000	0.0000000E+000	0.0000000E+000	62.033	0.53097	27.9669	-5.72347e-05
0.398211	8684.99	15581.8	17838.8	-60.8656	491.342	-0.000220181	-0.0258187	25.6501	19.5702	1	41	0.00673703	3.77663e-07	0	-0.00116004	0.2747	0.211799	4.86876	5.35682e-06	7.42559e-06	8.05938e-06	8.65474e-06	4.29779e-06	8.93838e-06	1.05384	1.62858	23.8828	2.11258e-09	1.47476e-09	1.53714e-09	9.08562e-10	8.95099e-10	1.88638e-09	2.72923e-05	4.89653e-05	5.60577e-05	60.8656	19570.2	10908	22404.8	-29.1344	0.0000000E+000	0.0000000E+000	0.0000000E+000	29.1344	0.0000000E+000	0.0000000E+000	0.0000000E+000	-29.1344	0.0000000E+000	0.0000000E+000	0.0000000E+000	-60.8656	0.0000000E+000	0.0000000E+000	0.0000000E+000	60.8656	0.55738	29.1344	-0.000112211
0.199573	14148	25311.7	28997.3	-60.7969	566.494	-0.00022292	-0.0258231	31.5063	24.0061	1	41	0.00674017	2.32441e-07	0	-0.00169829	0.219811	0.102139	3.61591	5.02569e-06	8.45562e-06	6.0015e-06	5.82131e-06	2.0964e-06	3.95423e-06	2.20728	6.55829	26.5363	3.544e-09	1.86534e-09	1.93548e-09	1.61575e-09	6.81401e-10	6.85269e-10	1.68259e-05	3.01026e-05	3.44859e-05	60.7969	24006.1	13418.2	27501.7	-29.2031	0.0000000E+000	0.0000000E+000	0.0000000E+000	29.2031	0.0000000E+000	0.0000000E+000	0.0000000E+000	-29.2031	0.0000000E+000	0.0000000E+000	0.0000000E+000	-60.7969	0.0000000E+000	0.0000000E+000	0.0000000E+000	60.7969	0.558952	29.2031	-0.000221454
0.0999518	25783	42881.6	50035.9	-58.9831	715.55	-0.000209626	-0.025747	37.1329	27.2732	1	41	0.00674048	1.34713e-07	0	-0.00276582	0.194853	0.0862932	2.61642	5.59455e-06	3.77094e-06	2.39638e-06	8.15594e-06	4.62213e-06	4.20427e-06	4.53308	12.0304	29.709	4.40952e-09	2.2745e-09	1.63103e-09	1.9001e-09	1.32398e-09	1.35858e-09	1.02984e-05	1.7128e-05	1.99856e-05	58.9831	27273.2	16398.3	31823.5	-31.0169	0.0000000E+000	0.0000000E+000	0.0000000E+000	31.0169	0.0000000E+000	0.0000000E+000	0.0000000E+000	-31.0169	0.0000000E+000	0.0000000E+000	0.0000000E+000	-58.9831	0.0000000E+000	0.0000000E+000	0.0000000E+000	58.9831	0.601261	31.0169	-0.000439266
252347	3.78742	0.993989	3.91568	-14.7054	720.579	-0.000112671	-0.0266036	0.634512	0.0408873	2	38	0.00728201	0.00185971	0	-0.00280256	-1	-1	-1	0	0	0	0	0	0	-1	-1	-1	0	0	0	0	0	0	0.247018	0.0648287	0.255384	14.7054	40.8873	155.794	161.07	-75.2946	0.0000000E+000	0.0000000E+000	0.0000000E+000	75.2946	0.0000000E+000	0.0000000E+000	0.0000000E+000	-75.2946	0.0000000E+000	0.0000000E+000	0.0000000E+000	-14.7054	0.0000000E+000	0.0000000E+000	0.0000000E+000	14.7054	3.81032	75.2946	-7.5299e-06
126447	3.68242	0.809849	3.77042	-12.4032	724.019	-0.000133175	-0.0273167	1.5542	0.0717025	2	38	0.00716346	0.00189991	0	-0.00282687	-1	-1	-1	0	0	0	0	0	0	-1	-1	-1	0	0	0	0	0	0	0.259032	0.0569671	0.265222	12.4032	71.7025	326.035	333.826	-77.5968	0.0000000E+000	0.0000000E+000	0.0000000E+000	77.5968	0.0000000E+000	0.0000000E+000	0.0000000E+000	-77.5968	0.0000000E+000	0.0000000E+000	0.0000000E+000	-12.4032	0.0000000E+000	0.0000000E+000	0.0000000E+000	12.4032	4.54705	77.5968	-7.62618e-06
63362.9	3.73406	1.07888	3.8868	-16.1156	727.46	-0.000114143	-0.0274061	2.32816	0.17938	2	38	0.00723465	0.00186134	0	-0.00285245	0.737956	0.534389	13.699	2.68059e-05	1.46572e-05	2.03464e-05	1.86334e-05	1.73148e-05	2.57706e-05	0.0973846	0.110977	1.46822	4.9539e-07	1.10596e-06	6.17208e-07	6.54478e-07	4.54276e-07	7.64623e-07	0.247171	0.0714149	0.257281	16.1156	179.38	620.844	646.239	-73.8844	0.0000000E+000	0.0000000E+000	0.0000000E+000	73.8844	0.0000000E+000	0.0000000E+000	0.0000000E+000	-73.8844	0.0000000E+000	0.0000000E+000	0.0000000E+000	-16.1156	0.0000000E+000	0.0000000E+000	0.0000000E+000	16.1156	3.46105	73.8844	-8.27042e-06
31751	3.90495	1.79735	4.29873	-24.7154	730.901	-0.000114255	-0.0269834	2.78888	0.487544	2	38	0.00731847	0.00170247	0	-0.00287705	0.763301	0.762303	13.5201	1.65197e-05	2.43202e-05	1.80864e-05	1.77393e-05	1.88514e-05	2.76989e-05	0.114297	0.196694	1.65749	4.21789e-07	9.88808e-07	7.82638e-07	7.34301e-07	5.44692e-07	7.52069e-07	0.211317	0.097264	0.232627	24.7154	487.544	1059.25	1166.06	-65.2846	0.0000000E+000	0.0000000E+000	0.0000000E+000	65.2846	0.0000000E+000	0.0000000E+000	0.0000000E+000	-65.2846	0.0000000E+000	0.0000000E+000	0.0000000E+000	-24.7154	0.0000000E+000	0.0000000E+000	0.0000000E+000	24.7154	2.17262	65.2846	-8.59879e-06
15912.6	4.13002	3.24028	5.24942	-38.1165	734.342	-0.000141974	-0.0278157	3.08671	1.17608	2	38	0.00735377	0.00140087	0	-0.00290256	0.844802	0.527356	13.3792	1.39496e-05	3.04465e-05	2.33982e-05	1.51905e-05	2.30632e-05	2.69324e-05	0.132735	0.107694	1.9745	9.53714e-07	4.08522e-07	2.98335e-07	9.17201e-07	5.49516e-07	8.22224e-07	0.149875	0.117587	0.190497	38.1165	1176.08	1499.02	1905.31	-51.8835	0.0000000E+000	0.0000000E+000	0.0000000E+000	51.8835	0.0000000E+000	0.0000000E+000	0.0000000E+000	-51.8835	0.0000000E+000	0.0000000E+000	0.0000000E+000	-38.1165	0.0000000E+000	0.0000000E+000	0.0000000E+000	38.1165	1.27459	51.8835	-8.42007e-06
7967.67	4.53986	6.06338	7.57462	-53.1765	737.812	-0.00025598	-0.0291656	3.29438	2.11097	2	38	0.00721762	0.000952868	0	-0.00293405	0.632666	0.438411	13.8448	1.50535e-05	1.85651e-05	9.13243e-06	1.91794e-05	1.51684e-05	1.59515e-05	0.179663	0.332359	2.93433	6.11944e-07	4.81129e-07	4.37457e-07	6.75816e-07	5.85294e-07	9.54932e-07	0.0791262	0.10568	0.13202	53.1765	2110.97	1580.55	2637.11	-36.8235	0.0000000E+000	0.0000000E+000	0.0000000E+000	36.8235	0.0000000E+000	0.0000000E+000	0.0000000E+000	-36.8235	0.0000000E+000	0.0000000E+000	0.0000000E+000	-53.1765	0.0000000E+000	0.0000000E+000	0.0000000E+000	53.1765	0.748734	36.8235	-1.04237e-05
3993.72	5.44424	11.3362	12.5757	-64.3472	741.09	-0.000246138	-0.0282626	3.5154	2.85656	2	38	0.00689599	0.000548356	0	-0.00296022	0.746516	0.387411	14.5933	1.12067e-05	8.49004e-06	2.15397e-05	2.25939e-05	2.19165e-05	1.87736e-05	0.334429	0.235837	5.06701	6.59463e-07	1.24594e-06	4.87972e-07	2.89154e-07	6.74044e-07	5.15261e-07	0.0344247	0.0716804	0.0795181	64.3472	2856.56	1371.87	3168.9	-25.6528	0.0000000E+000	0.0000000E+000	0.0000000E+000	25.6528	0.0000000E+000	0.0000000E+000	0.0000000E+000	-25.6528	0.0000000E+000	0.0000000E+000	0.0000000E+000	-64.3472	0.0000000E+000	0.0000000E+000	0.0000000E+000	64.3472	0.480253	25.6528	-8.42002e-06
2001.92	7.43404	20.8905	22.1738	-70.4115	744.63	-0.000256577	-0.0279628	3.80561	3.37786	2	38	0.00687797	0.000310184	0	-0.00298717	0.671391	0.393266	14.4689	2.4799e-05	1.14045e-05	1.66675e-05	1.38168e-05	1.28444e-05	2.43122e-05	0.483527	0.187888	8.785	3.89105e-07	5.24064e-07	6.99027e-07	7.32245e-07	6.49263e-07	4.36296e-07	0.0151197	0.0424881	0.0450982	70.4115	3377.86	1202.03	3585.36	-19.5885	0.0000000E+000	0.0000000E+000	0.0000000E+000	19.5885	0.0000000E+000	0.0000000E+000	0.0000000E+000	-19.5885	0.0000000E+000	0.0000000E+000	0.0000000E+000	-70.4115	0.0000000E+000	0.0000000E+000	0.0000000E+000	70.4115	0.355857	19.5885	-9.89665e-06
1002.75	11.8229	38.304	40.0872	-72.8467	748.205	-0.000260864	-0.0256864	4.14364	3.78321	2	39	0.00731294	0.000182426	0	-0.00301359	0.675068	0.463646	13.8351	8.4563e-06	2.40636e-05	2.32335e-05	2.00374e-05	1.61334e-05	1.71136e-05	0.675598	0.18989	6.81738	2.48747e-07	9.41887e-07	2.20537e-07	5.51084e-07	1.8908e-07	3.00715e-07	0.00735722	0.023836	0.0249456	72.8467	3783.21	1167.72	3959.33	-17.1533	0.0000000E+000	0.0000000E+000	0.0000000E+000	17.1533	0.0000000E+000	0.0000000E+000	0.0000000E+000	-17.1533	0.0000000E+000	0.0000000E+000	0.0000000E+000	-72.8467	0.0000000E+000	0.0000000E+000	0.0000000E+000	72.8467	0.308659	17.1533	-9.45684e-06
502.588	20.2348	68.326	71.2593	-73.5033	751.526	-0.000181865	-0.0257442	4.63471	4.26099	2	39	0.00676763	9.49719e-05	0	-0.00303726	0.779789	0.344279	15.0112	2.27469e-05	1.85915e-05	1.9238e-05	2.35388e-05	1.08762e-05	2.05324e-05	0.911107	0.298209	13.2537	2.00926e-07	3.22864e-07	2.24289e-07	6.17341e-07	1.44145e-07	2.86937e-07	0.00398489	0.0134556	0.0140333	73.5033	4260.99	1261.9	4443.92	-16.4967	0.0000000E+000	0.0000000E+000	0.0000000E+000	16.4967	0.0000000E+000	0.0000000E+000	0.0000000E+000	-16.4967	0.0000000E+000	0.0000000E+000	0.0000000E+000	-73.5033	0.0000000E+000	0.0000000E+000	0.0000000E+000	73.5033	0.296152	16.4967	-7.81483e-06
251.853	35.3425	121.488	126.524	-73.7795	754.841	-0.000239502	-0.025638	5.20164	4.79576	2	39	0.00664158	5.24926e-05	0	-0.00306058	0.768931	0.313903	15.0971	1.76185e-05	1.42874e-05	2.6145e-05	1.42997e-05	2.63548e-05	1.66647e-05	1.31724	0.59108	23.7161	2.41668e-07	3.15622e-07	3.15604e-07	1.20743e-07	3.48666e-07	2.34185e-07	0.00220776	0.00758902	0.00790363	73.7795	4795.76	1395.16	4994.58	-16.2205	0.0000000E+000	0.0000000E+000	0.0000000E+000	16.2205	0.0000000E+000	0.0000000E+000	0.0000000E+000	-16.2205	0.0000000E+000	0.0000000E+000	0.0000000E+000	-73.7795	0.0000000E+000	0.0000000E+000	0.0000000E+000	73.7795	0.290915	16.2205	-7.75122e-06
126.171	61.2422	213.2	221.822	-73.9732	758.157	-0.000260659	-0.0253228	5.91661	5.46562	2	39	0.00659711	2.97406e-05	0	-0.00308405	0.812567	0.372883	15.3015	1.63189e-05	3.17427e-05	1.54286e-05	2.27918e-05	1.50505e-05	1.40485e-05	2.3337	0.775557	42.0636	1.37458e-07	2.32841e-07	2.04418e-07	3.79902e-07	3.10487e-07	2.48794e-07	0.00124464	0.00433291	0.00450813	73.9732	5465.62	1570.01	5686.65	-16.0268	0.0000000E+000	0.0000000E+000	0.0000000E+000	16.0268	0.0000000E+000	0.0000000E+000	0.0000000E+000	-16.0268	0.0000000E+000	0.0000000E+000	0.0000000E+000	-73.9732	0.0000000E+000	0.0000000E+000	0.0000000E+000	73.9732	0.287252	16.0268	-7.78769e-06
63.2394	108.489	382.637	397.72	-74.1704	761.679	-0.000241217	-0.0257295	6.57726	6.08787	2	40	0.00664662	1.67118e-05	0	-0.00310863	1.50291	0.570568	28.4424	3.81949e-05	4.48959e-05	2.32969e-05	1.57976e-05	3.06817e-05	6.44748e-05	0.854933	0.446095	15.1099	5.33935e-08	8.79699e-08	3.03551e-08	5.18779e-08	4.04764e-08	5.05778e-08	0.000685852	0.00241898	0.00251433	74.1704	6087.87	1726.09	6327.84	-15.8296	0.0000000E+000	0.0000000E+000	0.0000000E+000	15.8296	0.0000000E+000	0.0000000E+000	0.0000000E+000	-15.8296	0.0000000E+000	0.0000000E+000	0.0000000E+000	-74.1704	0.0000000E+000	0.0000000E+000	0.0000000E+000	74.1704	0.283529	15.8296	-7.65209e-06
31.6723	200.267	679.415	708.316	-73.5764	764.854	-0.000239614	-0.0257196	7.39615	6.8049	2	40	0.00660378	9.3232e-06	0	-0.00313116	1.62247	0.795889	29.4477	4.60014e-05	2.93571e-05	6.46462e-05	2.4292e-05	2.67423e-05	3.89664e-05	1.69636	0.855443	27.5415	6.16759e-08	5.2743e-08	8.42715e-08	3.63552e-08	4.32743e-08	5.28811e-08	0.000399168	0.00135419	0.0014118	73.5764	6804.9	2005.84	7094.37	-16.4236	0.0000000E+000	0.0000000E+000	0.0000000E+000	16.4236	0.0000000E+000	0.0000000E+000	0.0000000E+000	-16.4236	0.0000000E+000	0.0000000E+000	0.0000000E+000	-73.5764	0.0000000E+000	0.0000000E+000	0.0000000E+000	73.5764	0.294764	16.4236	-7.39719e-06
15.879	370.206	1195.38	1251.39	-72.7924	768.026	-0.000228168	-0.0256999	8.38475	7.65093	2	40	0.00660545	5.27848e-06	0	-0.00315364	1.50577	0.94554	29.2033	4.26952e-05	3.72175e-05	4.80873e-05	4.43882e-05	2.64505e-05	3.17464e-05	2.46415	1.63057	48.9445	5.76407e-08	4.55532e-08	5.80015e-08	5.46636e-08	4.1551e-08	4.54912e-08	0.000236405	0.000763341	0.00079911	72.7924	7650.93	2369.48	8009.44	-17.2076	0.0000000E+000	0.0000000E+000	0.0000000E+000	17.2076	0.0000000E+000	0.0000000E+000	0.0000000E+000	-17.2076	0.0000000E+000	0.0000000E+000	0.0000000E+000	-72.7924	0.0000000E+000	0.0000000E+000	0.0000000E+000	72.7924	0.309698	17.2076	-7.39869e-06
7.95573	754.815	2062.08	2195.89	-69.8951	771.752	-0.000229883	-0.0257079	9.70139	8.5551	2	41	0.00661306	3.01156e-06	0	-0.00317969	1.20092	0.720605	24.2832	3.70827e-05	2.06727e-05	1.79549e-05	2.41697e-05	5.10119e-05	1.93136e-05	0.597469	0.35653	10.4347	7.24011e-09	8.57937e-09	4.75392e-09	8.14396e-09	6.423e-09	4.85325e-09	0.000156538	0.000427647	0.000455396	69.8951	8555.1	3131.56	9110.24	-20.1049	0.0000000E+000	0.0000000E+000	0.0000000E+000	20.1049	0.0000000E+000	0.0000000E+000	0.0000000E+000	-20.1049	0.0000000E+000	0.0000000E+000	0.0000000E+000	-69.8951	0.0000000E+000	0.0000000E+000	0.0000000E+000	69.8951	0.366045	20.1049	-8.4524e-06
3.98597	1409.17	3445.48	3722.52	-67.7558	776.671	-0.000207827	-0.025702	11.5887	9.92803	2	41	0.00658737	1.7696e-06	0	-0.00321457	1.04297	0.584046	18.2194	2.82333e-05	3.71657e-05	2.4928e-05	2.96204e-05	2.47434e-05	1.73129e-05	0.793616	0.412001	13.4574	4.19539e-09	7.25079e-09	5.24125e-09	6.77473e-09	4.53447e-09	4.03919e-09	0.000101693	0.000248643	0.000268636	67.7558	9928.03	4060.49	10726.3	-22.2442	0.0000000E+000	0.0000000E+000	0.0000000E+000	22.2442	0.0000000E+000	0.0000000E+000	0.0000000E+000	-22.2442	0.0000000E+000	0.0000000E+000	0.0000000E+000	-67.7558	0.0000000E+000	0.0000000E+000	0.0000000E+000	67.7558	0.408992	22.2442	-1.36338e-05
1.99783	2601.26	5639.01	6210.07	-65.2363	785.201	-0.000204604	-0.0256724	14.1273	11.6486	2	41	0.00659782	1.06244e-06	0	-0.00327514	0.622877	0.353369	11.9692	2.57079e-05	1.35675e-05	1.87006e-05	9.04768e-06	1.30304e-05	8.14062e-06	0.896696	0.441117	15.3741	5.48101e-09	3.48898e-09	3.54467e-09	3.99881e-09	2.46096e-09	1.60719e-09	6.74513e-05	0.000146221	0.000161029	65.2363	11648.6	5373.44	12828.2	-24.7637	0.0000000E+000	0.0000000E+000	0.0000000E+000	24.7637	0.0000000E+000	0.0000000E+000	0.0000000E+000	-24.7637	0.0000000E+000	0.0000000E+000	0.0000000E+000	-65.2363	0.0000000E+000	0.0000000E+000	0.0000000E+000	65.2363	0.461297	24.7637	-2.43343e-05
1.00122	4558.55	8962	10054.7	-63.0397	801.069	-0.000205557	-0.0256124	17.7373	14.0914	2	41	0.00659436	6.55845e-07	0	-0.00338784	0.418956	0.199976	8.16693	7.28658e-06	1.17898e-05	9.44496e-06	1.21293e-05	6.62408e-06	1.19083e-05	0.885795	0.517907	18.6741	2.43947e-09	2.36831e-09	1.74657e-09	2.67988e-09	1.53119e-09	1.82389e-09	4.50905e-05	8.86468e-05	9.94555e-05	63.0397	14091.4	7167.65	15809.6	-26.9603	0.0000000E+000	0.0000000E+000	0.0000000E+000	26.9603	0.0000000E+000	0.0000000E+000	0.0000000E+000	-26.9603	0.0000000E+000	0.0000000E+000	0.0000000E+000	-63.0397	0.0000000E+000	0.0000000E+000	0.0000000E+000	63.0397	0.508653	26.9603	-4.58468e-05
0.501541	7632.01	14101.9	16034.7	-61.5776	831.564	-0.00021351	-0.0256	22.5027	17.4048	2	41	0.0065894	4.10946e-07	0	-0.00360427	0.337399	0.1928	5.57074	5.71112e-06	7.71668e-06	7.84652e-06	1.1425e-05	1.02149e-05	8.117e-06	1.24104	0.714577	23.9215	3.18029e-09	1.40003e-09	1.90896e-09	1.15682e-09	1.74167e-09	1.44884e-09	2.96837e-05	5.48474e-05	6.23647e-05	61.5776	17404.8	9419.57	19790.3	-28.4224	0.0000000E+000	0.0000000E+000	0.0000000E+000	28.4224	0.0000000E+000	0.0000000E+000	0.0000000E+000	-28.4224	0.0000000E+000	0.0000000E+000	0.0000000E+000	-61.5776	0.0000000E+000	0.0000000E+000	0.0000000E+000	61.5776	0.541204	28.4224	-8.87541e-05
0.251222	12661.6	22421.3	25749.4	-60.546	891.459	-0.000207124	-0.0256821	28.2554	21.4235	2	41	0.00658935	2.55903e-07	0	-0.00403034	0.252146	0.130976	4.02809	6.86846e-06	9.18499e-06	6.70494e-06	4.27841e-06	3.35153e-06	6.25684e-06	1.95233	3.81085	28.8465	3.83116e-09	1.75525e-09	1.57533e-09	5.89217e-10	6.88462e-10	1.62459e-09	1.90966e-05	3.38163e-05	3.88358e-05	60.546	21423.5	12098.1	24603.4	-29.454	0.0000000E+000	0.0000000E+000	0.0000000E+000	29.454	0.0000000E+000	0.0000000E+000	0.0000000E+000	-29.454	0.0000000E+000	0.0000000E+000	0.0000000E+000	-60.546	0.0000000E+000	0.0000000E+000	0.0000000E+000	60.546	0.564714	29.454	-0.000175323
0.125939	20225.7	36313.5	41566.2	-60.8834	1010.02	-0.000206044	-0.0257891	34.8011	26.5613	2	41	0.00658888	1.58515e-07	0	-0.00487865	0.18202	0.110791	2.80173	4.87476e-06	5.08527e-06	3.43067e-06	5.23345e-06	3.49852e-06	4.13414e-06	1.80598	6.09358	25.9057	1.65614e-09	1.38271e-09	8.20809e-10	8.88042e-10	6.25697e-10	8.8818e-10	1.17064e-05	2.10178e-05	2.4058e-05	60.8834	26561.3	14793.9	30403.3	-29.1166	0.0000000E+000	0.0000000E+000	0.0000000E+000	29.1166	0.0000000E+000	0.0000000E+000	0.0000000E+000	-29.1166	0.0000000E+000	0.0000000E+000	0.0000000E+000	-60.8834	0.0000000E+000	0.0000000E+000	0.0000000E+000	60.8834	0.556973	29.1166	-0.000349381
317705	3.76997	1.09155	3.92481	-16.1477	1075.31	-0.000135934	-0.0268103	0.458938	0.0354977	3	38	0.00716436	0.0018254	0	-0.00534836	-1	-1	-1	0	0	0	0	0	0	-1	-1	-1	0	0	0	0	0	0	0.244737	0.0708606	0.254789	16.1477	35.4977	122.602	127.637	-73.8523	0.0000000E+000	0.0000000E+000	0.0000000E+000	73.8523	0.0000000E+000	0.0000000E+000	0.0000000E+000	-73.8523	0.0000000E+000	0.0000000E+000	0.0000000E+000	-16.1477	0.0000000E+000	0.0000000E+000	0.0000000E+000	16.1477	3.45379	73.8523	-6.87572e-06
159201	3.71707	0.812849	3.80491	-12.3353	1078.75	-0.000146708	-0.0257415	1.22989	0.0561302	3	38	0.00721414	0.00189601	0	-0.00537937	-1	-1	-1	0	0	0	0	0	0	-1	-1	-1	0	0	0	0	0	0	0.256751	0.0561462	0.262818	12.3353	56.1301	256.677	262.743	-77.6647	0.0000000E+000	0.0000000E+000	0.0000000E+000	77.6647	0.0000000E+000	0.0000000E+000	0.0000000E+000	-77.6647	0.0000000E+000	0.0000000E+000	0.0000000E+000	-12.3353	0.0000000E+000	0.0000000E+000	0.0000000E+000	12.3353	4.5729	77.6647	-1.09214e-05
79767.3	3.74646	0.956701	3.86668	-14.325	1082.19	-0.000122308	-0.0263764	2.08554	0.127672	3	38	0.00724	0.00187241	0	-0.00540484	0.633363	0.505159	13.6573	1.67991e-05	2.44881e-05	1.6707e-05	1.67408e-05	1.13178e-05	1.54303e-05	0.0849719	0.133493	1.47294	4.46891e-07	6.66055e-07	5.50264e-07	7.06923e-07	2.29494e-07	7.5163e-07	0.250579	0.0639882	0.25862	14.325	127.672	499.965	516.009	-75.675	0.0000000E+000	0.0000000E+000	0.0000000E+000	75.675	0.0000000E+000	0.0000000E+000	0.0000000E+000	-75.675	0.0000000E+000	0.0000000E+000	0.0000000E+000	-14.325	0.0000000E+000	0.0000000E+000	0.0000000E+000	14.325	3.91601	75.675	-9.36457e-06
39971.8	3.84459	1.50513	4.12871	-21.38	1085.63	-0.00012721	-0.0266371	2.64541	0.351569	3	38	0.00721644	0.00174787	0	-0.0054282	0.650821	0.635569	13.9124	1.38865e-05	1.5123e-05	2.243e-05	1.14124e-05	2.06586e-05	1.5362e-05	0.0988035	0.141283	1.59828	7.42011e-07	1.04071e-06	6.10792e-07	4.0392e-07	4.97777e-07	5.62293e-07	0.225539	0.0882966	0.242206	21.38	351.569	898.023	964.389	-68.62	0.0000000E+000	0.0000000E+000	0.0000000E+000	68.62	0.0000000E+000	0.0000000E+000	0.0000000E+000	-68.62	0.0000000E+000	0.0000000E+000	0.0000000E+000	-21.38	0.0000000E+000	0.0000000E+000	0.0000000E+000	21.38	2.55433	68.62	-7.22775e-06
20032.3	3.97191	2.65873	4.77964	-33.7977	1089.07	-0.000156644	-0.026963	2.98824	0.924643	3	38	0.00728291	0.00152374	0	-0.00545017	0.768223	0.37276	13.8264	1.79697e-05	1.26349e-05	1.9191e-05	1.40339e-05	2.36436e-05	3.38599e-05	0.130383	0.130394	1.79674	1.20645e-06	6.21014e-07	6.45252e-07	6.69371e-07	6.90474e-07	6.87036e-07	0.173864	0.116382	0.209221	33.7977	924.643	1381.34	1662.24	-56.2023	0.0000000E+000	0.0000000E+000	0.0000000E+000	56.2023	0.0000000E+000	0.0000000E+000	0.0000000E+000	-56.2023	0.0000000E+000	0.0000000E+000	0.0000000E+000	-33.7977	0.0000000E+000	0.0000000E+000	0.0000000E+000	33.7977	1.49391	56.2023	-9.4595e-06
10039.3	4.41414	4.95362	6.63498	-48.296	1092.51	-0.000145963	-0.0275178	3.20031	1.78385	3	38	0.00726073	0.00109431	0	-0.0054731	0.719802	0.782034	13.6274	1.97868e-05	1.96927e-05	2.42027e-05	1.61507e-05	5.19043e-06	2.29903e-05	0.126735	0.508518	2.5636	4.6551e-07	3.28088e-07	5.63725e-07	5.6728e-07	4.17113e-07	7.55677e-07	0.100269	0.112524	0.150716	48.296	1783.85	1589.58	2389.32	-41.704	0.0000000E+000	0.0000000E+000	0.0000000E+000	41.704	0.0000000E+000	0.0000000E+000	0.0000000E+000	-41.704	0.0000000E+000	0.0000000E+000	0.0000000E+000	-48.296	0.0000000E+000	0.0000000E+000	0.0000000E+000	48.296	0.891093	41.704	-7.51514e-06
5028.39	5.0147	9.27212	10.5413	-61.5939	1095.86	-0.000280586	-0.0270877	3.4136	2.64107	3	38	0.00721643	0.000684585	0	-0.00549922	0.705126	0.564113	13.7369	2.21967e-05	1.66533e-05	1.84469e-05	1.95363e-05	1.70959e-05	2.3672e-05	0.262547	0.244964	4.09509	5.40216e-07	9.84117e-07	7.50406e-07	4.06217e-07	7.35928e-07	6.90324e-07	0.0451289	0.0834428	0.0948648	61.5939	2641.07	1428.39	3002.59	-28.4061	0.0000000E+000	0.0000000E+000	0.0000000E+000	28.4061	0.0000000E+000	0.0000000E+000	0.0000000E+000	-28.4061	0.0000000E+000	0.0000000E+000	0.0000000E+000	-61.5939	0.0000000E+000	0.0000000E+000	0.0000000E+000	61.5939	0.540836	28.4061	-8.83047e-06
2519.19	6.6016	17.2623	18.4815	-69.0717	1099.18	-0.00024968	-0.026989	3.65983	3.19287	3	38	0.00638683	0.000345579	0	-0.00552344	0.792113	0.52686	15.7095	5.58689e-06	1.62532e-05	2.29369e-05	2.33453e-05	2.10991e-05	1.9829e-05	0.538141	0.345875	8.11078	6.15255e-07	8.27354e-07	5.77977e-07	5.94442e-07	1.07402e-06	4.77083e-07	0.0193274	0.0505385	0.0541081	69.0717	3192.87	1221.05	3418.39	-20.9283	0.0000000E+000	0.0000000E+000	0.0000000E+000	20.9283	0.0000000E+000	0.0000000E+000	0.0000000E+000	-20.9283	0.0000000E+000	0.0000000E+000	0.0000000E+000	-69.0717	0.0000000E+000	0.0000000E+000	0.0000000E+000	69.0717	0.38243	20.9283	-8.5732e-06
1262.98	10.0177	31.6132	33.1625	-72.4174	1102.72	-0.000267388	-0.0274489	3.98617	3.62242	3	38	0.00672262	0.000202718	0	-0.00554968	0.869907	0.463965	14.6587	1.43001e-05	2.91552e-05	2.46416e-05	1.61221e-05	2.25781e-05	2.26274e-05	0.889584	0.382253	13.9163	8.81296e-07	4.93777e-07	4.90592e-07	1.02506e-06	5.98007e-07	3.9925e-07	0.0091091	0.0287458	0.0301546	72.4174	3622.42	1147.89	3799.95	-17.5826	0.0000000E+000	0.0000000E+000	0.0000000E+000	17.5826	0.0000000E+000	0.0000000E+000	0.0000000E+000	-17.5826	0.0000000E+000	0.0000000E+000	0.0000000E+000	-72.4174	0.0000000E+000	0.0000000E+000	0.0000000E+000	72.4174	0.316884	17.5826	-8.11906e-06
632.773	16.8234	57.1156	59.5418	-73.5877	1106.29	-0.000241254	-0.0259414	4.4037	4.05214	3	39	0.00687982	0.000115546	0	-0.00557508	0.745629	0.462303	14.5911	3.04797e-05	2.02725e-05	1.08164e-05	2.04439e-05	1.26199e-05	1.92285e-05	0.987929	0.383215	11.1411	3.68279e-07	5.47536e-07	1.6213e-07	8.33991e-07	2.05435e-07	2.27503e-07	0.00474538	0.0161106	0.0167949	73.5877	4052.14	1193.56	4224.26	-16.4123	0.0000000E+000	0.0000000E+000	0.0000000E+000	16.4123	0.0000000E+000	0.0000000E+000	0.0000000E+000	-16.4123	0.0000000E+000	0.0000000E+000	0.0000000E+000	-73.5877	0.0000000E+000	0.0000000E+000	0.0000000E+000	73.5877	0.29455	16.4124	-7.93604e-06
316.927	29.4639	101.735	105.916	-73.8483	1109.61	-0.000243305	-0.0256831	4.93617	4.55418	3	39	0.00667132	6.2987e-05	0	-0.00559856	0.927273	0.252627	15.2161	2.35741e-05	2.34604e-05	1.10417e-05	2.26329e-05	2.2243e-05	3.04751e-05	1.00741	0.501895	19.784	2.8085e-07	2.46053e-07	2.13463e-07	2.00312e-07	6.71304e-08	3.69541e-07	0.00262644	0.00906879	0.00944146	73.8483	4554.18	1318.95	4741.33	-16.1517	0.0000000E+000	0.0000000E+000	0.0000000E+000	16.1517	0.0000000E+000	0.0000000E+000	0.0000000E+000	-16.1517	0.0000000E+000	0.0000000E+000	0.0000000E+000	-73.8483	0.0000000E+000	0.0000000E+000	0.0000000E+000	73.8483	0.289613	16.1517	-7.84876e-06
158.831	51.8083	180.344	187.638	-73.972	1112.94	-0.000224347	-0.0259272	5.55628	5.13269	3	39	0.00662226	3.52928e-05	0	-0.00562214	0.874865	0.249681	15.1912	2.03631e-05	1.81469e-05	1.00572e-05	1.73599e-05	3.24517e-05	2.42407e-05	1.75698	0.829604	35.2182	1.55209e-07	2.73482e-07	1.78566e-07	1.47469e-07	3.2809e-07	3.10828e-07	0.00147149	0.00512224	0.00532941	73.972	5132.69	1474.49	5340.29	-16.028	0.0000000E+000	0.0000000E+000	0.0000000E+000	16.028	0.0000000E+000	0.0000000E+000	0.0000000E+000	-16.028	0.0000000E+000	0.0000000E+000	0.0000000E+000	-73.972	0.0000000E+000	0.0000000E+000	0.0000000E+000	73.972	0.287275	16.028	-7.95294e-06
79.6177	89.0454	321.359	333.468	-74.5125	1116.48	-0.000216984	-0.0258041	6.22042	5.77688	3	40	0.0066934	2.00721e-05	0	-0.00564701	1.52434	0.737891	29.3108	3.85104e-05	3.77635e-05	4.83541e-05	3.77264e-05	2.51331e-05	4.8847e-05	0.846442	0.270831	13.0229	7.37905e-08	6.11216e-08	5.07115e-08	9.60002e-08	4.61462e-08	6.0229e-08	0.000800761	0.0028899	0.00299879	74.5125	5776.88	1600.71	5994.55	-15.4875	0.0000000E+000	0.0000000E+000	0.0000000E+000	15.4875	0.0000000E+000	0.0000000E+000	0.0000000E+000	-15.4875	0.0000000E+000	0.0000000E+000	0.0000000E+000	-74.5125	0.0000000E+000	0.0000000E+000	0.0000000E+000	74.5125	0.27709	15.4875	-7.60765e-06
39.8851	162.427	570.629	593.296	-74.1113	1119.69	-0.00024653	-0.0258185	6.99287	6.46875	3	40	0.00661908	1.11565e-05	0	-0.00566989	1.5413	0.454597	28.7886	2.71066e-05	3.70935e-05	3.15309e-05	3.7849e-05	4.86502e-05	4.68101e-05	1.35353	0.475475	22.9093	3.93835e-08	6.1019e-08	6.03607e-08	5.53987e-08	6.91582e-08	6.17562e-08	0.00046144	0.00162111	0.0016855	74.1113	6468.75	1841.3	6725.71	-15.8887	0.0000000E+000	0.0000000E+000	0.0000000E+000	15.8887	0.0000000E+000	0.0000000E+000	0.0000000E+000	-15.8887	0.0000000E+000	0.0000000E+000	0.0000000E+000	-74.1113	0.0000000E+000	0.0000000E+000	0.0000000E+000	74.1113	0.284645	15.8887	-7.61031e-06
19.9808	313.669	1002.46	1050.39	-72.6252	1122.87	-0.000217394	-0.0258151	7.94582	7.23725	3	40	0.00657661	6.26111e-06	0	-0.00569249	1.41303	0.880078	30.7262	2.872e-05	3.34544e-05	3.4629e-05	1.87311e-05	4.89529e-05	3.88516e-05	1.89361	1.20268	42.6238	3.66083e-08	3.09595e-08	5.22375e-08	3.02355e-08	6.56754e-08	5.57412e-08	0.000284296	0.000908588	0.000952027	72.6252	7237.25	2264.53	7583.27	-17.3748	0.0000000E+000	0.0000000E+000	0.0000000E+000	17.3748	0.0000000E+000	0.0000000E+000	0.0000000E+000	-17.3748	0.0000000E+000	0.0000000E+000	0.0000000E+000	-72.6252	0.0000000E+000	0.0000000E+000	0.0000000E+000	72.6252	0.312899	17.3748	-7.58679e-06
10.016	589.981	1754.25	1850.8	-71.4114	1126.42	-0.000223527	-0.0258182	9.058	8.13758	3	41	0.0066138	3.57347e-06	0	-0.00571761	1.8507	0.998323	34.7045	4.65341e-05	3.1975e-05	3.59084e-05	4.53932e-05	4.02823e-05	6.03271e-05	0.952698	0.342474	12.3595	8.5872e-09	1.15349e-08	7.73032e-09	2.41082e-08	8.72081e-09	1.23933e-08	0.000172233	0.000512119	0.000540306	71.4114	8137.58	2736.79	8585.46	-18.5886	0.0000000E+000	0.0000000E+000	0.0000000E+000	18.5886	0.0000000E+000	0.0000000E+000	0.0000000E+000	-18.5886	0.0000000E+000	0.0000000E+000	0.0000000E+000	-71.4114	0.0000000E+000	0.0000000E+000	0.0000000E+000	71.4114	0.336315	18.5886	-7.59381e-06
5.01766	1153.37	2956.46	3173.47	-68.6884	1130.63	-0.000196653	-0.0258199	10.7287	9.31155	3	41	0.00658253	2.07424e-06	0	-0.00574741	0.943075	0.559789	18.7558	2.24413e-05	1.66909e-05	2.17287e-05	2.11237e-05	2.6735e-05	2.98646e-05	0.692658	0.240552	11.8503	8.39505e-09	5.47343e-09	3.89529e-09	2.4616e-09	6.47899e-09	5.11586e-09	0.000114524	0.000293564	0.000315112	68.6884	9311.55	3632.59	9995.03	-21.3116	0.0000000E+000	0.0000000E+000	0.0000000E+000	21.3116	0.0000000E+000	0.0000000E+000	0.0000000E+000	-21.3116	0.0000000E+000	0.0000000E+000	0.0000000E+000	-68.6884	0.0000000E+000	0.0000000E+000	0.0000000E+000	68.6884	0.390117	21.3116	-1.14894e-05
2.51368	2157.27	4873.6	5329.71	-66.1237	1137.66	-0.000231018	-0.0257912	12.9915	10.8631	3	41	0.00658992	1.23645e-06	0	-0.00579752	0.600592	0.502851	13.3459	1.7506e-05	2.11142e-05	1.11337e-05	1.40224e-05	1.40772e-05	1.26776e-05	0.85753	0.473576	14.6336	6.50846e-09	4.19678e-09	2.98986e-09	4.23699e-09	2.18297e-09	2.8254e-09	7.59447e-05	0.000171571	0.000187628	66.1237	10863.1	4808.49	11879.8	-23.8763	0.0000000E+000	0.0000000E+000	0.0000000E+000	23.8763	0.0000000E+000	0.0000000E+000	0.0000000E+000	-23.8763	0.0000000E+000	0.0000000E+000	0.0000000E+000	-66.1237	0.0000000E+000	0.0000000E+000	0.0000000E+000	66.1237	0.442644	23.8763	-1.99791e-05
1.25968	3892.1	7819.24	8734.36	-63.5377	1150.49	-0.000199935	-0.0257808	16.1583	12.9498	3	41	0.00659032	7.54528e-07	0	-0.00588919	0.472993	0.260839	9.49365	9.62663e-06	1.48684e-05	1.66321e-05	9.1625e-06	6.35786e-06	1.21135e-05	0.967582	0.464013	17.9899	4.76923e-09	2.98808e-09	3.15652e-09	1.85115e-09	1.26202e-09	2.04041e-09	5.10179e-05	0.000102495	0.00011449	63.5377	12949.8	6445.9	14465.4	-26.4623	0.0000000E+000	0.0000000E+000	0.0000000E+000	26.4623	0.0000000E+000	0.0000000E+000	0.0000000E+000	-26.4623	0.0000000E+000	0.0000000E+000	0.0000000E+000	-63.5377	0.0000000E+000	0.0000000E+000	0.0000000E+000	63.5377	0.49776	26.4623	-3.71666e-05
0.631645	6533.28	12313.3	13939.2	-62.0502	1174.95	-0.000211278	-0.025842	20.4631	15.9678	3	41	0.00658851	4.7266e-07	0	-0.00606419	0.315284	0.230895	5.89008	4.94657e-06	6.65679e-06	3.84508e-06	9.68077e-06	9.67413e-06	9.32422e-06	1.08137	0.671143	21.1634	2.79089e-09	2.52856e-09	1.09506e-09	1.62973e-09	1.75576e-09	1.41031e-09	3.36244e-05	6.33722e-05	7.174e-05	62.0502	15967.8	8472.31	18076.3	-27.9498	0.0000000E+000	0.0000000E+000	0.0000000E+000	27.9498	0.0000000E+000	0.0000000E+000	0.0000000E+000	-27.9498	0.0000000E+000	0.0000000E+000	0.0000000E+000	-62.0502	0.0000000E+000	0.0000000E+000	0.0000000E+000	62.0502	0.530586	27.9498	-7.15248e-05
0.316193	10585.8	19731.8	22392	-61.7871	1222.72	-0.00020673	-0.0257908	25.5095	19.8083	3	41	0.00658895	2.94254e-07	0	-0.00640646	0.303498	0.180511	4.44376	5.63017e-06	8.95748e-06	1.00316e-05	6.12068e-06	5.96134e-06	7.33817e-06	1.74	2.52675	29.2256	1.87667e-09	2.7708e-09	1.88393e-09	1.94028e-09	1.20326e-09	1.45326e-09	2.11124e-05	3.93532e-05	4.46588e-05	61.7871	19808.3	10626.9	22478.9	-28.2129	0.0000000E+000	0.0000000E+000	0.0000000E+000	28.2129	0.0000000E+000	0.0000000E+000	0.0000000E+000	-28.2129	0.0000000E+000	0.0000000E+000	0.0000000E+000	-61.7871	0.0000000E+000	0.0000000E+000	0.0000000E+000	61.7871	0.536484	28.2129	-0.000140438
0.158419	17319.5	31548.5	35989.9	-61.2341	1317.1	-0.00022418	-0.02565	31.8445	24.4699	3	41	0.00658954	1.83094e-07	0	-0.00707947	0.177643	0.119656	3.28506	5.05506e-06	3.58263e-06	5.96536e-06	4.28441e-06	4.71659e-06	3.60668e-06	2.14879	7.38856	27.3551	2.7433e-09	1.67464e-09	9.33046e-10	7.10066e-10	1.14497e-09	9.80544e-10	1.33713e-05	2.43567e-05	2.77856e-05	61.2341	24469.8	13433.4	27914.7	-28.7659	0.0000000E+000	0.0000000E+000	0.0000000E+000	28.7659	0.0000000E+000	0.0000000E+000	0.0000000E+000	-28.7659	0.0000000E+000	0.0000000E+000	0.0000000E+000	-61.2341	0.0000000E+000	0.0000000E+000	0.0000000E+000	61.2341	0.548979	28.7659	-0.000276593
0.0999518	24628.2	40797.9	47655.1	-58.8822	1427.3	-0.000232033	-0.0257676	39.0294	28.6054	3	41	0.00658591	1.38199e-07	0	-0.00786647	0.203694	0.0851637	2.649	4.18236e-06	7.98313e-06	3.35535e-06	6.31353e-06	1.93431e-06	5.95569e-06	2.70249	5.3773	27.8489	1.85449e-09	1.86897e-09	1.16093e-09	1.61292e-09	8.52269e-10	1.22615e-09	1.08446e-05	1.79646e-05	2.09841e-05	58.8822	28605.4	17268	33413.3	-31.1178	0.0000000E+000	0.0000000E+000	0.0000000E+000	31.1178	0.0000000E+000	0.0000000E+000	0.0000000E+000	-31.1178	0.0000000E+000	0.0000000E+000	0.0000000E+000	-58.8822	0.0000000E+000	0.0000000E+000	0.0000000E+000	58.8822	0.603663	31.1178	-0.000438936