File: Python/Data/RDE/240223-OCV-EIS-Fe2Fe3_5mM-HCl1M-0RPM-Ag_AgCl_BLF8-GC-RDE-5minVsOCV-5ppf-3scans-14p1mVAmplitude-1MHz_100mHz_02_PEIS_C15.mpt
EC-Lab ASCII FILE
Nb header lines : 67

Potentio Electrochemical Impedance Spectroscopy

Run on channel : 15 (SN 19485)
User :
Electrode connection : standard
Potential control : Ewe
Ewe ctrl range : min = -1.00 V, max = 1.00 V
Ewe,I filtering : 50 kHz
Safety Limits :
	Do not start on E overload
Channel : Floating
Acquisition started on : 02/23/2024 11:36:28.401
Loaded Setting File :  NONE
Saved on :
	File : 240223-OCV-EIS-Fe2Fe3_5mM-HCl1M-0RPM-Ag_AgCl_BLF8-GC-RDE-5minVsOCV-5ppf-3scans-14p1mVAmplitude-1MHz_100mHz_02_PEIS_C15.mpr
	Directory : C:\Data\mathias\RDE-RPM-variation\
	Host : 192.168.0.1
Device : VMP-300 (SN 0826)
Address : USB
EC-Lab for windows v11.52 (software)
Internet server v11.52 (firmware)
Command interpretor v11.52 (firmware)
Electrode material :
Initial state :
Electrolyte :
Comments :
Cable : special
Reference electrode : SCE Saturated Calomel Electrode (0.241 V)
Electrode surface area : 0.001 cm²
Characteristic mass : 0.001 g
Equivalent Weight : 0.000 g/eq.
Density : 0.000 g/cm3
Volume (V) : 0.001 cm³
Record EIS quality indicators
Cycle Definition : Charge/Discharge alternance
Mode                Single sine
E (V)               0.0000
vs.                 Ref
tE (h:m:s)          0:05:0.0000
record              0
dI                  0.000
unit dI             mA
dt (s)              0.000
fi                  1.000
unit fi             MHz
ff                  100.000
unit ff             mHz
Nd                  10
Points              per decade
spacing             Logarithmic
Va (mV)             14.1
pw                  0.10
Na                  5
corr                0
E range min (V)     -1.000
E range max (V)     1.000
I Range             Auto
Bandwidth           8
nc cycles           2
goto Ns'            0
nr cycles           0
inc. cycle          1

freq/Hz	Re(Z)/Ohm	-Im(Z)/Ohm	|Z|/Ohm	Phase(Z)/deg	time/s	<Ewe>/V	<I>/mA	Cs/µF	Cp/µF	cycle number	I Range	|Ewe|/V	|I|/A	Ns	(Q-Qo)/mA.h	THD Ewe/%	NSD Ewe/%	NSR Ewe/%	|Ewe h2|/V	|Ewe h3|/V	|Ewe h4|/V	|Ewe h5|/V	|Ewe h6|/V	|Ewe h7|/V	THD I/%	NSD I/%	NSR I/%	|I h2|/A	|I h3|/A	|I h4|/A	|I h5|/A	|I h6|/A	|I h7|/A	Re(Y)/Ohm-1	Im(Y)/Ohm-1	|Y|/Ohm-1	Phase(Y)/deg	Re(C)/nF	Im(C)/nF	|C|/nF	Phase(C)/deg	Re(M)	Im(M)	|M|	Phase(M)/deg	Re(Permittivity)	Im(Permittivity)	|Permittivity|	Phase(Permittivity)/deg	Re(Resistivity)/Ohm.cm	Im(Resistivity)/Ohm.cm	|Resistivity|/Ohm.cm	Phase(Resistivity)/deg	Re(Conductivity)/mS/cm	Im(Conductivity)/mS/cm	|Conductivity|/mS/cm	Phase(Conductivity)/deg	Tan(Delta)	Loss Angle(Delta)/deg	dq/mA.h
1.00002e+06	4.16867	3.97429	5.75958	-43.6326	363.398	-0.000162795	-0.0224887	0.0400454	0.0190673	1	38	0.0116598	0.00202441	0	-0.00184423	-1	-1	-1	0	0	0	0	0	0	-1	-1	-1	0	0	0	0	0	0	0.125665	0.119806	0.173624	43.6326	19.0673	19.9999	27.6326	-46.3674	0.0000000E+000	0.0000000E+000	0.0000000E+000	46.3674	0.0000000E+000	0.0000000E+000	0.0000000E+000	-46.3674	0.0000000E+000	0.0000000E+000	0.0000000E+000	-43.6326	0.0000000E+000	0.0000000E+000	0.0000000E+000	43.6326	1.04891	46.3674	-0.00184423
501206	4.01696	1.87053	4.43112	-24.9694	368.702	-0.000182722	-0.0225129	0.169761	0.0302511	1	38	0.0145784	0.00329	0	-0.00188247	-1	-1	-1	0	0	0	0	0	0	-1	-1	-1	0	0	0	0	0	0	0.204583	0.0952658	0.225676	24.9694	30.2511	64.9641	71.6621	-65.0306	0.0000000E+000	0.0000000E+000	0.0000000E+000	65.0306	0.0000000E+000	0.0000000E+000	0.0000000E+000	-65.0306	0.0000000E+000	0.0000000E+000	0.0000000E+000	-24.9694	0.0000000E+000	0.0000000E+000	0.0000000E+000	24.9694	2.1475	65.0306	-1.33491e-05
251188	3.84543	1.10754	4.00174	-16.0671	374.141	-0.000144527	-0.0227437	0.572089	0.043821	1	38	0.0145911	0.00364618	0	-0.00192581	-1	-1	-1	0	0	0	0	0	0	-1	-1	-1	0	0	0	0	0	0	0.24013	0.0691608	0.249891	16.0671	43.821	152.149	158.334	-73.9329	0.0000000E+000	0.0000000E+000	0.0000000E+000	73.9329	0.0000000E+000	0.0000000E+000	0.0000000E+000	-73.9329	0.0000000E+000	0.0000000E+000	0.0000000E+000	-16.0671	0.0000000E+000	0.0000000E+000	0.0000000E+000	16.0671	3.47205	73.9329	-1.16627e-05
125909	3.82877	1.00788	3.95921	-14.7478	379.582	-0.000163485	-0.023023	1.25417	0.0812744	1	38	0.0145957	0.00368651	0	-0.00196011	-1	-1	-1	0	0	0	0	0	0	-1	-1	-1	0	0	0	0	0	0	0.244255	0.0642971	0.252576	14.7478	81.2743	308.749	319.267	-75.2522	0.0000000E+000	0.0000000E+000	0.0000000E+000	75.2522	0.0000000E+000	0.0000000E+000	0.0000000E+000	-75.2522	0.0000000E+000	0.0000000E+000	0.0000000E+000	-14.7478	0.0000000E+000	0.0000000E+000	0.0000000E+000	14.7478	3.79885	75.2522	-1.0243e-05
63093.8	3.90129	1.33087	4.12205	-18.8363	385.022	-0.000155208	-0.0231217	1.89539	0.197579	1	38	0.0145839	0.00353803	0	-0.00200013	0.528235	0.2725	8.81125	3.42579e-05	3.69062e-05	2.54166e-05	3.71967e-05	1.81111e-05	2.52164e-05	0.0630676	0.0425832	0.808336	1.02631e-06	1.23637e-06	8.07275e-07	7.75044e-07	4.86493e-07	7.06307e-07	0.229605	0.0783264	0.242598	18.8363	197.579	579.183	611.956	-71.1637	0.0000000E+000	0.0000000E+000	0.0000000E+000	71.1637	0.0000000E+000	0.0000000E+000	0.0000000E+000	-71.1637	0.0000000E+000	0.0000000E+000	0.0000000E+000	-18.8363	0.0000000E+000	0.0000000E+000	0.0000000E+000	18.8363	2.93139	71.1637	-1.24174e-05
31621.1	4.03895	2.21204	4.60503	-28.7085	390.463	-0.000154015	-0.0233954	2.27535	0.525015	1	38	0.0146547	0.00318232	0	-0.00203316	0.449793	0.261428	8.84703	2.13137e-05	3.33899e-05	2.30047e-05	2.23504e-05	1.83464e-05	2.72325e-05	0.0555321	0.0615968	0.903264	3.79281e-07	1.14138e-06	6.83392e-07	6.41504e-07	4.08612e-07	5.48155e-07	0.19046	0.104311	0.217154	28.7085	525.015	958.621	1092.98	-61.2915	0.0000000E+000	0.0000000E+000	0.0000000E+000	61.2915	0.0000000E+000	0.0000000E+000	0.0000000E+000	-61.2915	0.0000000E+000	0.0000000E+000	0.0000000E+000	-28.7085	0.0000000E+000	0.0000000E+000	0.0000000E+000	28.7085	1.82589	61.2915	-1.10138e-05
15847.7	4.27985	4.0187	5.87086	-43.1976	395.902	-0.000200282	-0.023509	2.49901	1.17094	1	38	0.0147872	0.00251874	0	-0.00206685	0.470758	0.246813	8.89354	2.3614e-05	2.51744e-05	2.77538e-05	3.22586e-05	1.6848e-05	2.83914e-05	0.0899592	0.0392449	1.13825	1.23375e-06	8.2228e-07	5.58757e-07	8.20592e-07	6.67738e-07	8.26978e-07	0.124172	0.116595	0.170333	43.1976	1170.94	1247.03	1710.62	-46.8024	0.0000000E+000	0.0000000E+000	0.0000000E+000	46.8024	0.0000000E+000	0.0000000E+000	0.0000000E+000	-46.8024	0.0000000E+000	0.0000000E+000	0.0000000E+000	-43.1976	0.0000000E+000	0.0000000E+000	0.0000000E+000	43.1976	1.06498	46.8024	-9.32151e-06
7944	4.78756	7.52663	8.92025	-57.5402	401.357	-0.000305322	-0.0232577	2.66183	1.89508	1	38	0.0145006	0.00162559	0	-0.00210741	0.481523	0.260624	9.07344	2.45022e-05	1.43146e-05	2.2847e-05	2.68031e-05	3.04807e-05	2.9477e-05	0.210789	0.0805138	1.80119	3.10826e-06	5.9298e-07	6.56811e-07	6.3586e-07	5.59585e-07	5.00689e-07	0.0601673	0.0945902	0.112104	57.5402	1895.08	1205.43	2245.97	-32.4598	0.0000000E+000	0.0000000E+000	0.0000000E+000	32.4598	0.0000000E+000	0.0000000E+000	0.0000000E+000	-32.4598	0.0000000E+000	0.0000000E+000	0.0000000E+000	-57.5402	0.0000000E+000	0.0000000E+000	0.0000000E+000	57.5402	0.636084	32.4598	-1.16178e-05
3981.28	5.86079	14.1096	15.2784	-67.4432	406.762	-0.000303365	-0.0231646	2.83323	2.41633	1	38	0.0130783	0.000855998	0	-0.00214177	0.513114	0.391484	9.99654	2.33188e-05	2.75588e-05	2.77928e-05	2.02698e-05	2.87865e-05	2.50892e-05	0.416403	0.144041	3.39155	2.96341e-06	1.49996e-06	6.29813e-07	6.02841e-07	4.16297e-07	7.371e-07	0.0251073	0.0604447	0.0654518	67.4432	2416.33	1003.68	2616.49	-22.5568	0.0000000E+000	0.0000000E+000	0.0000000E+000	22.5568	0.0000000E+000	0.0000000E+000	0.0000000E+000	-22.5568	0.0000000E+000	0.0000000E+000	0.0000000E+000	-67.4432	0.0000000E+000	0.0000000E+000	0.0000000E+000	67.4432	0.415376	22.5568	-1.22869e-05
1995.64	8.23117	26.2568	27.5168	-72.5945	412.476	-0.000306963	-0.0225372	3.03736	2.76557	1	38	0.0133312	0.000484474	0	-0.00217865	0.590955	0.230644	9.63815	2.37823e-05	2.23941e-05	3.18952e-05	2.6916e-05	3.23888e-05	3.94507e-05	0.668143	0.115465	5.87707	1.60223e-06	2.05989e-06	7.52411e-07	1.36581e-06	4.91977e-07	7.84509e-07	0.0108709	0.0346774	0.0363415	72.5945	2765.57	866.971	2898.28	-17.4055	0.0000000E+000	0.0000000E+000	0.0000000E+000	17.4055	0.0000000E+000	0.0000000E+000	0.0000000E+000	-17.4055	0.0000000E+000	0.0000000E+000	0.0000000E+000	-72.5945	0.0000000E+000	0.0000000E+000	0.0000000E+000	72.5945	0.313487	17.4055	-1.19826e-05
999.682	13.3593	48.5013	50.3075	-74.6002	418.229	-0.000306944	-0.0186443	3.2825	3.05103	1	39	0.0139809	0.00027791	0	-0.0022105	0.478892	0.325042	9.03078	3.39949e-05	3.14871e-05	1.38214e-05	2.22958e-05	2.44671e-05	2.23546e-05	0.846722	0.185509	4.87025	1.5731e-06	1.56919e-06	1.85538e-07	5.99305e-07	2.58478e-07	2.85896e-07	0.00527859	0.0191641	0.0198777	74.6002	3051.03	840.381	3164.65	-15.3998	0.0000000E+000	0.0000000E+000	0.0000000E+000	15.3998	0.0000000E+000	0.0000000E+000	0.0000000E+000	-15.3998	0.0000000E+000	0.0000000E+000	0.0000000E+000	-74.6002	0.0000000E+000	0.0000000E+000	0.0000000E+000	74.6002	0.275442	15.3998	-9.62864e-06
501.122	24.0652	87.8389	91.0758	-74.6787	423.719	-0.000271974	-0.018544	3.61568	3.36324	1	39	0.0131685	0.000144588	0	-0.00223861	0.591903	0.253241	9.40624	3.6682e-05	3.19785e-05	2.85718e-05	2.88531e-05	2.40568e-05	2.17014e-05	0.891973	0.253295	9.08536	8.8601e-07	4.58212e-07	2.70506e-07	5.56337e-07	2.49056e-07	3.07973e-07	0.00290123	0.0105896	0.0109799	74.6787	3363.24	921.423	3487.17	-15.3213	0.0000000E+000	0.0000000E+000	0.0000000E+000	15.3213	0.0000000E+000	0.0000000E+000	0.0000000E+000	-15.3213	0.0000000E+000	0.0000000E+000	0.0000000E+000	-74.6787	0.0000000E+000	0.0000000E+000	0.0000000E+000	74.6787	0.273969	15.3213	-9.30934e-06
251.206	45.4083	155.942	162.419	-73.7652	429.21	-0.000265338	-0.0182197	4.06281	3.74525	1	39	0.012941	7.96765e-05	0	-0.00226655	0.468502	0.296978	9.44582	1.73089e-05	2.72516e-05	2.0887e-05	2.57775e-05	1.42658e-05	2.49458e-05	0.995136	0.646221	16.6847	3.21231e-07	3.0945e-07	2.4969e-07	4.37701e-07	1.96283e-07	2.60643e-07	0.00172132	0.00591141	0.00615692	73.7652	3745.25	1090.57	3900.8	-16.2348	0.0000000E+000	0.0000000E+000	0.0000000E+000	16.2348	0.0000000E+000	0.0000000E+000	0.0000000E+000	-16.2348	0.0000000E+000	0.0000000E+000	0.0000000E+000	-73.7652	0.0000000E+000	0.0000000E+000	0.0000000E+000	73.7652	0.291187	16.2348	-9.27601e-06
125.927	86.2824	272.568	285.899	-72.4346	434.963	-0.000288564	-0.0179373	4.6369	4.21457	1	40	0.0131609	4.60335e-05	0	-0.00229502	0.754433	0.451676	14.7537	5.12974e-05	3.00124e-05	3.08483e-05	4.1386e-05	3.92396e-05	3.38924e-05	0.864906	0.163304	5.6015	2.3144e-07	1.82107e-07	4.41313e-08	2.32186e-07	6.74943e-08	8.02339e-08	0.0010556	0.00333466	0.00349774	72.4346	4214.57	1334.14	4420.69	-17.5654	0.0000000E+000	0.0000000E+000	0.0000000E+000	17.5654	0.0000000E+000	0.0000000E+000	0.0000000E+000	-17.5654	0.0000000E+000	0.0000000E+000	0.0000000E+000	-72.4346	0.0000000E+000	0.0000000E+000	0.0000000E+000	72.4346	0.316554	17.5654	-1.02426e-05
63.0823	159.679	468.727	495.179	-71.1878	440.308	-0.000313785	-0.0181156	5.38261	4.8229	1	40	0.0129359	2.61238e-05	0	-0.00232163	0.807326	0.465714	14.8485	3.01414e-05	4.43809e-05	3.79278e-05	4.09106e-05	3.30892e-05	5.01225e-05	0.791838	0.26966	9.83142	1.33872e-07	9.07982e-08	5.13016e-08	7.43314e-08	4.97291e-08	6.83488e-08	0.000651213	0.00191159	0.00201947	71.1878	4822.9	1642.99	5095.08	-18.8122	0.0000000E+000	0.0000000E+000	0.0000000E+000	18.8122	0.0000000E+000	0.0000000E+000	0.0000000E+000	-18.8122	0.0000000E+000	0.0000000E+000	0.0000000E+000	-71.1878	0.0000000E+000	0.0000000E+000	0.0000000E+000	71.1878	0.340665	18.8122	-8.96704e-06
31.6296	298.065	798.905	852.697	-69.5399	445.565	-0.000317811	-0.0182961	6.29842	5.52882	1	40	0.0128719	1.50955e-05	0	-0.00234819	0.720537	0.370965	15.1069	3.71685e-05	3.22028e-05	4.29421e-05	3.61808e-05	3.08311e-05	3.6758e-05	1.00284	0.44692	17.4091	6.73743e-08	5.38552e-08	5.40736e-08	7.76196e-08	5.16741e-08	4.00557e-08	0.000409941	0.00109877	0.00117275	69.5399	5528.82	2062.76	5901.09	-20.4601	0.0000000E+000	0.0000000E+000	0.0000000E+000	20.4601	0.0000000E+000	0.0000000E+000	0.0000000E+000	-20.4601	0.0000000E+000	0.0000000E+000	0.0000000E+000	-69.5399	0.0000000E+000	0.0000000E+000	0.0000000E+000	69.5399	0.373092	20.4601	-8.757e-06
15.8469	527.099	1351.23	1450.4	-68.6899	451.068	-0.000298891	-0.0181862	7.43269	6.45105	1	41	0.0129031	8.89624e-06	0	-0.00237574	1.17542	0.57008	19.3112	3.7719e-05	8.39992e-05	5.93094e-05	3.83245e-05	4.74485e-05	6.5878e-05	0.703104	0.163116	5.54067	4.03329e-08	3.41972e-08	1.1571e-08	2.15112e-08	9.92889e-09	1.42434e-08	0.000250562	0.000642323	0.000689464	68.6899	6451.05	2516.47	6924.5	-21.3101	0.0000000E+000	0.0000000E+000	0.0000000E+000	21.3101	0.0000000E+000	0.0000000E+000	0.0000000E+000	-21.3101	0.0000000E+000	0.0000000E+000	0.0000000E+000	-68.6899	0.0000000E+000	0.0000000E+000	0.0000000E+000	68.6899	0.390087	21.3101	-9.76489e-06
7.93956	939.314	2261.75	2449.04	-67.4467	456.755	-0.000259671	-0.0182215	8.86297	7.55918	1	41	0.0128667	5.25376e-06	0	-0.00240422	0.665559	0.374951	13.8447	5.18896e-05	3.06001e-05	2.61561e-05	1.55104e-05	3.4468e-05	1.96151e-05	0.695092	0.227109	6.80489	2.66221e-08	1.52443e-08	4.60949e-09	1.12563e-08	1.31319e-08	3.89771e-09	0.000156609	0.000377095	0.000408323	67.4467	7559.18	3139.36	8185.16	-22.5533	0.0000000E+000	0.0000000E+000	0.0000000E+000	22.5533	0.0000000E+000	0.0000000E+000	0.0000000E+000	-22.5533	0.0000000E+000	0.0000000E+000	0.0000000E+000	-67.4467	0.0000000E+000	0.0000000E+000	0.0000000E+000	67.4467	0.415304	22.5533	-9.93317e-06
3.9819	1681.36	3741.16	4101.61	-65.7998	464.893	-0.000283522	-0.0181806	10.6837	8.88845	1	41	0.0128662	3.13686e-06	0	-0.00244518	0.532122	0.293551	9.6004	2.00852e-05	2.61717e-05	2.9354e-05	2.21436e-05	2.60414e-05	2.50353e-05	0.808441	0.285645	8.11574	1.78638e-08	1.23976e-08	5.80276e-09	7.12578e-09	5.07202e-09	4.16215e-09	9.99426e-05	0.000222381	0.000243807	65.7998	8888.46	3994.66	9744.84	-24.2002	0.0000000E+000	0.0000000E+000	0.0000000E+000	24.2002	0.0000000E+000	0.0000000E+000	0.0000000E+000	-24.2002	0.0000000E+000	0.0000000E+000	0.0000000E+000	-65.7998	0.0000000E+000	0.0000000E+000	0.0000000E+000	65.7998	0.449421	24.2002	-1.6042e-05
1.99553	2975.38	6096.33	6783.66	-63.9848	479.022	-0.000261224	-0.0181032	13.0826	10.5658	1	41	0.0128578	1.8954e-06	0	-0.00251591	0.300015	0.182538	6.43454	1.39895e-05	1.98755e-05	1.26883e-05	1.41724e-05	1.34311e-05	1.12831e-05	0.949244	0.492979	9.30317	1.51798e-08	5.448e-09	2.98593e-09	4.87757e-09	3.02176e-09	2.27252e-09	6.46567e-05	0.000132477	0.000147413	63.9848	10565.8	5156.73	11757	-26.0152	0.0000000E+000	0.0000000E+000	0.0000000E+000	26.0152	0.0000000E+000	0.0000000E+000	0.0000000E+000	-26.0152	0.0000000E+000	0.0000000E+000	0.0000000E+000	-63.9848	0.0000000E+000	0.0000000E+000	0.0000000E+000	63.9848	0.488061	26.0152	-2.83501e-05
1.00006	5182.39	9766.35	11056.2	-62.0479	505.313	-0.000282264	-0.0182846	16.2952	12.715	1	41	0.012861	1.16324e-06	0	-0.00264806	0.327893	0.1597	4.60558	1.81311e-05	1.21085e-05	1.49147e-05	1.39511e-05	1.91689e-05	1.48915e-05	1.4059	1.70417	12.0777	1.30677e-08	3.83768e-09	4.61546e-09	3.4814e-09	4.56932e-09	2.1825e-09	4.23956e-05	7.98957e-05	9.04473e-05	62.0479	12715	6747.05	14394.2	-27.9521	0.0000000E+000	0.0000000E+000	0.0000000E+000	27.9521	0.0000000E+000	0.0000000E+000	0.0000000E+000	-27.9521	0.0000000E+000	0.0000000E+000	0.0000000E+000	-62.0479	0.0000000E+000	0.0000000E+000	0.0000000E+000	62.0479	0.530637	27.9521	-5.38511e-05
0.500946	8720.71	15541.7	17821.2	-60.7024	555.839	-0.000245025	-0.0179404	20.4424	15.5473	1	41	0.0128629	7.21777e-07	0	-0.00290366	0.232863	0.100122	3.21566	9.3459e-06	1.75231e-05	7.55783e-06	1.36404e-05	8.68671e-06	7.52082e-06	1.97601	3.08857	16.9789	1.19567e-08	4.34919e-09	3.41311e-09	2.51805e-09	2.7226e-09	1.82061e-09	2.74586e-05	4.89356e-05	5.6113e-05	60.7024	15547.3	8723.85	17827.6	-29.2976	0.0000000E+000	0.0000000E+000	0.0000000E+000	29.2976	0.0000000E+000	0.0000000E+000	0.0000000E+000	-29.2976	0.0000000E+000	0.0000000E+000	0.0000000E+000	-60.7024	0.0000000E+000	0.0000000E+000	0.0000000E+000	60.7024	0.561118	29.2975	-0.000104037
0.251222	14492.2	24487.5	28454.5	-59.3821	655.016	-0.000237644	-0.0179068	25.8714	19.1604	1	41	0.0128644	4.52103e-07	0	-0.00339542	0.137444	0.0809382	2.25579	5.13516e-06	1.20437e-05	4.12771e-06	7.4709e-06	4.07291e-06	5.65712e-06	3.64452	9.94929	19.4684	1.26678e-08	5.75671e-09	5.32571e-09	4.09949e-09	3.21185e-09	1.95731e-09	1.78991e-05	3.02442e-05	3.51438e-05	59.3821	19160.4	11339.5	22264.5	-30.6179	0.0000000E+000	0.0000000E+000	0.0000000E+000	30.6179	0.0000000E+000	0.0000000E+000	0.0000000E+000	-30.6179	0.0000000E+000	0.0000000E+000	0.0000000E+000	-59.3821	0.0000000E+000	0.0000000E+000	0.0000000E+000	59.3821	0.591819	30.6179	-0.000201846
0.125939	23472.1	40195.9	46547.3	-59.7175	851.34	-0.000241304	-0.0178872	31.4398	23.4452	1	41	0.0128647	2.7638e-07	0	-0.00436174	0.123961	0.0485401	1.56263	3.79415e-06	8.92918e-06	3.46183e-06	1.00373e-05	3.66356e-06	3.57809e-06	6.29588	20.2114	19.153	1.26567e-08	8.16193e-09	5.294e-09	4.05954e-09	3.52133e-09	2.86966e-09	1.08334e-05	1.85521e-05	2.14835e-05	59.7175	23445.2	13690.7	27149.8	-30.2825	0.0000000E+000	0.0000000E+000	0.0000000E+000	30.2825	0.0000000E+000	0.0000000E+000	0.0000000E+000	-30.2825	0.0000000E+000	0.0000000E+000	0.0000000E+000	-59.7175	0.0000000E+000	0.0000000E+000	0.0000000E+000	59.7175	0.583944	30.2825	-0.000398546
794333	4.15943	3.07512	5.17274	-36.476	958.134	-0.000171128	-0.020718	0.0651562	0.0230271	2	38	0.0146628	0.00283462	0	-0.00490212	-1	-1	-1	0	0	0	0	0	0	-1	-1	-1	0	0	0	0	0	0	0.155451	0.114927	0.193321	36.476	23.0271	31.1466	38.7344	-53.524	0.0000000E+000	0.0000000E+000	0.0000000E+000	53.524	0.0000000E+000	0.0000000E+000	0.0000000E+000	-53.524	0.0000000E+000	0.0000000E+000	0.0000000E+000	-36.476	0.0000000E+000	0.0000000E+000	0.0000000E+000	36.476	1.35261	53.524	-8.60766e-06
398103	3.93876	1.51046	4.21845	-20.9812	963.573	-0.000160223	-0.020407	0.264676	0.0339335	2	38	0.0145413	0.00344708	0	-0.00492972	-1	-1	-1	0	0	0	0	0	0	-1	-1	-1	0	0	0	0	0	0	0.221337	0.0848798	0.237054	20.9812	33.9335	88.4867	94.7701	-69.0188	0.0000000E+000	0.0000000E+000	0.0000000E+000	69.0188	0.0000000E+000	0.0000000E+000	0.0000000E+000	-69.0188	0.0000000E+000	0.0000000E+000	0.0000000E+000	-20.9812	0.0000000E+000	0.0000000E+000	0.0000000E+000	20.9812	2.60765	69.0188	-1.66923e-05
199544	3.82909	1.01607	3.9616	-14.8612	969.011	-0.000168294	-0.0208986	0.784984	0.0516371	2	38	0.0145882	0.00368241	0	-0.0049655	-1	-1	-1	0	0	0	0	0	0	-1	-1	-1	0	0	0	0	0	0	0.243979	0.064741	0.252423	14.8612	51.6371	194.597	201.331	-75.1388	0.0000000E+000	0.0000000E+000	0.0000000E+000	75.1388	0.0000000E+000	0.0000000E+000	0.0000000E+000	-75.1388	0.0000000E+000	0.0000000E+000	0.0000000E+000	-14.8612	0.0000000E+000	0.0000000E+000	0.0000000E+000	14.8612	3.76855	75.1388	-8.62508e-06
100004	3.85134	1.04785	3.99135	-15.2203	974.452	-0.000170867	-0.0209135	1.51882	0.10468	2	38	0.0145777	0.00365233	0	-0.00499781	0.471947	0.349897	8.94599	2.82207e-05	2.53821e-05	2.60821e-05	2.05791e-05	3.11752e-05	2.07587e-05	0.0816865	0.0272078	0.778387	2.05126e-06	1.26262e-06	9.16709e-07	8.70606e-07	8.24946e-07	5.80745e-07	0.241754	0.0657749	0.250542	15.2203	104.68	384.749	398.735	-74.7797	0.0000000E+000	0.0000000E+000	0.0000000E+000	74.7797	0.0000000E+000	0.0000000E+000	0.0000000E+000	-74.7797	0.0000000E+000	0.0000000E+000	0.0000000E+000	-15.2203	0.0000000E+000	0.0000000E+000	0.0000000E+000	15.2203	3.67548	74.7797	-1.15984e-05
50122.5	3.94029	1.52907	4.22657	-21.2092	979.891	-0.000169208	-0.0195989	2.07664	0.271792	2	38	0.0145961	0.0034534	0	-0.00502729	0.452292	0.337817	8.9474	4.0932e-05	1.72306e-05	2.08273e-05	1.84981e-05	2.08206e-05	1.84659e-05	0.0740358	0.0297292	0.83514	1.24829e-06	1.28889e-06	1.0304e-06	1.01092e-06	6.35442e-07	6.52148e-07	0.220572	0.0855952	0.236598	21.2092	271.792	700.388	751.275	-68.7908	0.0000000E+000	0.0000000E+000	0.0000000E+000	68.7908	0.0000000E+000	0.0000000E+000	0.0000000E+000	-68.7908	0.0000000E+000	0.0000000E+000	0.0000000E+000	-21.2092	0.0000000E+000	0.0000000E+000	0.0000000E+000	21.2092	2.57693	68.7908	-8.21005e-06
25116.9	4.08967	2.63632	4.86575	-32.807	985.329	-0.000154854	-0.0192229	2.40357	0.705589	2	38	0.0146509	0.00301101	0	-0.00506044	0.516552	0.2487	8.9691	3.29524e-05	2.89278e-05	2.85542e-05	1.84141e-05	3.35971e-05	3.08069e-05	0.0643375	0.0598975	0.947436	6.29974e-07	1.00341e-06	6.24772e-07	7.14912e-07	7.85766e-07	5.52412e-07	0.172738	0.111352	0.205518	32.807	705.589	1094.57	1302.28	-57.193	0.0000000E+000	0.0000000E+000	0.0000000E+000	57.193	0.0000000E+000	0.0000000E+000	0.0000000E+000	-57.193	0.0000000E+000	0.0000000E+000	0.0000000E+000	-32.807	0.0000000E+000	0.0000000E+000	0.0000000E+000	32.807	1.55128	57.193	-1.12894e-05
12590.9	4.38032	4.87368	6.55286	-48.0517	990.769	-0.00014641	-0.0194165	2.59361	1.43469	2	38	0.0147724	0.00225435	0	-0.00508635	0.54422	0.248575	8.90006	3.06765e-05	3.14215e-05	3.40033e-05	3.02074e-05	2.16411e-05	3.54677e-05	0.100699	0.0474246	1.2981	1.56664e-06	7.48631e-07	6.70019e-07	6.24218e-07	6.1746e-07	6.55207e-07	0.10201	0.1135	0.152605	48.0517	1434.69	1289.46	1929	-41.9483	0.0000000E+000	0.0000000E+000	0.0000000E+000	41.9483	0.0000000E+000	0.0000000E+000	0.0000000E+000	-41.9483	0.0000000E+000	0.0000000E+000	0.0000000E+000	-48.0517	0.0000000E+000	0.0000000E+000	0.0000000E+000	48.0517	0.89877	41.9483	-9.62015e-06
6307.74	4.98642	9.16753	10.4359	-61.4573	996.14	-0.000291192	-0.0188356	2.75229	2.12392	2	38	0.0144085	0.00138066	0	-0.00511729	0.528264	0.345501	9.24614	1.72163e-05	2.91111e-05	3.04422e-05	1.92244e-05	3.10558e-05	3.70733e-05	0.269917	0.0641366	2.08994	3.35948e-06	5.95924e-07	4.98989e-07	6.54238e-07	6.37359e-07	7.1537e-07	0.0457856	0.0841768	0.0958231	61.4573	2123.92	1155.25	2417.78	-28.5427	0.0000000E+000	0.0000000E+000	0.0000000E+000	28.5427	0.0000000E+000	0.0000000E+000	0.0000000E+000	-28.5427	0.0000000E+000	0.0000000E+000	0.0000000E+000	-61.4573	0.0000000E+000	0.0000000E+000	0.0000000E+000	61.4573	0.543922	28.5427	-9.90907e-06
3163.04	6.34916	17.2242	18.3571	-69.7651	1001.87	-0.000275348	-0.0187854	2.92131	2.57185	2	38	0.0139459	0.000759702	0	-0.00514727	0.490649	0.279083	9.41696	2.04317e-05	2.01093e-05	2.06671e-05	3.38386e-05	2.46933e-05	2.24988e-05	0.522856	0.141112	3.81679	2.76086e-06	2.30244e-06	5.95422e-07	9.69593e-07	9.51653e-07	5.26305e-07	0.0188412	0.0511128	0.0544748	69.7651	2571.85	948.034	2741.01	-20.2349	0.0000000E+000	0.0000000E+000	0.0000000E+000	20.2349	0.0000000E+000	0.0000000E+000	0.0000000E+000	-20.2349	0.0000000E+000	0.0000000E+000	0.0000000E+000	-69.7651	0.0000000E+000	0.0000000E+000	0.0000000E+000	69.7651	0.36862	20.2349	-1.153e-05
1584.49	9.24599	32.0078	33.3164	-73.8877	1007.36	-0.000304502	-0.0194854	3.13816	2.89646	2	38	0.0131581	0.000394944	0	-0.00517621	0.581268	0.352639	10.0299	3.5625e-05	3.86311e-05	1.96079e-05	3.05907e-05	2.41622e-05	1.75249e-05	0.654935	0.229829	7.42187	1.08222e-06	1.48219e-06	6.75767e-07	1.16656e-06	5.29796e-07	9.1268e-07	0.00832983	0.0288362	0.0300152	73.8877	2896.46	836.693	3014.89	-16.1123	0.0000000E+000	0.0000000E+000	0.0000000E+000	16.1123	0.0000000E+000	0.0000000E+000	0.0000000E+000	-16.1123	0.0000000E+000	0.0000000E+000	0.0000000E+000	-73.8877	0.0000000E+000	0.0000000E+000	0.0000000E+000	73.8877	0.288867	16.1123	-1.01565e-05
794.239	15.5802	58.9665	60.9901	-75.1995	1013.12	-0.000311362	-0.0173439	3.39831	3.17655	2	39	0.0135703	0.000222501	0	-0.00520325	0.442182	0.230819	9.15396	1.91553e-05	2.33676e-05	2.97463e-05	1.23949e-05	2.56869e-05	2.52545e-05	0.835591	0.169176	5.92989	9.40962e-07	9.89026e-07	4.13257e-07	1.08885e-06	2.56721e-07	2.88906e-07	0.00418846	0.0158521	0.0163961	75.1995	3176.55	839.311	3285.56	-14.8005	0.0000000E+000	0.0000000E+000	0.0000000E+000	14.8005	0.0000000E+000	0.0000000E+000	0.0000000E+000	-14.8005	0.0000000E+000	0.0000000E+000	0.0000000E+000	-75.1995	0.0000000E+000	0.0000000E+000	0.0000000E+000	75.1995	0.264221	14.8005	-8.79807e-06
398.089	28.6816	106.805	110.589	-74.9684	1018.61	-0.00027216	-0.0174166	3.74323	3.49145	2	39	0.013061	0.000118103	0	-0.0052297	0.64558	0.221654	9.33934	4.56616e-05	2.62991e-05	3.04824e-05	3.25001e-05	1.7506e-05	2.68709e-05	0.926705	0.308512	10.9689	3.39418e-07	5.30578e-07	2.5882e-07	6.47614e-07	2.47962e-07	3.8602e-07	0.00234518	0.00873305	0.00904245	74.9684	3491.45	937.598	3615.15	-15.0316	0.0000000E+000	0.0000000E+000	0.0000000E+000	15.0316	0.0000000E+000	0.0000000E+000	0.0000000E+000	-15.0316	0.0000000E+000	0.0000000E+000	0.0000000E+000	-74.9684	0.0000000E+000	0.0000000E+000	0.0000000E+000	74.9684	0.268541	15.0316	-8.82014e-06
199.553	55.2793	189.086	197.001	-73.7037	1024.1	-0.000245169	-0.0174172	4.21795	3.88583	2	39	0.0129167	6.55666e-05	0	-0.00525601	0.433267	0.284274	9.61338	1.84794e-05	2.0491e-05	1.7328e-05	1.95335e-05	2.95516e-05	2.13184e-05	1.12338	0.680012	19.9004	2.96298e-07	4.15135e-07	2.51141e-07	1.67772e-07	2.63883e-07	2.40505e-07	0.00142438	0.00487218	0.00507612	73.7037	3885.83	1136.02	4048.49	-16.2963	0.0000000E+000	0.0000000E+000	0.0000000E+000	16.2963	0.0000000E+000	0.0000000E+000	0.0000000E+000	-16.2963	0.0000000E+000	0.0000000E+000	0.0000000E+000	-73.7037	0.0000000E+000	0.0000000E+000	0.0000000E+000	73.7037	0.29235	16.2963	-8.82789e-06
99.9682	104.896	330.042	346.31	-72.3683	1029.8	-0.000252476	-0.0174886	4.82381	4.38124	2	40	0.0130515	3.76872e-05	0	-0.0052833	0.743909	0.462202	14.3605	4.4442e-05	4.06443e-05	3.13469e-05	3.64972e-05	2.76239e-05	3.16059e-05	0.808401	0.198352	6.71106	1.82911e-07	1.55078e-07	4.89069e-08	1.64534e-07	3.36339e-08	4.08395e-08	0.00087464	0.00275194	0.00288759	72.3683	4381.24	1392.48	4597.2	-17.6317	0.0000000E+000	0.0000000E+000	0.0000000E+000	17.6317	0.0000000E+000	0.0000000E+000	0.0000000E+000	-17.6317	0.0000000E+000	0.0000000E+000	0.0000000E+000	-72.3683	0.0000000E+000	0.0000000E+000	0.0000000E+000	72.3683	0.317827	17.6317	-8.57449e-06
50.1122	192.694	569.585	601.297	-71.309	1035.13	-0.000243286	-0.0175573	5.57594	5.0033	2	40	0.0129207	2.14881e-05	0	-0.00530909	0.773518	0.431232	14.9686	4.47488e-05	3.92403e-05	3.38356e-05	4.27671e-05	3.20297e-05	3.02426e-05	0.837868	0.298579	12.0296	9.91234e-08	7.0989e-08	5.91478e-08	7.02174e-08	3.83515e-08	5.45197e-08	0.000532956	0.00157536	0.00166307	71.309	5003.3	1692.65	5281.87	-18.691	0.0000000E+000	0.0000000E+000	0.0000000E+000	18.691	0.0000000E+000	0.0000000E+000	0.0000000E+000	-18.691	0.0000000E+000	0.0000000E+000	0.0000000E+000	-71.309	0.0000000E+000	0.0000000E+000	0.0000000E+000	71.309	0.338307	18.691	-8.56158e-06
25.1206	350.131	971.042	1032.24	-70.1721	1040.39	-0.000259373	-0.0176198	6.52457	5.7739	2	40	0.012872	1.247e-05	0	-0.00533462	0.75016	0.428552	15.278	2.12253e-05	4.05762e-05	4.0554e-05	3.95795e-05	3.85379e-05	2.92102e-05	1.25905	0.536186	20.8617	5.77343e-08	5.33595e-08	5.49611e-08	7.89546e-08	5.63443e-08	4.09414e-08	0.000328603	0.000911337	0.00096877	70.1721	5773.9	2081.91	6137.77	-19.8279	0.0000000E+000	0.0000000E+000	0.0000000E+000	19.8279	0.0000000E+000	0.0000000E+000	0.0000000E+000	-19.8279	0.0000000E+000	0.0000000E+000	0.0000000E+000	-70.1721	0.0000000E+000	0.0000000E+000	0.0000000E+000	70.1721	0.360572	19.8279	-8.57956e-06
12.5873	630.226	1650.09	1766.34	-69.0964	1046.06	-0.000242811	-0.017681	7.66268	6.68719	2	41	0.0128945	7.30011e-06	0	-0.00536204	0.768975	0.325072	13.6576	5.02832e-05	4.73069e-05	2.61038e-05	3.6848e-05	3.0777e-05	2.46953e-05	0.625384	0.123557	4.89227	2.92286e-08	2.29331e-08	1.20388e-08	2.03753e-08	6.95537e-09	4.89817e-09	0.000201998	0.000528879	0.000566142	69.0964	6687.19	2554.08	7158.34	-20.9036	0.0000000E+000	0.0000000E+000	0.0000000E+000	20.9036	0.0000000E+000	0.0000000E+000	0.0000000E+000	-20.9036	0.0000000E+000	0.0000000E+000	0.0000000E+000	-69.0964	0.0000000E+000	0.0000000E+000	0.0000000E+000	69.0964	0.381936	20.9036	-9.38294e-06
6.31058	1133.57	2771.75	2994.59	-67.7567	1052.1	-0.000228849	-0.0175923	9.09908	7.79524	2	41	0.012869	4.29742e-06	0	-0.00539146	0.848268	0.360973	13.8121	3.70413e-05	4.7591e-05	3.50463e-05	3.26475e-05	4.22582e-05	3.88881e-05	0.735585	0.29327	8.35355	1.81886e-08	1.27955e-08	6.99917e-09	1.51667e-08	9.40427e-09	6.56811e-09	0.000126408	0.000309086	0.000333936	67.7567	7795.24	3188.06	8421.96	-22.2433	0.0000000E+000	0.0000000E+000	0.0000000E+000	22.2433	0.0000000E+000	0.0000000E+000	0.0000000E+000	-22.2433	0.0000000E+000	0.0000000E+000	0.0000000E+000	-67.7567	0.0000000E+000	0.0000000E+000	0.0000000E+000	67.7567	0.408975	22.2433	-1.10457e-05
3.16296	2046.8	4596.32	5031.45	-65.9959	1061.77	-0.000254071	-0.017507	10.9475	9.13587	2	41	0.0128598	2.55589e-06	0	-0.00543827	0.449513	0.311865	8.64512	1.93862e-05	1.95801e-05	2.31516e-05	2.52067e-05	1.71359e-05	2.35863e-05	0.847853	0.341974	8.9202	1.67419e-08	7.67866e-09	4.12406e-09	8.02664e-09	2.56214e-09	4.60825e-09	8.08516e-05	0.000181561	0.00019875	65.9959	9135.87	4068.32	10000.8	-24.0041	0.0000000E+000	0.0000000E+000	0.0000000E+000	24.0041	0.0000000E+000	0.0000000E+000	0.0000000E+000	-24.0041	0.0000000E+000	0.0000000E+000	0.0000000E+000	-65.9959	0.0000000E+000	0.0000000E+000	0.0000000E+000	65.9959	0.445313	24.0041	-1.84886e-05
1.58533	3627.58	7488.44	8320.82	-64.1533	1079.05	-0.000252813	-0.0174813	13.4063	10.8583	2	41	0.0128763	1.54748e-06	0	-0.00552204	0.297365	0.163695	5.83784	1.22531e-05	1.49435e-05	1.29856e-05	1.73391e-05	1.33465e-05	1.7365e-05	1.10097	0.406194	10.5817	1.42158e-08	5.60038e-09	2.2229e-09	4.06037e-09	3.24003e-09	4.12948e-09	5.23944e-05	0.000108158	0.00012018	64.1533	10858.3	5260.01	12065.2	-25.8467	0.0000000E+000	0.0000000E+000	0.0000000E+000	25.8467	0.0000000E+000	0.0000000E+000	0.0000000E+000	-25.8467	0.0000000E+000	0.0000000E+000	0.0000000E+000	-64.1533	0.0000000E+000	0.0000000E+000	0.0000000E+000	64.1533	0.484424	25.8467	-3.37742e-05
0.79456	6246.02	11945.9	13480.3	-62.3968	1111.64	-0.000262607	-0.0173103	16.7677	13.1679	2	41	0.0128642	9.54297e-07	0	-0.00567984	0.260267	0.160024	3.95708	1.48609e-05	1.57871e-05	1.65932e-05	1.04003e-05	7.6e-06	1.03166e-05	1.12382	1.2206	13.7241	8.55402e-09	2.56615e-09	3.70884e-09	2.90059e-09	1.54785e-09	1.61966e-09	3.43722e-05	6.57389e-05	7.41826e-05	62.3968	13167.9	6884.95	14859.2	-27.6032	0.0000000E+000	0.0000000E+000	0.0000000E+000	27.6032	0.0000000E+000	0.0000000E+000	0.0000000E+000	-27.6032	0.0000000E+000	0.0000000E+000	0.0000000E+000	-62.3968	0.0000000E+000	0.0000000E+000	0.0000000E+000	62.3968	0.522859	27.6032	-6.37435e-05
0.398211	10637	18599	21425.9	-60.2341	1174.81	-0.000246265	-0.0175549	21.4891	16.1927	2	41	0.0128636	6.00375e-07	0	-0.00598711	0.228456	0.1119	2.83087	9.70052e-06	1.1703e-05	8.9068e-06	1.43432e-05	1.1099e-05	9.8944e-06	1.75276	3.32965	20.7965	8.23821e-09	3.78796e-09	3.01531e-09	1.52251e-09	2.59495e-09	1.62806e-09	2.31709e-05	4.05146e-05	4.66725e-05	60.2341	16192.7	9260.83	18653.8	-29.7659	0.0000000E+000	0.0000000E+000	0.0000000E+000	29.7659	0.0000000E+000	0.0000000E+000	0.0000000E+000	-29.7659	0.0000000E+000	0.0000000E+000	0.0000000E+000	-60.2341	0.0000000E+000	0.0000000E+000	0.0000000E+000	60.2341	0.571915	29.7659	-0.000126597
0.199573	17510.6	29154.4	34008.8	-59.0103	1299.25	-0.000230289	-0.0176485	27.3535	20.1019	2	41	0.0128673	3.78353e-07	0	-0.00659267	0.148764	0.0675273	1.97105	5.89661e-06	1.14691e-05	4.64919e-06	1.01008e-05	5.38284e-06	4.03518e-06	3.58772	10.7022	17.9861	1.01449e-08	5.92649e-09	4.52822e-09	3.22833e-09	2.72609e-09	2.09314e-09	1.51397e-05	2.5207e-05	2.94041e-05	59.0103	20101.9	12073.5	23449.1	-30.9897	0.0000000E+000	0.0000000E+000	0.0000000E+000	30.9897	0.0000000E+000	0.0000000E+000	0.0000000E+000	-30.9897	0.0000000E+000	0.0000000E+000	0.0000000E+000	-59.0103	0.0000000E+000	0.0000000E+000	0.0000000E+000	59.0103	0.600615	30.9897	-0.00025139
0.0999518	29572	45791.2	54509.9	-57.1456	1546.07	-0.000264131	-0.0171114	34.7735	24.5392	2	41	0.0128661	2.36032e-07	0	-0.00777431	0.150015	0.0581218	1.48591	4.474e-06	1.23487e-05	3.86684e-06	1.16548e-05	2.81322e-06	5.18135e-06	6.75644	27.8923	19.7357	1.11364e-08	6.98275e-09	5.8362e-09	3.50591e-09	3.70611e-09	2.29721e-09	9.95243e-06	1.5411e-05	1.83453e-05	57.1456	24539.2	15847.4	29211.5	-32.8544	0.0000000E+000	0.0000000E+000	0.0000000E+000	32.8544	0.0000000E+000	0.0000000E+000	0.0000000E+000	-32.8544	0.0000000E+000	0.0000000E+000	0.0000000E+000	-57.1456	0.0000000E+000	0.0000000E+000	0.0000000E+000	57.1456	0.645801	32.8544	-0.000482981
630957	4.10417	2.38526	4.74696	-30.1643	1553.01	-0.000174763	-0.0194537	0.105751	0.0267008	3	38	0.0145675	0.0030688	0	-0.00782047	-1	-1	-1	0	0	0	0	0	0	-1	-1	-1	0	0	0	0	0	0	0.182135	0.105853	0.210661	30.1643	26.7008	45.9424	53.1379	-59.8357	0.0000000E+000	0.0000000E+000	0.0000000E+000	59.8357	0.0000000E+000	0.0000000E+000	0.0000000E+000	-59.8357	0.0000000E+000	0.0000000E+000	0.0000000E+000	-30.1643	0.0000000E+000	0.0000000E+000	0.0000000E+000	30.1643	1.72064	59.8357	-1.44126e-05
316230	3.88859	1.26029	4.08772	-17.9574	1558.45	-0.000139513	-0.0195449	0.399344	0.0379598	3	38	0.0145851	0.00356803	0	-0.00784981	-1	-1	-1	0	0	0	0	0	0	-1	-1	-1	0	0	0	0	0	0	0.232718	0.0754235	0.244635	17.9574	37.9598	117.124	123.122	-72.0426	0.0000000E+000	0.0000000E+000	0.0000000E+000	72.0426	0.0000000E+000	0.0000000E+000	0.0000000E+000	-72.0426	0.0000000E+000	0.0000000E+000	0.0000000E+000	-17.9574	0.0000000E+000	0.0000000E+000	0.0000000E+000	17.9574	3.08548	72.0426	-1.75463e-05
158486	3.82866	0.97607	3.95112	-14.3022	1563.89	-0.000156681	-0.0194053	1.02884	0.062787	3	38	0.0145628	0.00368575	0	-0.00787921	-1	-1	-1	0	0	0	0	0	0	-1	-1	-1	0	0	0	0	0	0	0.245249	0.0625231	0.253093	14.3022	62.787	246.283	254.161	-75.6978	0.0000000E+000	0.0000000E+000	0.0000000E+000	75.6978	0.0000000E+000	0.0000000E+000	0.0000000E+000	-75.6978	0.0000000E+000	0.0000000E+000	0.0000000E+000	-14.3022	0.0000000E+000	0.0000000E+000	0.0000000E+000	14.3022	3.92253	75.6978	-7.84824e-06
79433.3	3.86973	1.14889	4.03667	-16.5357	1569.33	-0.000193124	-0.0187927	1.74397	0.14127	3	38	0.0145662	0.00360846	0	-0.00789632	0.456931	0.235314	8.81642	2.57789e-05	2.01627e-05	3.21386e-05	2.96985e-05	2.08882e-05	2.67744e-05	0.0746017	0.0275185	0.797703	1.55091e-06	1.28133e-06	1.14988e-06	1.03458e-06	5.45639e-07	4.39413e-07	0.237483	0.0705068	0.247729	16.5357	141.27	475.829	496.357	-73.4643	0.0000000E+000	0.0000000E+000	0.0000000E+000	73.4643	0.0000000E+000	0.0000000E+000	0.0000000E+000	-73.4643	0.0000000E+000	0.0000000E+000	0.0000000E+000	-16.5357	0.0000000E+000	0.0000000E+000	0.0000000E+000	16.5357	3.36824	73.4643	-4.69794e-06
39814.1	3.98738	1.79069	4.37101	-24.1843	1574.76	-0.000180075	-0.0191465	2.23236	0.374661	3	38	0.0146069	0.00334177	0	-0.0079281	0.473729	0.290884	8.8821	2.49459e-05	1.6876e-05	2.7529e-05	3.08551e-05	2.72723e-05	1.91541e-05	0.0624432	0.0596713	0.852702	7.84583e-07	8.43094e-07	1.01647e-06	7.70283e-07	6.38177e-07	3.82558e-07	0.2087	0.0937249	0.22878	24.1843	374.661	834.271	914.537	-65.8157	0.0000000E+000	0.0000000E+000	0.0000000E+000	65.8157	0.0000000E+000	0.0000000E+000	0.0000000E+000	-65.8157	0.0000000E+000	0.0000000E+000	0.0000000E+000	-24.1843	0.0000000E+000	0.0000000E+000	0.0000000E+000	24.1843	2.22674	65.8157	-1.19873e-05
19948.8	4.1685	3.18736	5.24744	-37.4026	1580.2	-0.000163634	-0.0190292	2.50307	0.923506	3	38	0.0147875	0.00281805	0	-0.00796307	0.40835	0.252187	8.8548	3.14643e-05	2.04804e-05	2.24506e-05	1.46309e-05	2.02176e-05	2.3382e-05	0.0724755	0.0366066	1.01919	9.6428e-07	1.05481e-06	4.13934e-07	7.25139e-07	5.33098e-07	8.12327e-07	0.151386	0.115754	0.190569	37.4026	923.506	1207.78	1520.39	-52.5974	0.0000000E+000	0.0000000E+000	0.0000000E+000	52.5974	0.0000000E+000	0.0000000E+000	0.0000000E+000	-52.5974	0.0000000E+000	0.0000000E+000	0.0000000E+000	-37.4026	0.0000000E+000	0.0000000E+000	0.0000000E+000	37.4026	1.30782	52.5974	-1.48427e-05
10002.2	4.51703	5.95572	7.4749	-52.822	1585.64	-0.000198623	-0.0188952	2.67171	1.69608	3	38	0.0145287	0.00194366	0	-0.00799562	0.494442	0.217265	8.88107	4.00573e-05	2.71843e-05	1.57301e-05	2.57398e-05	3.01891e-05	2.25507e-05	0.152018	0.0343994	1.49375	2.47531e-06	6.04277e-07	4.7982e-07	9.53527e-07	7.0507e-07	4.77042e-07	0.0808429	0.106592	0.133781	52.822	1696.08	1286.37	2128.72	-37.178	0.0000000E+000	0.0000000E+000	0.0000000E+000	37.178	0.0000000E+000	0.0000000E+000	0.0000000E+000	-37.178	0.0000000E+000	0.0000000E+000	0.0000000E+000	-52.822	0.0000000E+000	0.0000000E+000	0.0000000E+000	52.822	0.758436	37.178	-1.19149e-05
5011.6	5.30194	11.2307	12.4193	-64.7282	1591.05	-0.000314624	-0.0196251	2.82773	2.31237	3	38	0.0139477	0.00112307	0	-0.00802157	0.488534	0.243933	9.35899	2.90651e-05	2.31175e-05	2.71712e-05	2.03044e-05	2.72618e-05	2.581e-05	0.306355	0.0651508	2.58936	3.11325e-06	7.71124e-07	5.39792e-07	6.98974e-07	4.35231e-07	4.88229e-07	0.034375	0.0728137	0.08052	64.7282	2312.37	1091.66	2557.1	-25.2718	0.0000000E+000	0.0000000E+000	0.0000000E+000	25.2718	0.0000000E+000	0.0000000E+000	0.0000000E+000	-25.2718	0.0000000E+000	0.0000000E+000	0.0000000E+000	-64.7282	0.0000000E+000	0.0000000E+000	0.0000000E+000	64.7282	0.472095	25.2718	-8.97766e-06
2512.41	6.99708	21.0954	22.2256	-71.65	1596.76	-0.000285041	-0.0194817	3.0029	2.70528	3	38	0.0139229	0.000626438	0	-0.00805178	0.524003	0.25012	9.26703	2.46216e-05	1.67339e-05	2.71636e-05	3.0128e-05	2.93671e-05	2.9267e-05	0.555662	0.123095	4.59212	1.98866e-06	2.41451e-06	5.24822e-07	1.11155e-06	4.16276e-07	4.91725e-07	0.0141648	0.0427054	0.0449932	71.65	2705.28	897.306	2850.21	-18.35	0.0000000E+000	0.0000000E+000	0.0000000E+000	18.35	0.0000000E+000	0.0000000E+000	0.0000000E+000	-18.35	0.0000000E+000	0.0000000E+000	0.0000000E+000	-71.65	0.0000000E+000	0.0000000E+000	0.0000000E+000	71.65	0.331687	18.35	-1.08241e-05
1258.79	10.7524	39.2006	40.6485	-74.6614	1602.51	-0.000302041	-0.0175038	3.22533	2.99965	3	39	0.0150107	0.000369281	0	-0.00808246	0.502581	0.235354	8.2437	3.24614e-05	4.0213e-05	2.30296e-05	2.83569e-05	1.84821e-05	2.52126e-05	0.828402	0.0921496	3.52308	2.12917e-06	2.04894e-06	2.63734e-07	5.48408e-07	1.76575e-07	2.72873e-07	0.00650755	0.0237248	0.0246011	74.6614	2999.64	822.781	3110.44	-15.3386	0.0000000E+000	0.0000000E+000	0.0000000E+000	15.3386	0.0000000E+000	0.0000000E+000	0.0000000E+000	-15.3386	0.0000000E+000	0.0000000E+000	0.0000000E+000	-74.6614	0.0000000E+000	0.0000000E+000	0.0000000E+000	74.6614	0.274293	15.3386	-1.06594e-05
631.01	18.6419	71.7404	74.1229	-75.4337	1608.01	-0.000315519	-0.0172696	3.51577	3.29339	3	39	0.0136462	0.000184102	0	-0.00810938	0.511412	0.273675	8.95115	2.66098e-05	3.25513e-05	2.05712e-05	2.52641e-05	2.22354e-05	2.63866e-05	0.896457	0.222964	7.04266	7.34341e-07	7.15472e-07	2.32849e-07	1.14689e-06	2.59801e-07	3.16615e-07	0.00339301	0.0130575	0.0134911	75.4337	3293.39	855.795	3402.76	-14.5663	0.0000000E+000	0.0000000E+000	0.0000000E+000	14.5663	0.0000000E+000	0.0000000E+000	0.0000000E+000	-14.5663	0.0000000E+000	0.0000000E+000	0.0000000E+000	-75.4337	0.0000000E+000	0.0000000E+000	0.0000000E+000	75.4337	0.259852	14.5663	-8.88284e-06
316.316	34.7709	128.834	133.444	-74.8964	1613.5	-0.000259988	-0.0172563	3.90542	3.64026	3	39	0.0132944	9.96252e-05	0	-0.00813535	0.512132	0.263855	9.33805	2.52223e-05	2.62286e-05	2.93342e-05	2.65573e-05	2.10869e-05	2.50643e-05	0.91869	0.375556	13.0059	4.42406e-07	3.20841e-07	4.01039e-07	3.96485e-07	2.54368e-07	2.11032e-07	0.00195262	0.00723491	0.00749378	74.8964	3640.26	982.465	3770.51	-15.1036	0.0000000E+000	0.0000000E+000	0.0000000E+000	15.1036	0.0000000E+000	0.0000000E+000	0.0000000E+000	-15.1036	0.0000000E+000	0.0000000E+000	0.0000000E+000	-74.8964	0.0000000E+000	0.0000000E+000	0.0000000E+000	74.8964	0.269889	15.1036	-8.76803e-06
158.529	66.312	227.325	236.8	-73.7377	1619	-0.00023089	-0.0171465	4.41635	4.07003	3	39	0.0132055	5.57666e-05	0	-0.00816141	0.444235	0.339768	9.37828	1.35898e-05	3.52005e-05	2.2971e-05	1.93272e-05	1.77273e-05	1.93919e-05	1.57841	0.900589	23.4517	3.14759e-07	5.54464e-07	1.72623e-07	3.73259e-07	2.21504e-07	2.07021e-07	0.00118258	0.00405402	0.00422298	73.7377	4070.03	1187.25	4239.66	-16.2623	0.0000000E+000	0.0000000E+000	0.0000000E+000	16.2623	0.0000000E+000	0.0000000E+000	0.0000000E+000	-16.2623	0.0000000E+000	0.0000000E+000	0.0000000E+000	-73.7377	0.0000000E+000	0.0000000E+000	0.0000000E+000	73.7377	0.291705	16.2623	-8.76294e-06
79.4157	124.461	397.214	416.257	-72.6024	1624.64	-0.000306925	-0.0170782	5.04532	4.59426	3	40	0.0133079	3.19704e-05	0	-0.00818779	0.758337	0.451951	14.447	3.1137e-05	3.69052e-05	5.00995e-05	2.78911e-05	4.19034e-05	4.53881e-05	0.701559	0.258035	8.0586	1.09973e-07	1.06314e-07	5.83278e-08	1.23367e-07	3.40612e-08	6.74203e-08	0.00071831	0.00229246	0.00240236	72.6024	4594.26	1439.54	4814.51	-17.3976	0.0000000E+000	0.0000000E+000	0.0000000E+000	17.3976	0.0000000E+000	0.0000000E+000	0.0000000E+000	-17.3976	0.0000000E+000	0.0000000E+000	0.0000000E+000	-72.6024	0.0000000E+000	0.0000000E+000	0.0000000E+000	72.6024	0.313336	17.3976	-8.33469e-06
39.8089	231.563	683.892	722.032	-71.2941	1629.96	-0.0002708	-0.0170251	5.84591	5.24463	3	40	0.0131962	1.82765e-05	0	-0.00821288	0.69054	0.34891	14.5291	3.75932e-05	3.35855e-05	3.0818e-05	4.10311e-05	3.82584e-05	2.41737e-05	0.877394	0.434963	14.1659	8.13634e-08	7.58528e-08	5.89343e-08	5.51959e-08	6.00533e-08	2.98632e-08	0.000444178	0.00131182	0.00138498	71.2941	5244.63	1775.81	5537.12	-18.7059	0.0000000E+000	0.0000000E+000	0.0000000E+000	18.7059	0.0000000E+000	0.0000000E+000	0.0000000E+000	-18.7059	0.0000000E+000	0.0000000E+000	0.0000000E+000	-71.2941	0.0000000E+000	0.0000000E+000	0.0000000E+000	71.2941	0.338596	18.7059	-8.34815e-06
19.9553	420.146	1173.48	1246.42	-70.3008	1635.22	-0.000261871	-0.0170112	6.79653	6.02428	3	40	0.0131843	1.05778e-05	0	-0.00823756	0.698215	0.524296	14.6883	2.85093e-05	3.10296e-05	3.68242e-05	3.41224e-05	4.7788e-05	2.87428e-05	1.19355	0.840373	24.4183	6.0985e-08	4.37153e-08	4.58424e-08	4.0461e-08	5.86589e-08	3.73527e-08	0.00027044	0.000755343	0.000802297	70.3008	6024.28	2156.91	6398.76	-19.6992	0.0000000E+000	0.0000000E+000	0.0000000E+000	19.6992	0.0000000E+000	0.0000000E+000	0.0000000E+000	-19.6992	0.0000000E+000	0.0000000E+000	0.0000000E+000	-70.3008	0.0000000E+000	0.0000000E+000	0.0000000E+000	70.3008	0.358036	19.6992	-8.28312e-06
9.99682	756.327	1990.1	2128.97	-69.1909	1640.88	-0.000291901	-0.0170615	7.9999	6.99026	3	41	0.0131807	6.19114e-06	0	-0.00826405	1.10436	0.444593	19.2137	7.2481e-05	6.04813e-05	4.12052e-05	3.86237e-05	5.40292e-05	6.00214e-05	0.742828	0.202838	8.10444	3.34761e-08	2.02324e-08	9.40246e-09	1.2447e-08	1.08098e-08	1.00998e-08	0.000166867	0.000439071	0.000469711	69.1909	6990.27	2656.62	7478.06	-20.8091	0.0000000E+000	0.0000000E+000	0.0000000E+000	20.8091	0.0000000E+000	0.0000000E+000	0.0000000E+000	-20.8091	0.0000000E+000	0.0000000E+000	0.0000000E+000	-69.1909	0.0000000E+000	0.0000000E+000	0.0000000E+000	69.1909	0.380045	20.8091	-8.27558e-06
5.01283	1377.86	3345.21	3617.86	-67.6138	1647.84	-0.000231498	-0.017073	9.49103	8.1144	3	41	0.0131782	3.64252e-06	0	-0.00829681	0.602379	0.359087	10.7805	2.86528e-05	2.17731e-05	2.59852e-05	4.3324e-05	3.68873e-05	2.40559e-05	0.805492	0.317183	7.97389	1.95627e-08	1.35451e-08	4.10467e-09	1.24838e-08	8.16088e-09	4.95496e-09	0.000105269	0.000255576	0.000276406	67.6138	8114.4	3342.23	8775.76	-22.3862	0.0000000E+000	0.0000000E+000	0.0000000E+000	22.3862	0.0000000E+000	0.0000000E+000	0.0000000E+000	-22.3862	0.0000000E+000	0.0000000E+000	0.0000000E+000	-67.6138	0.0000000E+000	0.0000000E+000	0.0000000E+000	67.6138	0.411889	22.3862	-1.25931e-05
2.51085	2490.3	5521.57	6057.17	-65.724	1659.47	-0.000241219	-0.0170674	11.4799	9.53944	3	41	0.0131558	2.17194e-06	0	-0.0083516	0.379195	0.205912	7.27451	1.49953e-05	1.64426e-05	1.45117e-05	1.76054e-05	2.01985e-05	2.81607e-05	1.02451	0.372884	9.2715	1.76728e-08	7.76405e-09	3.41027e-09	6.01493e-09	4.16022e-09	5.78339e-09	6.78752e-05	0.000150495	0.000165094	65.724	9539.44	4302.4	10464.8	-24.276	0.0000000E+000	0.0000000E+000	0.0000000E+000	24.276	0.0000000E+000	0.0000000E+000	0.0000000E+000	-24.276	0.0000000E+000	0.0000000E+000	0.0000000E+000	-65.724	0.0000000E+000	0.0000000E+000	0.0000000E+000	65.724	0.451012	24.276	-2.1821e-05
1.25825	4399.42	8962.88	9984.39	-63.8559	1680.74	-0.00024244	-0.0171658	14.1125	11.3725	3	41	0.0131753	1.31959e-06	0	-0.00845259	0.298003	0.232666	5.23716	1.04709e-05	1.5155e-05	1.58621e-05	9.66375e-06	1.35786e-05	1.93223e-05	1.18484	0.71069	11.7424	1.33557e-08	4.424e-09	2.9893e-09	3.56136e-09	2.61517e-09	2.90629e-09	4.41318e-05	8.99092e-05	0.000100156	63.8559	11372.5	5582.18	12668.6	-26.1441	0.0000000E+000	0.0000000E+000	0.0000000E+000	26.1441	0.0000000E+000	0.0000000E+000	0.0000000E+000	-26.1441	0.0000000E+000	0.0000000E+000	0.0000000E+000	-63.8559	0.0000000E+000	0.0000000E+000	0.0000000E+000	63.8559	0.490849	26.1441	-4.09415e-05
0.630906	7557.94	14103	16000.5	-61.8127	1721.25	-0.000227222	-0.0172729	17.8873	13.8963	3	41	0.0131708	8.23146e-07	0	-0.00864584	0.211006	0.078463	3.50035	1.12458e-05	9.96282e-06	9.00574e-06	1.22879e-05	8.02593e-06	1.0361e-05	1.41701	1.08606	16.0255	1.0179e-08	3.4258e-09	1.96801e-09	2.56488e-09	1.49943e-09	1.80207e-09	2.95213e-05	5.50862e-05	6.2498e-05	61.8127	13896.3	7447.17	15766	-28.1873	0.0000000E+000	0.0000000E+000	0.0000000E+000	28.1873	0.0000000E+000	0.0000000E+000	0.0000000E+000	-28.1873	0.0000000E+000	0.0000000E+000	0.0000000E+000	-61.8127	0.0000000E+000	0.0000000E+000	0.0000000E+000	61.8127	0.535911	28.1873	-7.91901e-05
0.316193	12297.3	21998.3	25202.1	-60.7944	1800.37	-0.000250231	-0.0172252	22.8812	17.4334	3	41	0.0131723	5.22666e-07	0	-0.00902385	0.187165	0.0566812	2.44402	4.67459e-06	1.53487e-05	7.47222e-06	1.237e-05	7.18503e-06	6.21965e-06	2.36363	3.86293	21.1528	1.06354e-08	3.68495e-09	2.66439e-09	2.72557e-09	2.18695e-09	1.97645e-09	1.93613e-05	3.46349e-05	3.96792e-05	60.7944	17433.4	9745.44	19972.4	-29.2056	0.0000000E+000	0.0000000E+000	0.0000000E+000	29.2056	0.0000000E+000	0.0000000E+000	0.0000000E+000	-29.2056	0.0000000E+000	0.0000000E+000	0.0000000E+000	-60.7944	0.0000000E+000	0.0000000E+000	0.0000000E+000	60.7944	0.55901	29.2056	-0.00015592
0.158419	20585.5	35667.6	41181.8	-60.0087	1956.65	-0.000243591	-0.0170391	28.167	21.1289	3	41	0.0131733	3.19883e-07	0	-0.00976377	0.124037	0.0516828	1.74928	4.81209e-06	1.05318e-05	3.824e-06	8.40191e-06	3.64663e-06	3.42513e-06	5.72972	22.0276	18.7108	1.34285e-08	8.00799e-09	5.78126e-09	5.17828e-09	3.64711e-09	3.57164e-09	1.21381e-05	2.10312e-05	2.42826e-05	60.0087	21128.9	12194.5	24395.4	-29.9913	0.0000000E+000	0.0000000E+000	0.0000000E+000	29.9913	0.0000000E+000	0.0000000E+000	0.0000000E+000	-29.9913	0.0000000E+000	0.0000000E+000	0.0000000E+000	-60.0087	0.0000000E+000	0.0000000E+000	0.0000000E+000	60.0087	0.577148	29.9913	-0.000304463
0.0999518	28917.1	46238.1	54535.9	-57.9783	2139.13	-0.000258778	-0.0171301	34.4373	24.7551	3	41	0.0131705	2.41502e-07	0	-0.0106321	0.130985	0.0536541	1.44839	5.74798e-06	1.18416e-05	2.79979e-06	8.88961e-06	3.12662e-06	3.31621e-06	5.17446	18.4901	19.3081	8.96135e-09	5.16766e-09	4.44627e-09	4.19385e-09	3.03311e-09	2.71698e-09	9.72277e-06	1.55466e-05	1.83365e-05	57.9783	24755.1	15481.7	29197.6	-32.0217	0.0000000E+000	0.0000000E+000	0.0000000E+000	32.0217	0.0000000E+000	0.0000000E+000	0.0000000E+000	-32.0217	0.0000000E+000	0.0000000E+000	0.0000000E+000	-57.9783	0.0000000E+000	0.0000000E+000	0.0000000E+000	57.9783	0.625395	32.0217	-0.000484304