File: Python/Data/RDE/240222-CV-EIS-Fe2Fe3_5mM-HCl1M-0RPM-Ag_AgCl_BLF8-GC-RDE-DefaultSettings_03_PEIS_C15.mpt
EC-Lab ASCII FILE
Nb header lines : 66

Potentio Electrochemical Impedance Spectroscopy

Run on channel : 15 (SN 19485)
User :
Electrode connection : standard
Potential control : Ewe
Ewe ctrl range : min = -1.00 V, max = 1.00 V
Ewe,I filtering : <None>
Safety Limits :
	Do not start on E overload
Channel : Floating
Acquisition started on : 02/22/2024 14:35:39.248
Loaded Setting File :  C:\Data\mathias\RDE-RPM-variation\240219-CV-EIS-Fe2Fe3_5mM-HCl1M-RPMtest-Ag_AgCl_BLF8-GC-RDE.mps
Saved on :
	File : 240222-CV-EIS-Fe2Fe3_5mM-HCl1M-0RPM-Ag_AgCl_BLF8-GC-RDE-DefaultSettings_03_PEIS_C15.mpr
	Directory : C:\Data\mathias\RDE-RPM-variation\
	Host : 192.168.0.1
Device : VMP-300 (SN 0826)
Address : USB
EC-Lab for windows v11.52 (software)
Internet server v11.52 (firmware)
Command interpretor v11.52 (firmware)
Electrode material :
Initial state :
Electrolyte :
Comments :
Cable : special
Electrode surface area : 0.001 cm²
Characteristic mass : 0.001 g
Equivalent Weight : 0.000 g/eq.
Density : 0.000 g/cm3
Volume (V) : 0.001 cm³
Record EIS quality indicators
Cycle Definition : Charge/Discharge alternance
Mode                Single sine
E (V)               0.0000
vs.                 Ref
tE (h:m:s)          0:01:0.0000
record              0
dI                  0.000
unit dI             mA
dt (s)              0.000
fi                  400.000
unit fi             kHz
ff                  100.000
unit ff             mHz
Nd                  10
Points              per decade
spacing             Logarithmic
Va (mV)             7.0
pw                  0.10
Na                  3
corr                0
E range min (V)     -1.000
E range max (V)     1.000
I Range             Auto
Bandwidth           8
nc cycles           2
goto Ns'            0
nr cycles           0
inc. cycle          1

freq/Hz	Re(Z)/Ohm	-Im(Z)/Ohm	|Z|/Ohm	Phase(Z)/deg	time/s	<Ewe>/V	<I>/mA	Cs/µF	Cp/µF	cycle number	I Range	|Ewe|/V	|I|/A	Ns	(Q-Qo)/mA.h	THD Ewe/%	NSD Ewe/%	NSR Ewe/%	|Ewe h2|/V	|Ewe h3|/V	|Ewe h4|/V	|Ewe h5|/V	|Ewe h6|/V	|Ewe h7|/V	THD I/%	NSD I/%	NSR I/%	|I h2|/A	|I h3|/A	|I h4|/A	|I h5|/A	|I h6|/A	|I h7|/A	Re(Y)/Ohm-1	Im(Y)/Ohm-1	|Y|/Ohm-1	Phase(Y)/deg	Re(C)/nF	Im(C)/nF	|C|/nF	Phase(C)/deg	Re(M)	Im(M)	|M|	Phase(M)/deg	Re(Permittivity)	Im(Permittivity)	|Permittivity|	Phase(Permittivity)/deg	Re(Resistivity)/Ohm.cm	Im(Resistivity)/Ohm.cm	|Resistivity|/Ohm.cm	Phase(Resistivity)/deg	Re(Conductivity)/mS/cm	Im(Conductivity)/mS/cm	|Conductivity|/mS/cm	Phase(Conductivity)/deg	Tan(Delta)	Loss Angle(Delta)/deg	dq/mA.h
399996	3.64604	1.55605	3.9642	-23.1117	422.679	-0.000168742	-0.0320311	0.255706	0.0393981	1	38	0.00645374	0.001628	0	-0.000590532	-1	-1	-1	0	0	0	0	0	0	-1	-1	-1	0	0	0	0	0	0	0.232012	0.0990174	0.252258	23.1117	39.3981	92.3154	100.371	-66.8883	0.0000000E+000	0.0000000E+000	0.0000000E+000	66.8883	0.0000000E+000	0.0000000E+000	0.0000000E+000	-66.8883	0.0000000E+000	0.0000000E+000	0.0000000E+000	-23.1117	0.0000000E+000	0.0000000E+000	0.0000000E+000	23.1117	2.34314	66.8883	-0.000590532
200434	3.53249	0.937682	3.65483	-14.866	426.12	-0.000178454	-0.0319753	0.846823	0.0557405	1	38	0.0071968	0.00196912	0	-0.000617786	-1	-1	-1	0	0	0	0	0	0	-1	-1	-1	0	0	0	0	0	0	0.264453	0.0701976	0.273611	14.866	55.7405	209.989	217.261	-75.134	0.0000000E+000	0.0000000E+000	0.0000000E+000	75.134	0.0000000E+000	0.0000000E+000	0.0000000E+000	-75.134	0.0000000E+000	0.0000000E+000	0.0000000E+000	-14.866	0.0000000E+000	0.0000000E+000	0.0000000E+000	14.866	3.76726	75.134	-9.85451e-06
100431	3.53616	0.8301	3.63228	-13.2108	429.561	-0.000176925	-0.031763	1.90908	0.099707	1	38	0.00724266	0.00199397	0	-0.000654909	0.945362	0.70457	18.7821	1.3717e-05	2.01498e-05	1.75228e-05	4.14722e-05	1.94146e-05	3.36909e-05	0.0892559	0.0548304	1.44883	3.77968e-07	1.04597e-06	9.07804e-07	3.739e-07	4.29862e-07	5.2195e-07	0.268023	0.0629175	0.275309	13.2108	99.707	424.743	436.29	-76.7892	0.0000000E+000	0.0000000E+000	0.0000000E+000	76.7892	0.0000000E+000	0.0000000E+000	0.0000000E+000	-76.7892	0.0000000E+000	0.0000000E+000	0.0000000E+000	-13.2108	0.0000000E+000	0.0000000E+000	0.0000000E+000	13.2108	4.25992	76.7892	-1.00579e-05
50326.6	3.58798	1.10271	3.75361	-17.084	433.002	-0.000151387	-0.0310406	2.86789	0.247506	1	38	0.0072048	0.00191943	0	-0.000684483	0.837076	0.589081	18.4958	1.64618e-05	1.76177e-05	2.4152e-05	2.44268e-05	3.04167e-05	2.17475e-05	0.093899	0.057915	1.52301	1.11804e-06	2.70002e-07	8.92578e-07	5.92661e-07	3.60789e-07	6.23152e-07	0.254655	0.0782641	0.26641	17.084	247.506	805.332	842.507	-72.916	0.0000000E+000	0.0000000E+000	0.0000000E+000	72.916	0.0000000E+000	0.0000000E+000	0.0000000E+000	-72.916	0.0000000E+000	0.0000000E+000	0.0000000E+000	-17.084	0.0000000E+000	0.0000000E+000	0.0000000E+000	17.084	3.25379	72.916	-1.0278e-05
25219	3.72256	1.81823	4.14288	-26.0325	436.444	-0.000173402	-0.0303535	3.47091	0.668556	1	38	0.00722799	0.00174468	0	-0.000714482	1.05196	0.634013	18.6363	3.12711e-05	2.35204e-05	2.2681e-05	2.03995e-05	4.26079e-05	2.5635e-05	0.105473	0.0559044	1.66153	9.74695e-07	6.66255e-07	5.28923e-07	7.53748e-07	5.63084e-07	5.59514e-07	0.216889	0.105936	0.241378	26.0325	668.556	1368.77	1523.32	-63.9675	0.0000000E+000	0.0000000E+000	0.0000000E+000	63.9675	0.0000000E+000	0.0000000E+000	0.0000000E+000	-63.9675	0.0000000E+000	0.0000000E+000	0.0000000E+000	-26.0325	0.0000000E+000	0.0000000E+000	0.0000000E+000	26.0325	2.04735	63.9675	-1.07906e-05
12637.3	3.91099	3.29608	5.11468	-40.1233	439.884	-0.000165331	-0.0304262	3.82092	1.58681	1	38	0.00728899	0.00142511	0	-0.000738611	1.12981	0.736774	18.7622	2.58075e-05	3.14154e-05	3.9749e-05	3.2297e-05	3.36762e-05	2.81831e-05	0.134176	0.0889589	2.02396	1.14085e-06	7.66223e-07	6.09688e-07	4.09377e-07	6.18765e-07	6.22534e-07	0.149503	0.125997	0.195516	40.1233	1586.81	1882.85	2462.33	-49.8767	0.0000000E+000	0.0000000E+000	0.0000000E+000	49.8767	0.0000000E+000	0.0000000E+000	0.0000000E+000	-49.8767	0.0000000E+000	0.0000000E+000	0.0000000E+000	-40.1233	0.0000000E+000	0.0000000E+000	0.0000000E+000	40.1233	1.18656	49.8767	-6.96804e-06
6332.63	4.29925	6.16785	7.51837	-55.1219	443.444	-0.000296356	-0.0300128	4.07476	2.74234	1	38	0.00711766	0.000946703	0	-0.000769845	1.15688	0.508914	19.2135	2.8951e-05	3.41671e-05	3.41962e-05	2.74316e-05	3.58567e-05	2.59439e-05	0.192924	0.0991734	3.04934	7.29755e-07	6.74623e-07	3.87059e-07	8.25478e-07	7.60683e-07	7.82267e-07	0.0760581	0.109115	0.133008	55.1219	2742.34	1911.53	3342.81	-34.8781	0.0000000E+000	0.0000000E+000	0.0000000E+000	34.8781	0.0000000E+000	0.0000000E+000	0.0000000E+000	-34.8781	0.0000000E+000	0.0000000E+000	0.0000000E+000	-55.1219	0.0000000E+000	0.0000000E+000	0.0000000E+000	55.1219	0.697043	34.8781	-1.16969e-05
3171.96	5.15952	11.6236	12.7172	-66.0643	446.777	-0.000323758	-0.03148	4.31671	3.60617	1	38	0.00636435	0.000500451	0	-0.000796771	1.03935	0.565997	21.3154	2.37554e-05	2.23524e-05	2.6729e-05	3.36369e-05	1.97975e-05	2.08756e-05	0.439525	0.123219	5.76692	8.15595e-07	1.0825e-06	5.34744e-07	1.03569e-06	5.66476e-07	7.1347e-07	0.0319024	0.0718711	0.0786334	66.0643	3606.17	1600.72	3945.48	-23.9357	0.0000000E+000	0.0000000E+000	0.0000000E+000	23.9357	0.0000000E+000	0.0000000E+000	0.0000000E+000	-23.9357	0.0000000E+000	0.0000000E+000	0.0000000E+000	-66.0643	0.0000000E+000	0.0000000E+000	0.0000000E+000	66.0643	0.443884	23.9357	-9.15476e-06
1589.49	7.13524	21.7547	22.8949	-71.8412	450.319	-0.00031194	-0.0298974	4.60266	4.15562	1	38	0.00651341	0.000284492	0	-0.000826646	1.08398	0.611268	20.638	4.09667e-05	2.57633e-05	2.27832e-05	2.53398e-05	9.68678e-06	2.99175e-05	0.695861	0.238509	10.0305	3.95284e-07	8.71473e-07	8.94644e-07	1.00523e-06	7.29344e-07	6.13391e-07	0.0136123	0.0415025	0.0436778	71.8412	4155.62	1362.99	4373.44	-18.1588	0.0000000E+000	0.0000000E+000	0.0000000E+000	18.1588	0.0000000E+000	0.0000000E+000	0.0000000E+000	-18.1588	0.0000000E+000	0.0000000E+000	0.0000000E+000	-71.8412	0.0000000E+000	0.0000000E+000	0.0000000E+000	71.8412	0.327987	18.1588	-9.40211e-06
796.787	11.3607	40.2399	41.8129	-74.2344	453.893	-0.000279971	-0.0255152	4.96387	4.59743	1	39	0.00680345	0.000162712	0	-0.000853351	1.36402	0.602171	19.492	2.18506e-05	3.02542e-05	3.83759e-05	5.06828e-05	4.35511e-05	1.74992e-05	0.655283	0.273094	8.38303	4.38442e-07	5.80106e-07	3.71364e-07	4.87655e-07	1.94024e-07	2.10886e-07	0.00649805	0.0230164	0.0239161	74.2344	4597.43	1297.96	4777.13	-15.7656	0.0000000E+000	0.0000000E+000	0.0000000E+000	15.7656	0.0000000E+000	0.0000000E+000	0.0000000E+000	-15.7656	0.0000000E+000	0.0000000E+000	0.0000000E+000	-74.2344	0.0000000E+000	0.0000000E+000	0.0000000E+000	74.2344	0.282323	15.7656	-7.63163e-06
399.106	20.315	72.7935	75.575	-74.4068	457.217	-0.0002878	-0.0253228	5.47822	5.08238	1	39	0.00642753	8.50483e-05	0	-0.000876487	1.19166	0.637728	20.1135	3.23636e-05	2.29257e-05	3.39697e-05	3.32286e-05	2.53484e-05	2.19299e-05	1.29669	0.524455	15.7355	4.4026e-07	3.25052e-07	2.27095e-07	7.0788e-07	3.10229e-07	3.59031e-07	0.0035568	0.0127449	0.0132319	74.4068	5082.39	1418.38	5276.59	-15.5932	0.0000000E+000	0.0000000E+000	0.0000000E+000	15.5932	0.0000000E+000	0.0000000E+000	0.0000000E+000	-15.5932	0.0000000E+000	0.0000000E+000	0.0000000E+000	-74.4068	0.0000000E+000	0.0000000E+000	0.0000000E+000	74.4068	0.279077	15.5932	-7.79475e-06
199.936	37.9805	128.471	133.967	-73.5305	460.531	-0.000260864	-0.0252758	6.19618	5.69816	1	39	0.00632503	4.72132e-05	0	-0.000899584	0.962438	0.633544	20.5873	3.04301e-05	2.22035e-05	1.47764e-05	2.16991e-05	2.40371e-05	1.93618e-05	1.56997	0.632231	27.8372	2.99551e-07	2.999e-07	1.45748e-07	3.08814e-07	2.77925e-07	3.15999e-07	0.00211623	0.00715824	0.00746451	73.5305	5698.16	1684.58	5941.96	-16.4695	0.0000000E+000	0.0000000E+000	0.0000000E+000	16.4695	0.0000000E+000	0.0000000E+000	0.0000000E+000	-16.4695	0.0000000E+000	0.0000000E+000	0.0000000E+000	-73.5305	0.0000000E+000	0.0000000E+000	0.0000000E+000	73.5305	0.295635	16.4695	-7.69997e-06
100.224	68.1034	225.62	235.674	-73.2035	464.316	-0.000271601	-0.0248097	7.03833	6.45059	1	40	0.00705445	2.99331e-05	0	-0.000925665	1.50168	0.655138	28.1503	3.47073e-05	4.40702e-05	3.40473e-05	2.54252e-05	4.48596e-05	4.69586e-05	0.662939	0.155645	8.59209	6.33902e-08	6.1015e-08	4.12984e-08	1.41196e-07	7.2301e-08	4.00377e-08	0.00122616	0.00406212	0.00424315	73.2035	6450.59	1947.12	6738.06	-16.7965	0.0000000E+000	0.0000000E+000	0.0000000E+000	16.7965	0.0000000E+000	0.0000000E+000	0.0000000E+000	-16.7965	0.0000000E+000	0.0000000E+000	0.0000000E+000	-73.2035	0.0000000E+000	0.0000000E+000	0.0000000E+000	73.2035	0.301851	16.7965	-9.07656e-06
50.2089	116.479	395.654	412.443	-73.5958	467.545	-0.000302358	-0.024715	8.01169	7.3727	1	40	0.00692823	1.6798e-05	0	-0.000947594	1.30186	0.438841	28.8228	2.26139e-05	2.93707e-05	4.10313e-05	4.35261e-05	3.76231e-05	2.31416e-05	0.897078	0.259684	15.599	5.83173e-08	5.56965e-08	5.79921e-08	9.08654e-08	2.88436e-08	4.10082e-08	0.000684729	0.00232588	0.00242458	73.5958	7372.7	2170.49	7685.56	-16.4042	0.0000000E+000	0.0000000E+000	0.0000000E+000	16.4042	0.0000000E+000	0.0000000E+000	0.0000000E+000	-16.4042	0.0000000E+000	0.0000000E+000	0.0000000E+000	-73.5958	0.0000000E+000	0.0000000E+000	0.0000000E+000	73.5958	0.294396	16.4042	-7.28696e-06
25.1691	206.119	697.643	727.455	-73.5402	470.722	-0.000267016	-0.0247403	9.06398	8.3363	1	40	0.00688836	9.46912e-06	0	-0.000969208	1.32522	0.984074	28.5463	3.5248e-05	3.22297e-05	3.23452e-05	4.27794e-05	2.88398e-05	3.96588e-05	1.62768	0.955674	26.9014	8.05629e-08	4.93047e-08	3.89209e-08	7.9988e-08	4.3567e-08	5.08281e-08	0.000389498	0.00131832	0.00137466	73.5402	8336.3	2462.96	8692.53	-16.4598	0.0000000E+000	0.0000000E+000	0.0000000E+000	16.4598	0.0000000E+000	0.0000000E+000	0.0000000E+000	-16.4598	0.0000000E+000	0.0000000E+000	0.0000000E+000	-73.5402	0.0000000E+000	0.0000000E+000	0.0000000E+000	73.5402	0.29545	16.4598	-7.2308e-06
12.6144	377.24	1237.01	1293.25	-73.0403	474.289	-0.000257416	-0.0246617	10.1996	9.33171	1	41	0.00691789	5.34922e-06	0	-0.000993289	1.35863	0.638665	25.9919	3.27536e-05	3.70561e-05	2.80334e-05	4.40813e-05	3.60885e-05	3.20545e-05	0.647659	0.180227	6.55901	9.47864e-09	1.22464e-08	1.8585e-08	2.17627e-08	7.45286e-09	5.01472e-09	0.000225554	0.000739616	0.000773244	73.0403	9331.72	2845.81	9756	-16.9597	0.0000000E+000	0.0000000E+000	0.0000000E+000	16.9597	0.0000000E+000	0.0000000E+000	0.0000000E+000	-16.9597	0.0000000E+000	0.0000000E+000	0.0000000E+000	-73.0403	0.0000000E+000	0.0000000E+000	0.0000000E+000	73.0403	0.304961	16.9597	-9.69628e-06
6.31569	721.219	2154.27	2271.79	-71.4902	477.937	-0.000243072	-0.0246669	11.6977	10.5187	1	41	0.0068829	3.02973e-06	0	-0.00101804	1.30093	0.633621	26.0022	3.62966e-05	3.54248e-05	3.83697e-05	2.44481e-05	3.29644e-05	2.99224e-05	0.739229	0.294097	11.5371	1.1096e-08	9.25984e-09	6.91954e-09	9.12059e-09	6.71416e-09	7.70519e-09	0.000139743	0.00041741	0.000440181	71.4902	10518.7	3521.52	11092.5	-18.5098	0.0000000E+000	0.0000000E+000	0.0000000E+000	18.5098	0.0000000E+000	0.0000000E+000	0.0000000E+000	-18.5098	0.0000000E+000	0.0000000E+000	0.0000000E+000	-71.4902	0.0000000E+000	0.0000000E+000	0.0000000E+000	71.4902	0.334786	18.5098	-9.39179e-06
3.16616	1369.57	3689.02	3935.04	-69.6323	483.78	-0.00024997	-0.0246567	13.6263	11.9756	1	41	0.00688822	1.75048e-06	0	-0.0010578	1.04534	0.371153	15.9564	1.80452e-05	4.58187e-05	3.68751e-05	2.6555e-05	1.20317e-05	1.77483e-05	0.825428	0.433976	12.6059	7.94099e-09	6.85774e-09	7.67014e-09	3.6859e-09	2.90722e-09	3.38451e-09	8.84473e-05	0.000238238	0.000254127	69.6323	11975.6	4446.02	12774.3	-20.3677	0.0000000E+000	0.0000000E+000	0.0000000E+000	20.3677	0.0000000E+000	0.0000000E+000	0.0000000E+000	-20.3677	0.0000000E+000	0.0000000E+000	0.0000000E+000	-69.6323	0.0000000E+000	0.0000000E+000	0.0000000E+000	69.6323	0.371255	20.3677	-1.57385e-05
1.5871	2614.31	6219.68	6746.78	-67.2016	494.21	-0.000238038	-0.0246757	16.1231	13.7022	1	41	0.00690778	1.02386e-06	0	-0.00112894	0.54247	0.294873	11.2029	1.06318e-05	1.11565e-05	1.70686e-05	1.3543e-05	1.62489e-05	1.55695e-05	1.34099	0.915715	15.8283	5.93664e-09	2.4992e-09	8.76793e-09	6.37439e-09	2.61279e-09	3.7325e-09	5.74333e-05	0.000136639	0.000148219	67.2016	13702.2	5759.43	14863.4	-22.7984	0.0000000E+000	0.0000000E+000	0.0000000E+000	22.7984	0.0000000E+000	0.0000000E+000	0.0000000E+000	-22.7984	0.0000000E+000	0.0000000E+000	0.0000000E+000	-67.2016	0.0000000E+000	0.0000000E+000	0.0000000E+000	67.2016	0.420328	22.7984	-2.87007e-05
0.79456	4771.91	10067.7	11141.3	-64.6399	513.883	-0.00022823	-0.0246255	19.8959	16.2461	1	41	0.00688916	6.18343e-07	0	-0.00126326	0.374202	0.232414	7.70957	1.05711e-05	1.51028e-05	7.33579e-06	8.37483e-06	1.03971e-05	5.64261e-06	1.18934	2.5017	20.0967	4.66055e-09	2.97209e-09	2.68209e-09	3.35167e-09	1.416e-09	1.12072e-09	3.8443e-05	8.11064e-05	8.97558e-05	64.6399	16246.1	7700.36	17978.6	-25.3601	0.0000000E+000	0.0000000E+000	0.0000000E+000	25.3601	0.0000000E+000	0.0000000E+000	0.0000000E+000	-25.3601	0.0000000E+000	0.0000000E+000	0.0000000E+000	-64.6399	0.0000000E+000	0.0000000E+000	0.0000000E+000	64.6399	0.473983	25.3601	-5.47201e-05
0.398211	8223.87	16382.3	18330.6	-63.3434	552.01	-0.000257736	-0.0245094	24.3968	19.4862	1	41	0.0068914	3.75951e-07	0	-0.00152234	0.203162	0.210684	5.21059	5.30959e-06	5.80728e-06	2.65297e-06	5.35158e-06	7.09043e-06	5.3451e-06	1.60383	5.11601	26.3192	3.70054e-09	2.16736e-09	8.46026e-10	2.43404e-09	2.33678e-09	2.07947e-09	2.4475e-05	4.87552e-05	5.45536e-05	63.3434	19486.2	9782.06	21803.7	-26.6566	0.0000000E+000	0.0000000E+000	0.0000000E+000	26.6566	0.0000000E+000	0.0000000E+000	0.0000000E+000	-26.6566	0.0000000E+000	0.0000000E+000	0.0000000E+000	-63.3434	0.0000000E+000	0.0000000E+000	0.0000000E+000	63.3434	0.501999	26.6566	-0.000106404
0.199573	12470.1	26127.6	28950.9	-64.4859	627.162	-0.000249446	-0.0243197	30.5224	24.8595	1	41	0.00689322	2.381e-07	0	-0.00203388	0.259561	0.16776	3.69244	5.65737e-06	1.02819e-05	6.84448e-06	7.87868e-06	6.04906e-06	3.21334e-06	6.29185	17.9295	29.8684	1.14487e-08	5.93722e-09	5.77816e-09	3.18016e-09	3.10864e-09	1.90188e-09	1.48781e-05	3.11728e-05	3.45413e-05	64.4859	24859.5	11864.9	27545.8	-25.5141	0.0000000E+000	0.0000000E+000	0.0000000E+000	25.5141	0.0000000E+000	0.0000000E+000	0.0000000E+000	-25.5141	0.0000000E+000	0.0000000E+000	0.0000000E+000	-64.4859	0.0000000E+000	0.0000000E+000	0.0000000E+000	64.4859	0.477278	25.5141	-0.000209502
0.0999518	21864.4	45536.7	50513.8	-64.352	776.218	-0.000238874	-0.024375	34.9678	28.4165	1	41	0.00689673	1.36531e-07	0	-0.00304689	0.160144	0.184753	2.82268	2.56154e-06	5.81004e-06	3.24386e-06	5.69807e-06	4.09849e-06	3.71998e-06	7.42283	41.5571	33.2531	6.11647e-09	3.99698e-09	5.36034e-09	2.40721e-09	2.0299e-09	2.35993e-09	8.56876e-06	1.7846e-05	1.97966e-05	64.352	28416.5	13644.2	31522.4	-25.648	0.0000000E+000	0.0000000E+000	0.0000000E+000	25.648	0.0000000E+000	0.0000000E+000	0.0000000E+000	-25.648	0.0000000E+000	0.0000000E+000	0.0000000E+000	-64.352	0.0000000E+000	0.0000000E+000	0.0000000E+000	64.352	0.48015	25.648	-0.000416333
252347	3.56063	1.071	3.71822	-16.7408	781.247	-0.000149094	-0.0273707	0.588885	0.0488587	2	38	0.00721571	0.00194064	0	-0.00308365	-1	-1	-1	0	0	0	0	0	0	-1	-1	-1	0	0	0	0	0	0	0.257547	0.0774677	0.268946	16.7408	48.8587	162.434	169.623	-73.2592	0.0000000E+000	0.0000000E+000	0.0000000E+000	73.2592	0.0000000E+000	0.0000000E+000	0.0000000E+000	-73.2592	0.0000000E+000	0.0000000E+000	0.0000000E+000	-16.7408	0.0000000E+000	0.0000000E+000	0.0000000E+000	16.7408	3.32458	73.2592	-6.93658e-06
126447	3.52665	0.825142	3.62189	-13.1688	784.69	-0.000145049	-0.0271584	1.52539	0.0791713	2	38	0.00722908	0.00199594	0	-0.00310289	-1	-1	-1	0	0	0	0	0	0	-1	-1	-1	0	0	0	0	0	0	0.268838	0.062901	0.276099	13.1688	79.1713	338.377	347.516	-76.8312	0.0000000E+000	0.0000000E+000	0.0000000E+000	76.8312	0.0000000E+000	0.0000000E+000	0.0000000E+000	-76.8312	0.0000000E+000	0.0000000E+000	0.0000000E+000	-13.1688	0.0000000E+000	0.0000000E+000	0.0000000E+000	13.1688	4.27399	76.8312	-1.02575e-05
63362.9	3.58936	1.0102	3.72881	-15.719	788.132	-0.000156253	-0.0264881	2.48643	0.182496	2	38	0.00727312	0.00195052	0	-0.0031316	1.13484	0.818122	18.6228	3.29527e-05	4.06058e-05	3.51628e-05	2.24352e-05	2.70265e-05	2.41295e-05	0.0971403	0.0633186	1.45254	4.11102e-07	9.59711e-07	6.79906e-07	1.04739e-06	4.47314e-07	6.72657e-07	0.258153	0.0726556	0.268182	15.719	182.496	648.428	673.62	-74.2811	0.0000000E+000	0.0000000E+000	0.0000000E+000	74.2811	0.0000000E+000	0.0000000E+000	0.0000000E+000	-74.2811	0.0000000E+000	0.0000000E+000	0.0000000E+000	-15.719	0.0000000E+000	0.0000000E+000	0.0000000E+000	15.719	3.5531	74.2811	-1.06394e-05
31751	3.67618	1.56411	3.99509	-23.0484	791.571	-0.000160409	-0.0262349	3.20475	0.49122	2	38	0.00723729	0.00181154	0	-0.00316079	0.966303	0.635534	18.7865	1.75134e-05	3.11942e-05	2.21934e-05	2.32622e-05	2.44047e-05	2.49182e-05	0.104846	0.0503454	1.58658	7.25326e-07	1.05706e-06	5.77377e-07	8.56799e-07	2.64277e-07	5.0235e-07	0.230326	0.0979973	0.250307	23.0484	491.22	1154.53	1254.69	-66.9516	0.0000000E+000	0.0000000E+000	0.0000000E+000	66.9516	0.0000000E+000	0.0000000E+000	0.0000000E+000	-66.9516	0.0000000E+000	0.0000000E+000	0.0000000E+000	-23.0484	0.0000000E+000	0.0000000E+000	0.0000000E+000	23.0484	2.35033	66.9516	-9.87318e-06
15912.6	3.83321	2.77501	4.73225	-35.9022	795.012	-0.000137854	-0.0274787	3.60424	1.23939	2	38	0.00729088	0.00154068	0	-0.00318533	0.905082	0.31049	18.2276	2.43565e-05	2.19947e-05	2.4186e-05	3.19854e-05	2.07531e-05	2.38123e-05	0.101897	0.0628248	1.85373	7.57468e-07	5.86232e-07	4.97484e-07	4.6703e-07	5.37155e-07	6.03713e-07	0.17117	0.123916	0.211316	35.9022	1239.39	1712.01	2113.54	-54.0978	0.0000000E+000	0.0000000E+000	0.0000000E+000	54.0978	0.0000000E+000	0.0000000E+000	0.0000000E+000	-54.0978	0.0000000E+000	0.0000000E+000	0.0000000E+000	-35.9022	0.0000000E+000	0.0000000E+000	0.0000000E+000	35.9022	1.38133	54.0978	-6.34997e-06
7967.67	4.14037	5.16595	6.6204	-51.2888	798.48	-0.000273298	-0.027218	3.86668	2.35435	2	38	0.00733872	0.0011085	0	-0.00321099	0.959797	0.545076	18.0794	1.52947e-05	4.02691e-05	2.24113e-05	3.36338e-05	1.51013e-05	2.21865e-05	0.234367	0.101811	2.61184	1.34915e-06	9.06451e-07	6.80681e-07	1.28184e-06	6.63951e-07	9.32609e-07	0.0944649	0.117864	0.151048	51.2888	2354.35	1886.95	3017.21	-38.7112	0.0000000E+000	0.0000000E+000	0.0000000E+000	38.7112	0.0000000E+000	0.0000000E+000	0.0000000E+000	-38.7112	0.0000000E+000	0.0000000E+000	0.0000000E+000	-51.2888	0.0000000E+000	0.0000000E+000	0.0000000E+000	51.2888	0.801472	38.7112	-9.83358e-06
3993.72	4.82539	9.77042	10.897	-63.7163	801.945	-0.000286178	-0.0272665	4.07877	3.27898	2	38	0.00665854	0.000611042	0	-0.00323818	0.923487	0.601872	20.4212	2.5405e-05	2.70969e-05	8.17402e-06	2.61024e-05	3.16581e-05	1.65542e-05	0.296392	0.133208	4.74482	5.44536e-07	1.12215e-06	2.87197e-07	4.7171e-07	5.98886e-07	6.7363e-07	0.0406364	0.0822804	0.0917681	63.7163	3278.98	1619.41	3657.08	-26.2837	0.0000000E+000	0.0000000E+000	0.0000000E+000	26.2837	0.0000000E+000	0.0000000E+000	0.0000000E+000	-26.2837	0.0000000E+000	0.0000000E+000	0.0000000E+000	-63.7163	0.0000000E+000	0.0000000E+000	0.0000000E+000	63.7163	0.493877	26.2837	-7.90963e-06
2001.92	6.34643	18.2972	19.3666	-70.8708	805.485	-0.000282748	-0.0265813	4.34498	3.87839	2	38	0.00676362	0.000349241	0	-0.00326449	0.887371	0.53641	20.0395	2.24258e-05	2.36919e-05	1.47898e-05	1.97383e-05	2.31484e-05	2.14739e-05	0.425972	0.37246	8.39809	4.25074e-07	9.4732e-07	2.84386e-07	5.9986e-07	5.63613e-07	1.89806e-07	0.0169208	0.048784	0.0516352	70.8708	3878.39	1345.23	4105.06	-19.1292	0.0000000E+000	0.0000000E+000	0.0000000E+000	19.1292	0.0000000E+000	0.0000000E+000	0.0000000E+000	-19.1292	0.0000000E+000	0.0000000E+000	0.0000000E+000	-70.8708	0.0000000E+000	0.0000000E+000	0.0000000E+000	70.8708	0.346852	19.1292	-7.90369e-06
1002.75	9.7342	34.1069	35.4688	-74.0711	809.059	-0.000304782	-0.0248196	4.65356	4.30305	2	39	0.0072479	0.000204346	0	-0.00329077	0.82847	0.679749	17.6207	2.43187e-05	2.44294e-05	2.64455e-05	1.28546e-05	2.44976e-05	2.30569e-05	0.60558	0.258432	6.48753	8.00416e-07	7.6638e-07	1.56151e-07	3.00888e-07	1.73767e-07	3.22236e-07	0.00773764	0.0271113	0.0281938	74.0711	4303.05	1228.11	4474.88	-15.9289	0.0000000E+000	0.0000000E+000	0.0000000E+000	15.9289	0.0000000E+000	0.0000000E+000	0.0000000E+000	-15.9289	0.0000000E+000	0.0000000E+000	0.0000000E+000	-74.0711	0.0000000E+000	0.0000000E+000	0.0000000E+000	74.0711	0.285403	15.9289	-9.35818e-06
502.588	16.8889	62.3554	64.6021	-74.8451	812.381	-0.000263716	-0.0247439	5.07848	4.73139	2	39	0.00666948	0.000103239	0	-0.00331319	0.753054	0.630256	19.2814	1.97481e-05	1.50768e-05	1.76093e-05	1.63054e-05	2.7648e-05	1.68753e-05	0.907347	0.57898	13.0364	2.7831e-07	4.04536e-07	2.58746e-07	5.41667e-07	4.52515e-07	1.51152e-07	0.00404677	0.014941	0.0154794	74.8451	4731.39	1281.49	4901.86	-15.1549	0.0000000E+000	0.0000000E+000	0.0000000E+000	15.1549	0.0000000E+000	0.0000000E+000	0.0000000E+000	-15.1549	0.0000000E+000	0.0000000E+000	0.0000000E+000	-74.8451	0.0000000E+000	0.0000000E+000	0.0000000E+000	74.8451	0.270849	15.1549	-7.57877e-06
251.853	31.302	110.84	115.175	-74.2299	815.694	-0.000272962	-0.0247717	5.70133	5.28021	2	39	0.00649906	5.64277e-05	0	-0.00333564	1.05571	0.46527	19.9185	8.95959e-06	3.0715e-05	2.00863e-05	3.03178e-05	3.20238e-05	3.16187e-05	1.57955	0.797142	23.4572	1.8725e-07	3.18665e-07	2.45961e-07	4.3138e-07	4.67316e-07	1.85735e-07	0.00235969	0.00835563	0.00868243	74.2299	5280.21	1491.17	5486.73	-15.7701	0.0000000E+000	0.0000000E+000	0.0000000E+000	15.7701	0.0000000E+000	0.0000000E+000	0.0000000E+000	-15.7701	0.0000000E+000	0.0000000E+000	0.0000000E+000	-74.2299	0.0000000E+000	0.0000000E+000	0.0000000E+000	74.2299	0.282407	15.77	-7.47794e-06
126.171	56.511	192.53	200.653	-73.6421	819.011	-0.000258683	-0.0246321	6.5518	6.03212	2	39	0.00643863	3.20884e-05	0	-0.0033582	1.12254	0.465883	20.0373	2.32449e-05	7.48158e-06	2.15869e-05	3.46362e-05	2.18581e-05	4.72111e-05	2.26131	0.814941	40.2339	2.56045e-07	3.06251e-07	2.43242e-07	2.95503e-07	3.28573e-07	2.28443e-07	0.0014036	0.004782	0.00498374	73.6421	6032.12	1770.53	6286.59	-16.3579	0.0000000E+000	0.0000000E+000	0.0000000E+000	16.3579	0.0000000E+000	0.0000000E+000	0.0000000E+000	-16.3579	0.0000000E+000	0.0000000E+000	0.0000000E+000	-73.6421	0.0000000E+000	0.0000000E+000	0.0000000E+000	73.6421	0.293517	16.3579	-7.47819e-06
63.2394	97.7246	341.58	355.285	-74.0344	822.532	-0.000208577	-0.0246631	7.36783	6.81039	2	40	0.00648826	1.82621e-05	0	-0.00338178	1.69015	1.14699	31.1984	3.44451e-05	6.72027e-05	2.43201e-05	3.39094e-05	3.35505e-05	5.22731e-05	1.0001	0.526431	14.2795	4.21686e-08	1.15567e-07	3.4021e-08	9.1901e-08	5.82923e-08	6.09086e-08	0.000774196	0.00270608	0.00281464	74.0344	6810.39	1948.42	7083.63	-15.9656	0.0000000E+000	0.0000000E+000	0.0000000E+000	15.9656	0.0000000E+000	0.0000000E+000	0.0000000E+000	-15.9656	0.0000000E+000	0.0000000E+000	0.0000000E+000	-74.0344	0.0000000E+000	0.0000000E+000	0.0000000E+000	74.0344	0.286095	15.9656	-7.32747e-06
31.6723	171.49	608.8	632.492	-74.2683	825.707	-0.000246548	-0.0245663	8.25403	7.64725	2	40	0.00648227	1.02488e-05	0	-0.00340332	1.36687	1.04207	31.534	3.21981e-05	4.02112e-05	3.54042e-05	2.34665e-05	2.08371e-05	4.54796e-05	1.11678	0.807866	25.5017	5.52109e-08	5.76396e-08	5.1754e-08	2.74377e-08	2.72356e-08	3.69094e-08	0.000428674	0.00152182	0.00158105	74.2683	7647.25	2154.11	7944.85	-15.7317	0.0000000E+000	0.0000000E+000	0.0000000E+000	15.7317	0.0000000E+000	0.0000000E+000	0.0000000E+000	-15.7317	0.0000000E+000	0.0000000E+000	0.0000000E+000	-74.2683	0.0000000E+000	0.0000000E+000	0.0000000E+000	74.2683	0.281684	15.7317	-7.0713e-06
15.879	326.528	1070.52	1119.21	-73.0373	828.88	-0.000237153	-0.0245347	9.36272	8.56579	2	40	0.0064323	5.74719e-06	0	-0.00342482	1.38129	0.79436	31.0097	4.55011e-05	3.80709e-05	1.60434e-05	5.13215e-05	1.78522e-05	1.94393e-05	2.61546	1.40073	45.5448	6.96115e-08	4.90132e-08	4.59011e-08	8.25811e-08	2.33347e-08	3.40008e-08	0.000260675	0.000854618	0.000893489	73.0373	8565.79	2612.73	8955.4	-16.9627	0.0000000E+000	0.0000000E+000	0.0000000E+000	16.9627	0.0000000E+000	0.0000000E+000	0.0000000E+000	-16.9627	0.0000000E+000	0.0000000E+000	0.0000000E+000	-73.0373	0.0000000E+000	0.0000000E+000	0.0000000E+000	73.0373	0.305019	16.9627	-7.07439e-06
7.95573	606.744	1871.22	1967.13	-72.0347	832.606	-0.000225046	-0.0245488	10.6909	9.67384	2	41	0.0064225	3.26491e-06	0	-0.00344967	1.35079	0.94412	27.4595	4.48122e-05	4.39517e-05	1.87242e-05	2.771e-05	3.46743e-05	2.05461e-05	0.822795	0.479278	10.6104	1.34065e-08	9.40897e-09	5.76827e-09	1.39833e-08	1.38822e-08	2.41787e-09	0.000156798	0.000483569	0.000508355	72.0347	9673.84	3136.75	10169.7	-17.9653	0.0000000E+000	0.0000000E+000	0.0000000E+000	17.9653	0.0000000E+000	0.0000000E+000	0.0000000E+000	-17.9653	0.0000000E+000	0.0000000E+000	0.0000000E+000	-72.0347	0.0000000E+000	0.0000000E+000	0.0000000E+000	72.0347	0.324251	17.9653	-8.06628e-06
3.98597	1150.23	3237.07	3435.35	-70.4383	837.527	-0.000260738	-0.024501	12.3349	10.9521	2	41	0.00642735	1.87095e-06	0	-0.00348291	1.1998	0.745881	19.3687	3.29202e-05	3.30114e-05	3.21581e-05	3.26822e-05	2.49394e-05	1.25285e-05	0.726862	0.695602	13.241	3.46304e-09	6.73433e-09	4.76031e-09	7.33486e-09	3.89207e-09	3.66241e-09	9.74636e-05	0.00027429	0.000291091	70.4383	10952.1	3891.6	11622.9	-19.5617	0.0000000E+000	0.0000000E+000	0.0000000E+000	19.5617	0.0000000E+000	0.0000000E+000	0.0000000E+000	-19.5617	0.0000000E+000	0.0000000E+000	0.0000000E+000	-70.4383	0.0000000E+000	0.0000000E+000	0.0000000E+000	70.4383	0.35533	19.5617	-1.30165e-05
1.99783	2205.23	5429.58	5860.33	-67.8954	846.056	-0.000252776	-0.024614	14.6722	12.5946	2	41	0.00642779	1.09683e-06	0	-0.00354087	0.841304	0.472183	13.3569	1.60512e-05	1.84747e-05	2.5024e-05	2.60298e-05	1.47901e-05	1.85257e-05	1.04437	0.863313	15.972	5.07959e-09	4.95181e-09	3.36922e-09	5.76219e-09	2.46948e-09	3.55491e-09	6.42112e-05	0.000158097	0.000170639	67.8954	12594.6	5115.32	13593.8	-22.1046	0.0000000E+000	0.0000000E+000	0.0000000E+000	22.1046	0.0000000E+000	0.0000000E+000	0.0000000E+000	-22.1046	0.0000000E+000	0.0000000E+000	0.0000000E+000	-67.8954	0.0000000E+000	0.0000000E+000	0.0000000E+000	67.8954	0.406152	22.1046	-2.33255e-05
1.00122	3986.15	8863.06	9718.19	-65.7842	861.924	-0.000239098	-0.0244229	17.9353	14.9178	2	41	0.00642684	6.6132e-07	0	-0.00364842	0.453708	0.20841	9.26262	7.60939e-06	7.69918e-06	1.36004e-05	1.87716e-05	9.4464e-06	6.34187e-06	1.21684	1.52703	19.8837	5.33238e-09	2.60251e-09	3.77066e-09	2.41009e-09	1.93269e-09	1.5671e-09	4.22068e-05	9.38454e-05	0.0001029	65.7842	14917.8	6709.26	16357.1	-24.2158	0.0000000E+000	0.0000000E+000	0.0000000E+000	24.2158	0.0000000E+000	0.0000000E+000	0.0000000E+000	-24.2158	0.0000000E+000	0.0000000E+000	0.0000000E+000	-65.7842	0.0000000E+000	0.0000000E+000	0.0000000E+000	65.7842	0.449748	24.2158	-4.36528e-05
0.501541	7170.97	14394.3	16081.6	-63.5183	892.418	-0.000237353	-0.0243918	22.0457	17.6622	2	41	0.0064361	4.00215e-07	0	-0.00385527	0.38907	0.162141	6.53594	4.42481e-06	7.08424e-06	6.49352e-06	1.22732e-05	1.40077e-05	9.8559e-06	2.23911	4.43563	26.9164	5.51225e-09	4.45174e-09	3.40142e-09	2.82765e-09	1.44102e-09	1.47524e-09	2.7728e-05	5.56584e-05	6.21828e-05	63.5183	17662.2	8798.98	19732.6	-26.4817	0.0000000E+000	0.0000000E+000	0.0000000E+000	26.4817	0.0000000E+000	0.0000000E+000	0.0000000E+000	-26.4817	0.0000000E+000	0.0000000E+000	0.0000000E+000	-63.5183	0.0000000E+000	0.0000000E+000	0.0000000E+000	63.5183	0.498182	26.4817	-8.47605e-05
0.251222	12357.8	24387.3	27339.6	-63.1273	952.313	-0.000255382	-0.0246302	25.9776	20.67	2	41	0.00643333	2.35311e-07	0	-0.0042629	0.24553	0.128488	4.53215	6.56708e-06	5.64051e-06	8.4371e-06	6.39309e-06	3.53443e-06	5.3625e-06	4.05447	14.0048	36.3709	6.72021e-09	3.9914e-09	2.81152e-09	2.60886e-09	9.79575e-10	1.69423e-09	1.65331e-05	3.26271e-05	3.65769e-05	63.1273	20670	10474.1	23172.4	-26.8727	0.0000000E+000	0.0000000E+000	0.0000000E+000	26.8727	0.0000000E+000	0.0000000E+000	0.0000000E+000	-26.8727	0.0000000E+000	0.0000000E+000	0.0000000E+000	-63.1273	0.0000000E+000	0.0000000E+000	0.0000000E+000	63.1273	0.50673	26.8727	-0.000168158
0.125939	22470.6	39224.7	45205.2	-60.1929	1070.88	-0.000243911	-0.0243857	32.2182	24.2574	2	41	0.00643352	1.42318e-07	0	-0.00507002	0.18621	0.154237	3.17858	2.69207e-06	9.32474e-06	3.07178e-06	2.91391e-06	3.19155e-06	4.33299e-06	9.66177	40.2115	35.9161	9.35084e-09	5.24189e-09	3.61619e-09	3.2206e-09	2.16507e-09	2.73828e-09	1.09961e-05	1.91948e-05	2.21214e-05	60.1929	24257.4	13896.3	27955.9	-29.8071	0.0000000E+000	0.0000000E+000	0.0000000E+000	29.8071	0.0000000E+000	0.0000000E+000	0.0000000E+000	-29.8071	0.0000000E+000	0.0000000E+000	0.0000000E+000	-60.1929	0.0000000E+000	0.0000000E+000	0.0000000E+000	60.1929	0.572869	29.8071	-0.000331252
317705	3.60627	1.27742	3.82583	-19.5053	1136.16	-0.000154314	-0.025924	0.392158	0.04372	3	38	0.00713674	0.00186541	0	-0.00551839	-1	-1	-1	0	0	0	0	0	0	-1	-1	-1	0	0	0	0	0	0	0.246381	0.0872738	0.261381	19.5053	43.72	123.425	130.939	-70.4947	0.0000000E+000	0.0000000E+000	0.0000000E+000	70.4947	0.0000000E+000	0.0000000E+000	0.0000000E+000	-70.4947	0.0000000E+000	0.0000000E+000	0.0000000E+000	-19.5053	0.0000000E+000	0.0000000E+000	0.0000000E+000	19.5053	2.82308	70.4947	-9.49721e-06
159201	3.52864	0.862004	3.6324	-13.7278	1139.6	-0.00014669	-0.026585	1.15975	0.0653126	3	38	0.00721698	0.00198683	0	-0.00553375	-1	-1	-1	0	0	0	0	0	0	-1	-1	-1	0	0	0	0	0	0	0.267436	0.0653313	0.2753	13.7278	65.3126	267.359	275.221	-76.2722	0.0000000E+000	0.0000000E+000	0.0000000E+000	76.2722	0.0000000E+000	0.0000000E+000	0.0000000E+000	-76.2722	0.0000000E+000	0.0000000E+000	0.0000000E+000	-13.7278	0.0000000E+000	0.0000000E+000	0.0000000E+000	13.7278	4.09353	76.2722	-3.5875e-06
79767.3	3.56009	0.907944	3.67405	-14.3074	1143.04	-0.000145124	-0.0259873	2.19754	0.134204	3	38	0.00724013	0.00197062	0	-0.00555384	0.964372	1.00756	18.8191	3.32994e-05	2.41998e-05	4.04203e-05	2.35598e-05	9.12735e-06	1.97871e-05	0.0795118	0.0764747	1.4521	6.01301e-07	7.8204e-07	5.19084e-07	6.66151e-07	5.23421e-07	5.24634e-07	0.263738	0.067262	0.272179	14.3074	134.204	526.22	543.063	-75.6926	0.0000000E+000	0.0000000E+000	0.0000000E+000	75.6926	0.0000000E+000	0.0000000E+000	0.0000000E+000	-75.6926	0.0000000E+000	0.0000000E+000	0.0000000E+000	-14.3074	0.0000000E+000	0.0000000E+000	0.0000000E+000	14.3074	3.92105	75.6926	-9.63225e-06
39971.8	3.64164	1.32692	3.87585	-20.0204	1146.48	-0.000135897	-0.0259128	3.0007	0.351703	3	38	0.0072725	0.00187636	0	-0.00557879	1.01806	0.416438	18.5738	3.22261e-05	2.32614e-05	3.99131e-05	2.62452e-05	2.57799e-05	1.24978e-05	0.106742	0.0432528	1.54403	1.34029e-06	7.78945e-07	7.61131e-07	5.32033e-07	3.75229e-07	5.77947e-07	0.242417	0.0883302	0.258008	20.0204	351.703	965.225	1027.3	-69.9796	0.0000000E+000	0.0000000E+000	0.0000000E+000	69.9796	0.0000000E+000	0.0000000E+000	0.0000000E+000	-69.9796	0.0000000E+000	0.0000000E+000	0.0000000E+000	-20.0204	0.0000000E+000	0.0000000E+000	0.0000000E+000	20.0204	2.74444	69.9796	-9.76269e-06
20032.3	3.78336	2.29474	4.42489	-31.2383	1149.93	-0.00014326	-0.0257564	3.46223	0.931149	3	38	0.00726494	0.00164184	0	-0.005603	0.925859	0.683863	18.7438	3.18198e-05	1.71502e-05	1.97742e-05	2.45622e-05	2.71318e-05	2.84141e-05	0.104284	0.0532012	1.73958	8.77668e-07	6.697e-07	5.49964e-07	6.07014e-07	5.89462e-07	5.90484e-07	0.193229	0.1172	0.225994	31.2383	931.149	1535.19	1795.51	-58.7617	0.0000000E+000	0.0000000E+000	0.0000000E+000	58.7617	0.0000000E+000	0.0000000E+000	0.0000000E+000	-58.7617	0.0000000E+000	0.0000000E+000	0.0000000E+000	-31.2383	0.0000000E+000	0.0000000E+000	0.0000000E+000	31.2383	1.64871	58.7617	-6.01641e-06
10039.3	4.01124	4.26439	5.8545	-46.7521	1153.37	-0.00016026	-0.0262051	3.71755	1.97239	3	38	0.00727113	0.00124197	0	-0.00562774	0.899856	0.587323	18.3018	3.26673e-05	2.04135e-05	1.90125e-05	2.3241e-05	2.73659e-05	2.67252e-05	0.131176	0.0687725	2.36595	1.09875e-06	4.75719e-07	6.25083e-07	6.40069e-07	2.53852e-07	3.09581e-07	0.117031	0.124417	0.170809	46.7521	1972.39	1855.3	2707.85	-43.2479	0.0000000E+000	0.0000000E+000	0.0000000E+000	43.2479	0.0000000E+000	0.0000000E+000	0.0000000E+000	-43.2479	0.0000000E+000	0.0000000E+000	0.0000000E+000	-46.7521	0.0000000E+000	0.0000000E+000	0.0000000E+000	46.7521	0.940636	43.2479	-9.01927e-06
5028.39	4.53397	8.01398	9.20765	-60.5007	1156.9	-0.000264201	-0.0262461	3.94951	2.99187	3	38	0.00681854	0.00074053	0	-0.00565376	1.30592	0.759902	19.9606	4.01753e-05	2.28541e-05	1.69786e-05	2.24608e-05	5.62989e-05	2.9944e-05	0.255502	0.105815	3.94267	1.00251e-06	1.07844e-06	4.56002e-07	3.5533e-07	7.34327e-07	3.99588e-07	0.0534788	0.0945259	0.108605	60.5007	2991.87	1692.67	3437.5	-29.4993	0.0000000E+000	0.0000000E+000	0.0000000E+000	29.4993	0.0000000E+000	0.0000000E+000	0.0000000E+000	-29.4993	0.0000000E+000	0.0000000E+000	0.0000000E+000	-60.5007	0.0000000E+000	0.0000000E+000	0.0000000E+000	60.5007	0.565758	29.4993	-7.81374e-06
2519.19	5.74148	15.0314	16.0906	-69.0949	1160.44	-0.000299637	-0.0270766	4.20299	3.66786	3	38	0.00677496	0.00042105	0	-0.00567826	1.06304	0.505796	19.8613	3.06693e-05	3.62013e-05	2.67233e-05	2.37078e-05	1.01005e-05	3.02059e-05	0.506199	0.301403	6.95937	6.23188e-07	1.41902e-06	7.42151e-07	8.2306e-07	5.72153e-07	4.63124e-07	0.0221757	0.0580569	0.0621479	69.0949	3667.86	1400.99	3926.32	-20.9051	0.0000000E+000	0.0000000E+000	0.0000000E+000	20.9051	0.0000000E+000	0.0000000E+000	0.0000000E+000	-20.9051	0.0000000E+000	0.0000000E+000	0.0000000E+000	-69.0949	0.0000000E+000	0.0000000E+000	0.0000000E+000	69.0949	0.381965	20.9051	-7.70049e-06
1262.98	8.29314	28.102	29.3001	-73.5582	1163.76	-0.000281481	-0.0256578	4.48422	4.12498	3	38	0.0064352	0.00021963	0	-0.00570244	1.37198	0.702892	21.0358	1.96326e-05	3.894e-05	5.95591e-05	2.38188e-05	2.29349e-05	2.02569e-05	0.912892	0.3913	13.3415	7.75162e-07	1.03791e-06	6.81337e-07	9.0017e-07	6.25815e-07	5.51692e-07	0.00966005	0.0327339	0.0341295	73.5582	4124.98	1217.32	4300.85	-16.4418	0.0000000E+000	0.0000000E+000	0.0000000E+000	16.4418	0.0000000E+000	0.0000000E+000	0.0000000E+000	-16.4418	0.0000000E+000	0.0000000E+000	0.0000000E+000	-73.5582	0.0000000E+000	0.0000000E+000	0.0000000E+000	73.5582	0.295109	16.4418	-7.77423e-06
632.773	14.0475	51.8552	53.7242	-74.8425	1167.33	-0.000259727	-0.0246289	4.85043	4.51882	3	39	0.00662695	0.000123351	0	-0.00572677	1.18584	0.692287	19.3575	3.37217e-05	2.40778e-05	2.63369e-05	3.32197e-05	3.15208e-05	1.73908e-05	0.814572	0.326532	10.3444	3.41266e-07	3.57503e-07	9.35982e-08	7.46038e-07	2.69425e-07	1.04166e-07	0.00486697	0.017966	0.0186136	74.8425	4518.82	1224.14	4681.69	-15.1575	0.0000000E+000	0.0000000E+000	0.0000000E+000	15.1575	0.0000000E+000	0.0000000E+000	0.0000000E+000	-15.1575	0.0000000E+000	0.0000000E+000	0.0000000E+000	-74.8425	0.0000000E+000	0.0000000E+000	0.0000000E+000	74.8425	0.270898	15.1575	-7.63116e-06
316.927	25.8427	92.331	95.8794	-74.3635	1170.65	-0.0002579	-0.0246621	5.43893	5.0438	3	39	0.00636777	6.64143e-05	0	-0.00574927	0.869332	0.432489	20.3604	1.77375e-05	1.34287e-05	2.02922e-05	2.85641e-05	1.902e-05	1.98342e-05	1.13007	0.435705	20.2046	2.5655e-07	3.31604e-07	2.83679e-07	2.93921e-07	1.61427e-07	3.06398e-07	0.00281118	0.0100438	0.0104298	74.3635	5043.8	1411.72	5237.64	-15.6365	0.0000000E+000	0.0000000E+000	0.0000000E+000	15.6365	0.0000000E+000	0.0000000E+000	0.0000000E+000	-15.6365	0.0000000E+000	0.0000000E+000	0.0000000E+000	-74.3635	0.0000000E+000	0.0000000E+000	0.0000000E+000	74.3635	0.279892	15.6365	-7.52756e-06
158.831	48.4482	163.253	170.29	-73.4708	1173.97	-0.000228057	-0.0250475	6.13796	5.64114	3	39	0.00629722	3.69793e-05	0	-0.00577196	1.01227	0.29818	20.7019	2.79906e-05	1.79671e-05	2.70123e-05	2.95891e-05	2.73616e-05	1.62959e-05	1.68662	0.420814	36.316	2.07508e-07	3.19427e-07	2.42007e-07	1.32955e-07	2.15371e-07	2.527e-07	0.0016707	0.00562965	0.00587233	73.4708	5641.14	1674.11	5884.31	-16.5292	0.0000000E+000	0.0000000E+000	0.0000000E+000	16.5292	0.0000000E+000	0.0000000E+000	0.0000000E+000	-16.5292	0.0000000E+000	0.0000000E+000	0.0000000E+000	-73.4708	0.0000000E+000	0.0000000E+000	0.0000000E+000	73.4708	0.296767	16.5292	-7.69063e-06
79.6177	82.7415	285.657	297.399	-73.8462	1177.73	-0.000260901	-0.0247692	6.99787	6.4562	3	40	0.00697628	2.34576e-05	0	-0.00579749	1.52682	0.670505	28.2267	2.01933e-05	4.5986e-05	2.68155e-05	4.75018e-05	4.7102e-05	4.83591e-05	0.792012	0.26317	11.0626	4.00442e-08	8.24156e-08	4.21857e-08	1.13371e-07	5.73773e-08	6.29754e-08	0.000935501	0.00322973	0.00336249	73.8462	6456.2	1870.06	6721.58	-16.1538	0.0000000E+000	0.0000000E+000	0.0000000E+000	16.1538	0.0000000E+000	0.0000000E+000	0.0000000E+000	-16.1538	0.0000000E+000	0.0000000E+000	0.0000000E+000	-73.8462	0.0000000E+000	0.0000000E+000	0.0000000E+000	73.8462	0.289653	16.1538	-7.34629e-06
39.8851	141.918	506.386	525.897	-74.3442	1180.95	-0.000220843	-0.0248262	7.88002	7.30617	3	40	0.0069347	1.31864e-05	0	-0.00581949	1.69393	1.08613	28.601	3.82433e-05	4.72791e-05	3.68071e-05	6.54046e-05	3.68865e-05	4.48492e-05	1.03224	0.776908	19.2346	4.54143e-08	6.56602e-08	2.04589e-08	6.56283e-08	5.89524e-08	3.68113e-08	0.00051314	0.00183097	0.00190151	74.3442	7306.17	2047.6	7587.67	-15.6558	0.0000000E+000	0.0000000E+000	0.0000000E+000	15.6558	0.0000000E+000	0.0000000E+000	0.0000000E+000	-15.6558	0.0000000E+000	0.0000000E+000	0.0000000E+000	-74.3442	0.0000000E+000	0.0000000E+000	0.0000000E+000	74.3442	0.280256	15.6559	-7.33271e-06
19.9808	263.484	908.058	945.512	-73.8193	1184.12	-0.000229063	-0.0247733	8.7719	8.09071	3	40	0.00695007	7.3506e-06	0	-0.00584118	1.52774	1.07792	28.2602	4.05753e-05	3.53725e-05	3.60545e-05	1.75828e-05	3.40801e-05	5.30963e-05	1.91763	1.18416	34.9518	5.60067e-08	5.03038e-08	3.8285e-08	3.78004e-08	5.29711e-08	7.11422e-08	0.000294727	0.00101573	0.00105763	73.8193	8090.71	2347.62	8424.42	-16.1807	0.0000000E+000	0.0000000E+000	0.0000000E+000	16.1807	0.0000000E+000	0.0000000E+000	0.0000000E+000	-16.1807	0.0000000E+000	0.0000000E+000	0.0000000E+000	-73.8193	0.0000000E+000	0.0000000E+000	0.0000000E+000	73.8193	0.290162	16.1807	-7.26862e-06
10.016	498.492	1579.08	1655.9	-72.4799	1187.68	-0.000214188	-0.0246318	10.0628	9.15086	3	41	0.00690799	4.17175e-06	0	-0.00586515	1.70737	1.03104	36.718	3.06685e-05	5.04648e-05	4.42191e-05	4.41093e-05	5.6942e-05	3.40232e-05	0.86277	0.281372	11.664	9.08278e-09	1.3158e-08	7.91792e-09	2.61588e-08	1.13092e-08	6.9425e-09	0.000181799	0.000575888	0.000603902	72.4799	9150.86	2888.79	9596.01	-17.5201	0.0000000E+000	0.0000000E+000	0.0000000E+000	17.5201	0.0000000E+000	0.0000000E+000	0.0000000E+000	-17.5201	0.0000000E+000	0.0000000E+000	0.0000000E+000	-72.4799	0.0000000E+000	0.0000000E+000	0.0000000E+000	72.4799	0.315685	17.5201	-7.25779e-06
5.01766	957.015	2745.92	2907.91	-70.7854	1191.89	-0.000237731	-0.0245595	11.5513	10.3002	3	41	0.00690646	2.37506e-06	0	-0.00589351	1.00349	0.582568	21.2585	2.75643e-05	2.92988e-05	2.26661e-05	1.33889e-05	2.57738e-05	3.52046e-05	0.76987	0.399531	11.9622	8.14738e-09	9.12319e-09	3.72305e-09	9.61e-09	5.30252e-09	4.29704e-09	0.000113177	0.000324732	0.00034389	70.7854	10300.2	3589.85	10907.8	-19.2146	0.0000000E+000	0.0000000E+000	0.0000000E+000	19.2146	0.0000000E+000	0.0000000E+000	0.0000000E+000	-19.2146	0.0000000E+000	0.0000000E+000	0.0000000E+000	-70.7854	0.0000000E+000	0.0000000E+000	0.0000000E+000	70.7854	0.348523	19.2146	-1.09414e-05
2.51368	1835.55	4631.96	4982.4	-68.3826	1198.92	-0.00023004	-0.0246612	13.6693	11.814	3	41	0.00688311	1.38148e-06	0	-0.00594129	0.779142	0.323308	14.2651	1.45677e-05	2.20102e-05	2.33183e-05	2.11904e-05	2.17808e-05	1.86317e-05	0.908895	0.667871	14.1135	6.02392e-09	4.70837e-09	4.68756e-09	5.50882e-09	4.34917e-09	4.00676e-09	7.39417e-05	0.00018659	0.000200706	68.3826	11814	4681.66	12707.8	-21.6174	0.0000000E+000	0.0000000E+000	0.0000000E+000	21.6174	0.0000000E+000	0.0000000E+000	0.0000000E+000	-21.6174	0.0000000E+000	0.0000000E+000	0.0000000E+000	-68.3826	0.0000000E+000	0.0000000E+000	0.0000000E+000	68.3826	0.39628	21.6174	-1.9099e-05
1.25968	3329.4	7611.43	8307.75	-66.3744	1211.75	-0.000231304	-0.0246794	16.5995	13.9335	3	41	0.00690313	8.30926e-07	0	-0.00602913	0.435087	0.379862	9.81765	1.17634e-05	6.60217e-06	1.02131e-05	1.72551e-05	9.64063e-06	1.2293e-05	1.04494	2.36361	17.4164	3.99857e-09	3.81251e-09	1.83517e-09	4.53303e-09	2.51168e-09	3.02961e-09	4.82391e-05	0.000110281	0.000120369	66.3744	13933.5	6094.81	15208.2	-23.6256	0.0000000E+000	0.0000000E+000	0.0000000E+000	23.6256	0.0000000E+000	0.0000000E+000	0.0000000E+000	-23.6256	0.0000000E+000	0.0000000E+000	0.0000000E+000	-66.3744	0.0000000E+000	0.0000000E+000	0.0000000E+000	66.3744	0.437422	23.6256	-3.5589e-05
0.631645	5860.36	12456	13765.7	-64.8037	1236.21	-0.000241096	-0.0245415	20.2288	16.5625	3	41	0.00690252	5.01429e-07	0	-0.00619489	0.389082	0.174668	6.59769	7.99309e-06	8.86127e-06	9.9199e-06	1.03166e-05	1.40498e-05	1.09767e-05	1.30897	2.72036	22.8846	3.67528e-09	1.25089e-09	3.01728e-09	3.03484e-09	2.33444e-09	1.81534e-09	3.09262e-05	6.57324e-05	7.26442e-05	64.8037	16562.5	7792.45	18304.1	-25.1963	0.0000000E+000	0.0000000E+000	0.0000000E+000	25.1963	0.0000000E+000	0.0000000E+000	0.0000000E+000	-25.1963	0.0000000E+000	0.0000000E+000	0.0000000E+000	-64.8037	0.0000000E+000	0.0000000E+000	0.0000000E+000	64.8037	0.470486	25.1963	-6.79503e-05
0.316193	10077.9	20333.6	22694.1	-63.6357	1283.98	-0.000227182	-0.0245702	24.7544	19.8728	3	41	0.00689356	3.0376e-07	0	-0.00652043	0.280113	0.200771	4.74175	8.60616e-06	8.76692e-06	4.44638e-06	1.05709e-05	4.68482e-06	5.34085e-06	2.37188	7.58358	31.2925	3.34771e-09	3.39675e-09	2.61748e-09	2.79925e-09	1.5051e-09	1.81173e-09	1.9568e-05	3.94812e-05	4.40644e-05	63.6357	19872.8	9849.5	22179.7	-26.3643	0.0000000E+000	0.0000000E+000	0.0000000E+000	26.3643	0.0000000E+000	0.0000000E+000	0.0000000E+000	-26.3643	0.0000000E+000	0.0000000E+000	0.0000000E+000	-63.6357	0.0000000E+000	0.0000000E+000	0.0000000E+000	63.6357	0.495628	26.3643	-0.00013392
0.158419	15254.1	31736.6	35212.2	-64.3288	1378.36	-0.000244519	-0.0244135	31.6558	25.7151	3	41	0.00689247	1.95741e-07	0	-0.00716498	0.270719	0.124283	3.38499	7.79625e-06	7.65909e-06	1.94825e-06	8.02713e-06	8.50492e-06	5.35765e-06	10.3517	44.0182	31.8378	1.36137e-08	8.24751e-09	6.75314e-09	7.1266e-09	4.18849e-09	4.2105e-09	1.23027e-05	2.55961e-05	2.83993e-05	64.3288	25715.1	12359.9	28531.2	-25.6712	0.0000000E+000	0.0000000E+000	0.0000000E+000	25.6712	0.0000000E+000	0.0000000E+000	0.0000000E+000	-25.6712	0.0000000E+000	0.0000000E+000	0.0000000E+000	-64.3288	0.0000000E+000	0.0000000E+000	0.0000000E+000	64.3288	0.480649	25.6712	-0.000264069
0.0999518	26675.5	37889.2	46337.6	-54.8529	1488.56	-0.000239624	-0.0247674	42.0256	28.0981	3	41	0.00689469	1.48792e-07	0	-0.00791816	0.163624	0.119454	2.81172	2.4966e-06	5.3161e-06	2.77878e-06	5.33393e-06	5.37891e-06	3.13969e-06	21.8657	68.173	37.1756	2.29929e-08	1.45059e-08	1.04051e-08	8.73344e-09	6.70818e-09	6.19592e-09	1.24236e-05	1.76461e-05	2.15807e-05	54.8529	28098.1	19782.2	34363.4	-35.1471	0.0000000E+000	0.0000000E+000	0.0000000E+000	35.1471	0.0000000E+000	0.0000000E+000	0.0000000E+000	-35.1471	0.0000000E+000	0.0000000E+000	0.0000000E+000	-54.8529	0.0000000E+000	0.0000000E+000	0.0000000E+000	54.8529	0.704041	35.1471	-0.000421194