File: Python/Data/RDE/240219-CV-EIS-Fe2Fe3_5mM-HCl1M-1225RPM-Ag_AgCl_BLF8-GC-RDE_03_PEIS_C15.mpt
EC-Lab ASCII FILE
Nb header lines : 66

Potentio Electrochemical Impedance Spectroscopy

Run on channel : 15 (SN 19485)
User :
Electrode connection : standard
Potential control : Ewe
Ewe ctrl range : min = -1.00 V, max = 1.00 V
Ewe,I filtering : <None>
Safety Limits :
	Do not start on E overload
Channel : Floating
Acquisition started on : 02/19/2024 16:52:12.543
Loaded Setting File :  C:\Data\mathias\RDE-RPM-variation\240219-CV-EIS-Fe2Fe3_5mM-HCl1M-RPMtest-Ag_AgCl_BLF8-GC-RDE.mps
Saved on :
	File : 240219-CV-EIS-Fe2Fe3_5mM-HCl1M-1225RPM-Ag_AgCl_BLF8-GC-RDE_03_PEIS_C15.mpr
	Directory : C:\Data\mathias\RDE-RPM-variation\
	Host : 192.168.0.1
Device : VMP-300 (SN 0826)
Address : USB
EC-Lab for windows v11.52 (software)
Internet server v11.52 (firmware)
Command interpretor v11.52 (firmware)
Electrode material :
Initial state :
Electrolyte :
Comments :
Cable : special
Electrode surface area : 0.001 cm²
Characteristic mass : 0.001 g
Equivalent Weight : 0.000 g/eq.
Density : 0.000 g/cm3
Volume (V) : 0.001 cm³
Record EIS quality indicators
Cycle Definition : Charge/Discharge alternance
Mode                Single sine
E (V)               0.0000
vs.                 Ref
tE (h:m:s)          0:00:0.0000
record              0
dI                  0.000
unit dI             mA
dt (s)              0.000
fi                  400.000
unit fi             kHz
ff                  100.000
unit ff             mHz
Nd                  10
Points              per decade
spacing             Logarithmic
Va (mV)             7.0
pw                  0.10
Na                  3
corr                0
E range min (V)     -1.000
E range max (V)     1.000
I Range             Auto
Bandwidth           8
nc cycles           2
goto Ns'            0
nr cycles           0
inc. cycle          1

freq/Hz	Re(Z)/Ohm	-Im(Z)/Ohm	|Z|/Ohm	Phase(Z)/deg	time/s	<Ewe>/V	<I>/mA	Cs/µF	Cp/µF	cycle number	I Range	|Ewe|/V	|I|/A	Ns	(Q-Qo)/mA.h	THD Ewe/%	NSD Ewe/%	NSR Ewe/%	|Ewe h2|/V	|Ewe h3|/V	|Ewe h4|/V	|Ewe h5|/V	|Ewe h6|/V	|Ewe h7|/V	THD I/%	NSD I/%	NSR I/%	|I h2|/A	|I h3|/A	|I h4|/A	|I h5|/A	|I h6|/A	|I h7|/A	Re(Y)/Ohm-1	Im(Y)/Ohm-1	|Y|/Ohm-1	Phase(Y)/deg	Re(C)/nF	Im(C)/nF	|C|/nF	Phase(C)/deg	Re(M)	Im(M)	|M|	Phase(M)/deg	Re(Permittivity)	Im(Permittivity)	|Permittivity|	Phase(Permittivity)/deg	Re(Resistivity)/Ohm.cm	Im(Resistivity)/Ohm.cm	|Resistivity|/Ohm.cm	Phase(Resistivity)/deg	Re(Conductivity)/mS/cm	Im(Conductivity)/mS/cm	|Conductivity|/mS/cm	Phase(Conductivity)/deg	Tan(Delta)	Loss Angle(Delta)/deg	dq/mA.h
399996	3.68135	1.3077	3.90671	-19.5563	362.416	-0.000158378	-0.401523	0.304267	0.0340918	1	38	0.00648203	0.0016592	0	-0.00025466	-1	-1	-1	0	0	0	0	0	0	-1	-1	-1	0	0	0	0	0	0	0.241204	0.0856814	0.25597	19.5563	34.0918	95.9728	101.848	-70.4437	0.0000000E+000	0.0000000E+000	0.0000000E+000	70.4437	0.0000000E+000	0.0000000E+000	0.0000000E+000	-70.4437	0.0000000E+000	0.0000000E+000	0.0000000E+000	-19.5563	0.0000000E+000	0.0000000E+000	0.0000000E+000	19.5563	2.81512	70.4437	-0.00025466
200434	3.5615	0.815326	3.65363	-12.8944	365.857	-0.000142086	-0.396185	0.973905	0.0484987	1	38	0.00725357	0.0019853	0	-0.00062733	-1	-1	-1	0	0	0	0	0	0	-1	-1	-1	0	0	0	0	0	0	0.266798	0.0610776	0.2737	12.8944	48.4987	211.851	217.332	-77.1056	0.0000000E+000	0.0000000E+000	0.0000000E+000	77.1056	0.0000000E+000	0.0000000E+000	0.0000000E+000	-77.1056	0.0000000E+000	0.0000000E+000	0.0000000E+000	-12.8944	0.0000000E+000	0.0000000E+000	0.0000000E+000	12.8944	4.36819	77.1056	-0.000121373
100431	3.54744	0.786883	3.63366	-12.5067	369.298	-0.000125551	-0.396127	2.01393	0.0944443	1	38	0.00724817	0.00199473	0	-0.00100457	0.711319	0.370671	15.1177	1.33851e-05	2.4162e-05	2.12962e-05	2.88903e-05	8.74825e-06	1.36902e-05	0.0884006	0.0600121	1.43994	6.69991e-07	6.13638e-07	9.06672e-07	6.46928e-07	4.22417e-07	6.91701e-07	0.268674	0.0595965	0.275204	12.5067	94.4442	425.775	436.124	-77.4933	0.0000000E+000	0.0000000E+000	0.0000000E+000	77.4933	0.0000000E+000	0.0000000E+000	0.0000000E+000	-77.4933	0.0000000E+000	0.0000000E+000	0.0000000E+000	-12.5067	0.0000000E+000	0.0000000E+000	0.0000000E+000	12.5067	4.50821	77.4933	-0.000129357
50326.6	3.63648	1.11947	3.80489	-17.1106	372.739	-0.000135375	-0.394412	2.82496	0.244539	1	38	0.00727868	0.00191298	0	-0.00138063	0.827792	0.561788	15.8328	2.36143e-05	2.10453e-05	3.31663e-05	1.60809e-05	1.66973e-05	2.39201e-05	0.0929867	0.0675075	1.49039	5.71991e-07	5.22631e-07	1.20412e-06	5.75014e-07	4.21965e-07	5.49888e-07	0.251187	0.077326	0.262819	17.1106	244.539	794.363	831.151	-72.8894	0.0000000E+000	0.0000000E+000	0.0000000E+000	72.8894	0.0000000E+000	0.0000000E+000	0.0000000E+000	-72.8894	0.0000000E+000	0.0000000E+000	0.0000000E+000	-17.1106	0.0000000E+000	0.0000000E+000	0.0000000E+000	17.1106	3.24841	72.8894	-0.00012823
25219	3.79724	1.89169	4.24235	-26.4813	376.183	-0.00014751	-0.393526	3.33613	0.663329	1	38	0.00724592	0.001708	0	-0.00175678	1.04362	0.542332	15.893	1.89269e-05	2.28154e-05	4.10607e-05	2.60003e-05	4.24508e-05	1.86069e-05	0.0919811	0.0653958	1.77075	6.27901e-07	5.73028e-07	7.35221e-07	6.89542e-07	5.68212e-07	3.05588e-07	0.210987	0.105108	0.235718	26.4813	663.329	1331.52	1487.6	-63.5187	0.0000000E+000	0.0000000E+000	0.0000000E+000	63.5187	0.0000000E+000	0.0000000E+000	0.0000000E+000	-63.5187	0.0000000E+000	0.0000000E+000	0.0000000E+000	-26.4813	0.0000000E+000	0.0000000E+000	0.0000000E+000	26.4813	2.00733	63.5187	-0.000128129
12637.3	4.13864	3.38845	5.34883	-39.3084	379.622	-0.000115951	-0.395755	3.71675	1.49159	1	38	0.00737408	0.00137863	0	-0.00213041	0.92083	0.570424	15.2858	2.13454e-05	3.6185e-05	1.49223e-05	2.4589e-05	1.52621e-05	3.81568e-05	0.132706	0.107917	2.1794	1.28818e-06	2.73201e-07	4.88106e-07	5.34512e-07	5.16251e-07	6.6215e-07	0.144657	0.118436	0.186957	39.3084	1491.59	1821.82	2354.54	-50.6916	0.0000000E+000	0.0000000E+000	0.0000000E+000	50.6916	0.0000000E+000	0.0000000E+000	0.0000000E+000	-50.6916	0.0000000E+000	0.0000000E+000	0.0000000E+000	-39.3084	0.0000000E+000	0.0000000E+000	0.0000000E+000	39.3084	1.2214	50.6916	-0.000126554
6332.63	4.86506	6.09861	7.8014	-51.4195	383.182	-0.000248319	-0.394356	4.12103	2.51838	1	38	0.00699608	0.000896773	0	-0.00251084	0.758995	0.5284	15.8258	1.72336e-05	1.04619e-05	1.15176e-05	2.19528e-05	2.94982e-05	1.67391e-05	0.232742	0.107888	3.29568	1.61879e-06	3.07273e-07	8.1705e-07	7.16187e-07	4.46527e-07	2.76868e-07	0.0799362	0.100204	0.128182	51.4195	2518.38	2009	3221.54	-38.5805	0.0000000E+000	0.0000000E+000	0.0000000E+000	38.5805	0.0000000E+000	0.0000000E+000	0.0000000E+000	-38.5805	0.0000000E+000	0.0000000E+000	0.0000000E+000	-51.4195	0.0000000E+000	0.0000000E+000	0.0000000E+000	51.4195	0.797733	38.5805	-0.000132843
3171.96	6.29795	10.9527	12.6344	-60.1006	386.515	-0.000257844	-0.391221	4.5811	3.44279	1	38	0.0064589	0.000511217	0	-0.00287065	1.00772	0.536093	17.1799	3.06827e-05	3.34176e-05	2.47973e-05	2.02563e-05	1.70554e-05	1.63729e-05	0.531489	0.279751	5.94222	2.03558e-06	1.10266e-06	4.37683e-07	6.2245e-07	6.44694e-07	8.86946e-07	0.0394542	0.0686147	0.0791493	60.1006	3442.79	1979.64	3971.36	-29.8994	0.0000000E+000	0.0000000E+000	0.0000000E+000	29.8994	0.0000000E+000	0.0000000E+000	0.0000000E+000	-29.8994	0.0000000E+000	0.0000000E+000	0.0000000E+000	-60.1006	0.0000000E+000	0.0000000E+000	0.0000000E+000	60.1006	0.575011	29.8994	-0.000120066
1589.49	9.31213	19.4524	21.5665	-64.4189	390.054	-0.00023624	-0.395099	5.1474	4.18772	1	38	0.00683491	0.000316923	0	-0.00325508	0.752034	0.647357	16.2049	1.65465e-05	2.23275e-05	2.16213e-05	2.3891e-05	1.39972e-05	2.1023e-05	0.53821	0.33314	9.36305	7.88812e-07	6.12541e-07	4.80839e-07	7.78482e-07	4.76327e-07	6.23414e-07	0.0200213	0.041823	0.0463683	64.4189	4187.72	2004.72	4642.83	-25.5811	0.0000000E+000	0.0000000E+000	0.0000000E+000	25.5811	0.0000000E+000	0.0000000E+000	0.0000000E+000	-25.5811	0.0000000E+000	0.0000000E+000	0.0000000E+000	-64.4189	0.0000000E+000	0.0000000E+000	0.0000000E+000	64.4189	0.478713	25.5811	-0.000120725
796.787	15.508	33.3698	36.7973	-65.0742	393.626	-0.000254508	-0.386127	5.98583	4.92265	1	39	0.00715099	0.000194334	0	-0.00363599	0.785695	0.479229	15.4647	1.36551e-05	1.60263e-05	2.66896e-05	1.89865e-05	3.02705e-05	2.20596e-05	0.558213	0.208424	7.23875	5.04141e-07	6.86284e-07	3.42907e-07	3.36075e-07	2.94864e-07	1.92983e-07	0.0114531	0.0246446	0.0271759	65.0742	4922.65	2287.71	5428.27	-24.9258	0.0000000E+000	0.0000000E+000	0.0000000E+000	24.9258	0.0000000E+000	0.0000000E+000	0.0000000E+000	-24.9258	0.0000000E+000	0.0000000E+000	0.0000000E+000	-65.0742	0.0000000E+000	0.0000000E+000	0.0000000E+000	65.0742	0.464731	24.9258	-0.000141513
399.106	27.1615	55.227	61.5449	-63.8113	396.95	-0.000237023	-0.388442	7.22071	5.81433	1	39	0.00672925	0.000109339	0	-0.00399034	0.893093	0.510397	16.5639	1.97238e-05	1.52598e-05	2.9162e-05	2.64076e-05	1.8942e-05	1.75087e-05	0.881109	0.323289	13.1616	4.35602e-07	3.858e-07	3.81321e-07	4.32397e-07	2.03949e-07	2.8726e-07	0.00717084	0.0145803	0.0162483	63.8113	5814.33	2859.58	6479.48	-26.1887	0.0000000E+000	0.0000000E+000	0.0000000E+000	26.1887	0.0000000E+000	0.0000000E+000	0.0000000E+000	-26.1887	0.0000000E+000	0.0000000E+000	0.0000000E+000	-63.8113	0.0000000E+000	0.0000000E+000	0.0000000E+000	63.8113	0.491816	26.1887	-0.000118223
199.936	48.7189	89.5379	101.934	-61.4487	400.265	-0.000212398	-0.387042	8.89041	6.85956	1	39	0.00665637	6.53007e-05	0	-0.00434239	0.992829	0.691762	15.9812	2.22113e-05	3.08808e-05	1.56592e-05	4.10362e-05	2.32937e-05	1.37832e-05	1.25455	0.300283	20.75	3.0517e-07	3.09559e-07	2.36766e-07	3.00801e-07	4.17725e-07	2.73887e-07	0.00468877	0.00861723	0.00981026	61.4487	6859.56	3732.39	7809.24	-28.5513	0.0000000E+000	0.0000000E+000	0.0000000E+000	28.5513	0.0000000E+000	0.0000000E+000	0.0000000E+000	-28.5513	0.0000000E+000	0.0000000E+000	0.0000000E+000	-61.4487	0.0000000E+000	0.0000000E+000	0.0000000E+000	61.4487	0.544116	28.5513	-0.00011811
100.224	85.6247	136.839	161.42	-57.9644	403.579	-0.000248505	-0.387314	11.6048	8.33951	1	39	0.00659686	4.08677e-05	0	-0.00469508	0.738893	0.589917	17.7974	1.82381e-05	1.83696e-05	1.528e-05	2.17073e-05	1.57539e-05	1.88074e-05	1.90724	1.42672	35.8401	1.76371e-07	1.26476e-07	2.65103e-07	4.20873e-07	3.53441e-07	2.76501e-07	0.00328612	0.00525163	0.00619501	57.9644	8339.51	5218.31	9837.59	-32.0356	0.0000000E+000	0.0000000E+000	0.0000000E+000	32.0356	0.0000000E+000	0.0000000E+000	0.0000000E+000	-32.0356	0.0000000E+000	0.0000000E+000	0.0000000E+000	-57.9644	0.0000000E+000	0.0000000E+000	0.0000000E+000	57.9644	0.625734	32.0356	-0.000117235
50.2089	145.329	201.543	248.476	-54.2053	407.066	-0.00023665	-0.385868	15.7279	10.3476	1	40	0.00659781	2.65531e-05	0	-0.005061	1.85014	1.21637	32.8723	4.16748e-05	5.61316e-05	5.65878e-05	4.14518e-05	4.14148e-05	3.1304e-05	0.62	0.453472	12.1652	9.36729e-08	6.30507e-08	6.9121e-08	5.96464e-08	4.05786e-08	4.21432e-08	0.00235388	0.00326438	0.00402454	54.2053	10347.6	7461.47	12757.2	-35.7947	0.0000000E+000	0.0000000E+000	0.0000000E+000	35.7947	0.0000000E+000	0.0000000E+000	0.0000000E+000	-35.7947	0.0000000E+000	0.0000000E+000	0.0000000E+000	-54.2053	0.0000000E+000	0.0000000E+000	0.0000000E+000	54.2053	0.721082	35.7947	-0.000113662
25.1691	236.196	290.425	374.346	-50.8792	410.242	-0.000249102	-0.385352	21.773	13.105	1	40	0.00659212	1.76097e-05	0	-0.00539872	1.82398	1.34298	32.0791	2.68242e-05	4.62299e-05	6.15928e-05	3.12026e-05	6.88951e-05	3.42474e-05	1.28892	1.1836	17.078	1.59218e-07	6.45664e-08	6.55408e-08	5.55794e-08	6.56575e-08	6.18531e-08	0.00168549	0.00207246	0.00267132	50.8792	13105	10658.1	16891.9	-39.1208	0.0000000E+000	0.0000000E+000	0.0000000E+000	39.1208	0.0000000E+000	0.0000000E+000	0.0000000E+000	-39.1208	0.0000000E+000	0.0000000E+000	0.0000000E+000	-50.8792	0.0000000E+000	0.0000000E+000	0.0000000E+000	50.8792	0.81328	39.1208	-0.000113234
12.6144	364.431	404.953	544.79	-48.0149	413.518	-0.000211979	-0.381948	31.1566	17.2148	1	40	0.00659173	1.20996e-05	0	-0.00574643	1.41957	0.582375	22.4262	4.00881e-05	4.29342e-05	3.27038e-05	3.69708e-05	2.36694e-05	3.56506e-05	1.80036	5.5059	18.6802	1.64547e-07	8.68405e-08	5.1858e-08	5.23889e-08	4.80213e-08	4.19865e-08	0.00122788	0.00136441	0.00183557	48.0149	17214.8	15492.1	23159.3	-41.9851	0.0000000E+000	0.0000000E+000	0.0000000E+000	41.9851	0.0000000E+000	0.0000000E+000	0.0000000E+000	-41.9851	0.0000000E+000	0.0000000E+000	0.0000000E+000	-48.0149	0.0000000E+000	0.0000000E+000	0.0000000E+000	48.0149	0.899933	41.9851	-0.000123411
6.31569	545.964	567.799	787.701	-46.1231	417.168	-0.000211177	-0.386506	44.3818	23.0606	1	40	0.00660577	8.38614e-06	0	-0.00613322	0.986122	0.593225	22.5313	2.99713e-05	1.77148e-05	2.64413e-05	7.7989e-06	2.28779e-05	2.73057e-05	3.13035	12.3796	23.5474	2.18076e-07	7.67697e-08	5.87722e-08	5.86266e-08	4.05577e-08	3.46816e-08	0.000879916	0.000915107	0.00126952	46.1231	23060.6	22173.8	31991.8	-43.8769	0.0000000E+000	0.0000000E+000	0.0000000E+000	43.8769	0.0000000E+000	0.0000000E+000	0.0000000E+000	-43.8769	0.0000000E+000	0.0000000E+000	0.0000000E+000	-46.1231	0.0000000E+000	0.0000000E+000	0.0000000E+000	46.1231	0.961545	43.8769	-0.000146333
3.16616	696.708	751.651	1024.88	-47.1724	423.013	-0.000212111	-0.385254	66.8761	35.9713	1	40	0.00660095	6.4407e-06	0	-0.00675535	0.733329	0.349567	13.7706	1.67214e-05	2.05047e-05	1.80348e-05	1.45616e-05	2.48709e-05	1.55693e-05	7.17996	25.8925	19.8861	3.58347e-07	2.10854e-07	1.06727e-07	7.7135e-08	5.28373e-08	4.19675e-08	0.000663291	0.000715598	0.000975723	47.1724	35971.3	33342	49047.1	-42.8276	0.0000000E+000	0.0000000E+000	0.0000000E+000	42.8276	0.0000000E+000	0.0000000E+000	0.0000000E+000	-42.8276	0.0000000E+000	0.0000000E+000	0.0000000E+000	-47.1724	0.0000000E+000	0.0000000E+000	0.0000000E+000	47.1724	0.926904	42.8276	-0.000245766
1.5871	1017.81	1131.11	1521.63	-48.0178	433.443	-0.00021209	-0.386201	88.6569	48.9895	1	40	0.00659481	4.33406e-06	0	-0.00786786	0.532714	0.256193	9.73728	9.00761e-06	6.62828e-06	8.12582e-06	1.42014e-05	1.81584e-05	1.94392e-05	16.3771	38.6607	25.5546	5.01286e-07	1.51888e-07	1.63071e-07	1.41648e-07	6.6507e-08	1.31581e-07	0.000439595	0.000488526	0.000657192	48.0178	48989.5	44082.7	65903.4	-41.9822	0.0000000E+000	0.0000000E+000	0.0000000E+000	41.9822	0.0000000E+000	0.0000000E+000	0.0000000E+000	-41.9822	0.0000000E+000	0.0000000E+000	0.0000000E+000	-48.0178	0.0000000E+000	0.0000000E+000	0.0000000E+000	48.0178	0.89984	41.9821	-0.000449373
0.79456	1531.08	1148.4	1913.9	-36.872	453.12	-0.000218009	-0.38604	174.422	62.798	1	40	0.0065864	3.44134e-06	0	-0.00996913	0.30497	0.250132	6.41971	1.07457e-05	7.34417e-06	4.66332e-06	1.03952e-05	4.52866e-06	6.76179e-06	38.2081	47.3331	29.168	1.10772e-06	3.61998e-07	2.34429e-07	2.41667e-07	2.25259e-07	7.26129e-08	0.000417982	0.000313511	0.000522492	36.872	62798	83724.3	104658	-53.128	0.0000000E+000	0.0000000E+000	0.0000000E+000	53.128	0.0000000E+000	0.0000000E+000	0.0000000E+000	-53.128	0.0000000E+000	0.0000000E+000	0.0000000E+000	-36.872	0.0000000E+000	0.0000000E+000	0.0000000E+000	36.872	1.33323	53.128	-0.000855772
0.398211	2369.54	688.801	2467.62	-16.2086	491.248	-0.000206947	-0.384474	580.247	45.2108	1	40	0.00658667	2.66924e-06	0	-0.0140371	0.320231	0.193807	4.52392	6.81595e-06	1.11075e-05	7.0029e-06	1.02654e-05	4.87539e-06	3.04565e-06	46.1683	42.2585	51.7276	2.73661e-07	8.06528e-07	5.21393e-07	3.26587e-07	3.95414e-07	2.02388e-07	0.00038914	0.000113119	0.000405248	16.2086	45210.8	155530	161967	-73.7914	0.0000000E+000	0.0000000E+000	0.0000000E+000	73.7914	0.0000000E+000	0.0000000E+000	0.0000000E+000	-73.7914	0.0000000E+000	0.0000000E+000	0.0000000E+000	-16.2086	0.0000000E+000	0.0000000E+000	0.0000000E+000	16.2086	3.4401	73.7914	-0.00166885
0.199573	2635.45	1322.13	2948.49	-26.6416	566.401	-0.000210397	-0.38372	603.177	121.28	1	40	0.00659066	2.23526e-06	0	-0.0220458	0.22268	0.111669	3.47548	4.07017e-06	8.74963e-06	4.31285e-06	6.2142e-06	4.29623e-06	5.95328e-06	39.3956	27.6735	77.9787	4.0069e-07	3.64756e-07	2.73416e-07	3.61784e-07	1.9029e-07	3.66081e-07	0.000303148	0.00015208	0.000339157	26.6416	121280	241753	270469	-63.3584	0.0000000E+000	0.0000000E+000	0.0000000E+000	63.3584	0.0000000E+000	0.0000000E+000	0.0000000E+000	-63.3584	0.0000000E+000	0.0000000E+000	0.0000000E+000	-26.6416	0.0000000E+000	0.0000000E+000	0.0000000E+000	26.6416	1.99334	63.3584	-0.00329171
0.0999518	2624.71	139.617	2628.43	-3.04487	715.455	-0.000215967	-0.382217	11404.9	32.1792	1	40	0.00658997	2.50719e-06	0	-0.0378837	0.211357	0.14123	2.50082	2.846e-06	7.34922e-06	5.6168e-06	5.85574e-06	3.4786e-06	4.97956e-06	40.6548	18.8951	81.892	4.15686e-07	5.21294e-07	3.79603e-07	4.59411e-07	2.41087e-07	3.30792e-07	0.000379919	2.0209e-05	0.000380456	3.04487	32179.2	604951	605807	-86.9551	0.0000000E+000	0.0000000E+000	0.0000000E+000	86.9551	0.0000000E+000	0.0000000E+000	0.0000000E+000	-86.9551	0.0000000E+000	0.0000000E+000	0.0000000E+000	-3.04487	0.0000000E+000	0.0000000E+000	0.0000000E+000	3.04487	18.7994	86.9551	-0.00651708
252347	3.5733	0.9306	3.69249	-14.5974	719.838	-0.00010747	-0.385065	0.677732	0.0430472	2	38	0.00721284	0.00195338	0	-0.0383518	-1	-1	-1	0	0	0	0	0	0	-1	-1	-1	0	0	0	0	0	0	0.262078	0.0682533	0.27082	14.5974	43.0472	165.292	170.805	-75.4026	0.0000000E+000	0.0000000E+000	0.0000000E+000	75.4026	0.0000000E+000	0.0000000E+000	0.0000000E+000	-75.4026	0.0000000E+000	0.0000000E+000	0.0000000E+000	-14.5974	0.0000000E+000	0.0000000E+000	0.0000000E+000	14.5974	3.83978	75.4026	-0.000121052
126447	3.52557	0.788956	3.61277	-12.6139	723.279	-0.000128198	-0.383471	1.59535	0.0760822	2	38	0.00722741	0.00200052	0	-0.038725	-1	-1	-1	0	0	0	0	0	0	-1	-1	-1	0	0	0	0	0	0	0.270115	0.0604467	0.276796	12.6139	76.0822	339.985	348.393	-77.3861	0.0000000E+000	0.0000000E+000	0.0000000E+000	77.3861	0.0000000E+000	0.0000000E+000	0.0000000E+000	-77.3861	0.0000000E+000	0.0000000E+000	0.0000000E+000	-12.6139	0.0000000E+000	0.0000000E+000	0.0000000E+000	12.6139	4.46865	77.3861	-0.000126493
63362.9	3.58654	1.02943	3.73136	-16.0148	726.718	-0.00012406	-0.383116	2.43999	0.185715	2	38	0.00724184	0.00194081	0	-0.0390899	0.851833	0.585704	14.8098	1.29189e-05	3.01867e-05	1.79989e-05	2.0832e-05	2.91119e-05	2.72014e-05	0.100234	0.0742352	1.55904	5.54691e-07	7.11495e-07	1.34412e-06	3.6903e-07	6.16156e-07	5.52936e-07	0.257598	0.0739372	0.267999	16.0148	185.715	647.035	673.16	-73.9852	0.0000000E+000	0.0000000E+000	0.0000000E+000	73.9852	0.0000000E+000	0.0000000E+000	0.0000000E+000	-73.9852	0.0000000E+000	0.0000000E+000	0.0000000E+000	-16.0148	0.0000000E+000	0.0000000E+000	0.0000000E+000	16.0148	3.48401	73.9852	-0.000119988
31751	3.72366	1.66047	4.07711	-24.0332	730.158	-0.000140594	-0.382686	3.01878	0.500713	2	38	0.00724516	0.00177704	0	-0.039452	0.78969	0.508264	16.2461	2.03992e-05	1.91467e-05	2.2202e-05	2.62119e-05	2.44766e-05	2.10371e-05	0.0974577	0.0590476	1.69337	7.20492e-07	5.19255e-07	5.14723e-07	6.84792e-07	6.49545e-07	8.28629e-07	0.224009	0.099891	0.245272	24.0332	500.713	1122.87	1229.45	-65.9668	0.0000000E+000	0.0000000E+000	0.0000000E+000	65.9668	0.0000000E+000	0.0000000E+000	0.0000000E+000	-65.9668	0.0000000E+000	0.0000000E+000	0.0000000E+000	-24.0332	0.0000000E+000	0.0000000E+000	0.0000000E+000	24.0332	2.24254	65.9668	-0.000119928
15912.6	4.01919	2.95823	4.99049	-36.3541	733.599	-0.000127434	-0.382663	3.38101	1.18802	2	38	0.00731561	0.00146591	0	-0.0398104	0.771828	0.393994	14.9084	1.69131e-05	2.92082e-05	1.4537e-05	1.00373e-05	2.53807e-05	2.85709e-05	0.129362	0.0557754	2.02456	8.31891e-07	7.7924e-07	8.16151e-07	4.59856e-07	8.09416e-07	6.94278e-07	0.161381	0.118781	0.200381	36.3541	1188.02	1614.1	2004.17	-53.6459	0.0000000E+000	0.0000000E+000	0.0000000E+000	53.6459	0.0000000E+000	0.0000000E+000	0.0000000E+000	-53.6459	0.0000000E+000	0.0000000E+000	0.0000000E+000	-36.3541	0.0000000E+000	0.0000000E+000	0.0000000E+000	36.3541	1.35865	53.6459	-0.000119811
7967.67	4.60795	5.33545	7.04984	-49.1845	737.069	-0.000251432	-0.383799	3.74385	2.14438	2	38	0.00730248	0.00103584	0	-0.0401744	0.914113	0.366787	15.5823	3.70437e-05	2.30649e-05	2.54916e-05	2.01073e-05	2.78513e-05	1.77279e-05	0.197371	0.0591601	2.87176	1.32313e-06	7.22793e-07	4.72357e-07	2.58719e-07	6.09622e-07	8.87567e-07	0.0927149	0.107353	0.141847	49.1845	2144.38	1851.99	2833.41	-40.8155	0.0000000E+000	0.0000000E+000	0.0000000E+000	40.8155	0.0000000E+000	0.0000000E+000	0.0000000E+000	-40.8155	0.0000000E+000	0.0000000E+000	0.0000000E+000	-49.1845	0.0000000E+000	0.0000000E+000	0.0000000E+000	49.1845	0.863649	40.8155	-0.000122742
3993.72	5.84677	9.55613	11.2029	-58.5403	740.533	-0.000265413	-0.386184	4.17024	3.03435	2	38	0.00668035	0.000596307	0	-0.0405381	0.854811	0.607256	16.6961	1.49116e-05	2.11446e-05	3.5309e-05	1.35014e-05	2.09845e-05	2.10269e-05	0.396341	0.170112	4.96115	1.78733e-06	5.40074e-07	8.94161e-07	6.67025e-07	4.68888e-07	1.99212e-07	0.0465862	0.0761418	0.0892629	58.5403	3034.35	1856.52	3557.24	-31.4597	0.0000000E+000	0.0000000E+000	0.0000000E+000	31.4597	0.0000000E+000	0.0000000E+000	0.0000000E+000	-31.4597	0.0000000E+000	0.0000000E+000	0.0000000E+000	-58.5403	0.0000000E+000	0.0000000E+000	0.0000000E+000	58.5403	0.611835	31.4597	-0.000116909
2001.92	8.33443	16.9699	18.9061	-63.843	744.069	-0.000257639	-0.384589	4.68483	3.77441	2	38	0.00690979	0.00036548	0	-0.0409124	0.879243	0.429974	16.0332	1.78842e-05	2.70295e-05	3.56238e-05	1.4763e-05	1.76625e-05	1.61785e-05	0.637449	0.268435	8.27677	1.06338e-06	1.10145e-06	9.61689e-07	1.04154e-06	6.35695e-07	3.0859e-07	0.023317	0.0474762	0.052893	63.843	3774.41	1853.73	4205.06	-26.157	0.0000000E+000	0.0000000E+000	0.0000000E+000	26.157	0.0000000E+000	0.0000000E+000	0.0000000E+000	-26.157	0.0000000E+000	0.0000000E+000	0.0000000E+000	-63.843	0.0000000E+000	0.0000000E+000	0.0000000E+000	63.843	0.49113	26.157	-0.000117072
1002.75	13.5267	29.4133	32.3746	-65.3031	747.644	-0.000272403	-0.380653	5.39613	4.45412	2	39	0.00742754	0.000229425	0	-0.0412865	0.930189	0.42424	14.9455	2.85738e-05	2.10482e-05	2.35268e-05	3.44509e-05	1.57011e-05	3.12964e-05	0.586496	0.196157	6.15257	9.81341e-07	7.32868e-07	1.89553e-07	3.62943e-07	1.12749e-07	2.36684e-07	0.0129057	0.028063	0.0308884	65.3031	4454.12	2048.38	4902.55	-24.6969	0.0000000E+000	0.0000000E+000	0.0000000E+000	24.6969	0.0000000E+000	0.0000000E+000	0.0000000E+000	-24.6969	0.0000000E+000	0.0000000E+000	0.0000000E+000	-65.3031	0.0000000E+000	0.0000000E+000	0.0000000E+000	65.3031	0.459884	24.6969	-0.000140075
502.588	23.9183	49.392	54.8785	-64.1612	750.965	-0.000258739	-0.38178	6.41138	5.19349	2	39	0.00684135	0.000124663	0	-0.0416359	1.06166	0.3884	16.3324	2.76981e-05	3.98517e-05	1.25875e-05	3.16954e-05	2.68459e-05	2.27889e-05	0.925613	0.430938	11.3289	3.11766e-07	4.69418e-07	1.65045e-07	8.59727e-07	2.04881e-07	2.05291e-07	0.0079419	0.0164003	0.0182221	64.1612	5193.49	2514.97	5770.39	-25.8388	0.0000000E+000	0.0000000E+000	0.0000000E+000	25.8388	0.0000000E+000	0.0000000E+000	0.0000000E+000	-25.8388	0.0000000E+000	0.0000000E+000	0.0000000E+000	-64.1612	0.0000000E+000	0.0000000E+000	0.0000000E+000	64.1612	0.484254	25.8388	-0.000116361
251.853	43.0696	79.2033	90.1562	-61.4633	754.278	-0.000236128	-0.379852	7.97864	6.15777	2	39	0.0066633	7.39084e-05	0	-0.0419841	0.977847	0.621798	17.5185	2.36107e-05	1.18808e-05	3.11997e-05	2.60139e-05	2.36224e-05	2.68527e-05	1.14162	0.569536	20.2198	2.26301e-07	2.60514e-07	3.3791e-07	4.66336e-07	4.04393e-07	1.60075e-07	0.00529882	0.00974432	0.0110919	61.4633	6157.77	3348.51	7009.33	-28.5367	0.0000000E+000	0.0000000E+000	0.0000000E+000	28.5367	0.0000000E+000	0.0000000E+000	0.0000000E+000	-28.5367	0.0000000E+000	0.0000000E+000	0.0000000E+000	-61.4633	0.0000000E+000	0.0000000E+000	0.0000000E+000	61.4633	0.543785	28.5367	-0.00011549
126.171	75.8124	122.483	144.047	-58.2439	757.595	-0.0002228	-0.380928	10.2988	7.44606	2	39	0.00661845	4.59465e-05	0	-0.0423336	0.899776	0.59675	16.3084	1.49708e-05	2.36625e-05	3.02719e-05	1.92266e-05	2.68478e-05	2.24637e-05	1.82136	1.17507	29.6346	3.28653e-07	3.75947e-07	3.14285e-07	2.05749e-07	3.59833e-07	2.72286e-07	0.0036537	0.00590291	0.00694218	58.2439	7446.06	4608.85	8757.02	-31.7561	0.0000000E+000	0.0000000E+000	0.0000000E+000	31.7561	0.0000000E+000	0.0000000E+000	0.0000000E+000	-31.7561	0.0000000E+000	0.0000000E+000	0.0000000E+000	-58.2439	0.0000000E+000	0.0000000E+000	0.0000000E+000	58.2439	0.618965	31.7561	-0.00011594
63.2394	128.976	180.719	222.023	-54.4852	761.122	-0.000248282	-0.382094	13.9261	9.22659	2	40	0.00667376	3.00589e-05	0	-0.0427	1.70509	1.08274	31.6774	3.582e-05	4.68733e-05	3.64172e-05	5.1887e-05	2.23229e-05	5.36802e-05	0.693394	0.596434	11.0096	1.42837e-07	7.2805e-08	6.18855e-08	8.03313e-08	2.82318e-08	5.12818e-08	0.00261646	0.00366614	0.00450405	54.4852	9226.59	6584.85	11335.4	-35.5148	0.0000000E+000	0.0000000E+000	0.0000000E+000	35.5148	0.0000000E+000	0.0000000E+000	0.0000000E+000	-35.5148	0.0000000E+000	0.0000000E+000	0.0000000E+000	-54.4852	0.0000000E+000	0.0000000E+000	0.0000000E+000	54.4852	0.713682	35.5148	-0.000137574
31.6723	212.625	251.34	329.213	-49.7699	764.297	-0.000183617	-0.384365	19.9931	11.6533	2	40	0.00660101	2.00509e-05	0	-0.0430344	1.51292	0.812639	32.8144	3.77816e-05	3.29778e-05	3.0417e-05	5.02275e-05	5.18867e-05	2.39033e-05	1.05582	0.708177	15.6645	1.26054e-07	9.53958e-08	4.72708e-08	8.39368e-08	7.81165e-08	4.9587e-08	0.00196183	0.00231904	0.00303755	49.7699	11653.3	9858.3	15263.9	-40.2301	0.0000000E+000	0.0000000E+000	0.0000000E+000	40.2301	0.0000000E+000	0.0000000E+000	0.0000000E+000	-40.2301	0.0000000E+000	0.0000000E+000	0.0000000E+000	-49.7699	0.0000000E+000	0.0000000E+000	0.0000000E+000	49.7699	0.845967	40.2301	-0.000110075
15.879	322.995	347.538	474.456	-47.0962	767.47	-0.00023309	-0.384118	28.8399	15.4741	2	40	0.00661836	1.39494e-05	0	-0.0433683	2.05649	0.825198	32.4963	2.76162e-05	9.09515e-05	4.80385e-05	3.72037e-05	4.37024e-05	3.78263e-05	1.94712	2.49955	21.3599	1.87858e-07	1.19485e-07	7.92725e-08	4.01641e-08	6.18696e-08	6.52794e-08	0.00143484	0.00154387	0.00210768	47.0962	15474.1	14381.3	21125.2	-42.9038	0.0000000E+000	0.0000000E+000	0.0000000E+000	42.9038	0.0000000E+000	0.0000000E+000	0.0000000E+000	-42.9038	0.0000000E+000	0.0000000E+000	0.0000000E+000	-47.0962	0.0000000E+000	0.0000000E+000	0.0000000E+000	47.0962	0.92938	42.9037	-0.000109774
7.95573	480.26	446.388	655.676	-42.9066	770.906	-0.000210115	-0.383606	44.8155	20.7718	2	40	0.00657916	1.00342e-05	0	-0.0437281	1.07025	0.723107	21.7143	3.37206e-05	2.57333e-05	1.92299e-05	2.5429e-05	2.22469e-05	2.24826e-05	2.43874	4.64093	18.946	1.86308e-07	7.3688e-08	4.85121e-08	7.55823e-08	7.24051e-08	5.4626e-08	0.00111711	0.00103832	0.00152514	42.9066	20771.8	22347.9	30510.6	-47.0934	0.0000000E+000	0.0000000E+000	0.0000000E+000	47.0934	0.0000000E+000	0.0000000E+000	0.0000000E+000	-47.0934	0.0000000E+000	0.0000000E+000	0.0000000E+000	-42.9066	0.0000000E+000	0.0000000E+000	0.0000000E+000	42.9066	1.07588	47.0934	-0.000126084
3.98597	646.991	684.747	942.06	-46.624	775.827	-0.000196605	-0.380712	58.3117	30.8077	2	40	0.00658189	6.9867e-06	0	-0.0442458	0.909232	0.489223	16.1329	2.01127e-05	2.32344e-05	2.20921e-05	1.98526e-05	2.46277e-05	2.48103e-05	4.52641	18.0328	20.9945	2.51362e-07	1.40902e-07	1.05356e-07	4.91111e-08	4.77159e-08	4.56861e-08	0.000729023	0.000771567	0.0010615	46.624	30807.7	29109	42384.6	-43.376	0.0000000E+000	0.0000000E+000	0.0000000E+000	43.376	0.0000000E+000	0.0000000E+000	0.0000000E+000	-43.376	0.0000000E+000	0.0000000E+000	0.0000000E+000	-46.624	0.0000000E+000	0.0000000E+000	0.0000000E+000	46.624	0.944861	43.376	-0.000202674
1.99783	1046.31	681.37	1248.61	-33.0727	784.356	-0.000229164	-0.380707	116.917	34.817	2	40	0.00658422	5.27324e-06	0	-0.0451457	0.593015	0.337362	11.0605	1.23508e-05	1.49857e-05	1.04944e-05	1.9168e-05	1.60971e-05	1.21326e-05	7.96775	28.9504	20.8981	3.05301e-07	1.47183e-07	1.66087e-07	8.70209e-08	5.21975e-08	4.43901e-08	0.00067113	0.000437049	0.000800891	33.0727	34817	53464.9	63802.2	-56.9273	0.0000000E+000	0.0000000E+000	0.0000000E+000	56.9273	0.0000000E+000	0.0000000E+000	0.0000000E+000	-56.9273	0.0000000E+000	0.0000000E+000	0.0000000E+000	-33.0727	0.0000000E+000	0.0000000E+000	0.0000000E+000	33.0727	1.53559	56.9273	-0.000361177
1.00122	1643.7	851.828	1851.31	-27.3949	800.222	-0.00022304	-0.381436	186.612	39.508	2	40	0.00658937	3.5593e-06	0	-0.046822	0.387971	0.227094	7.63149	1.30319e-05	6.49918e-06	1.04465e-05	1.07861e-05	7.66735e-06	1.07741e-05	28.6347	42.4461	29.6853	7.59073e-07	3.49588e-07	3.61345e-07	1.41504e-07	1.73323e-07	1.2568e-07	0.000479582	0.000248538	0.000540157	27.3949	39508	76235.1	85864.2	-62.6051	0.0000000E+000	0.0000000E+000	0.0000000E+000	62.6051	0.0000000E+000	0.0000000E+000	0.0000000E+000	-62.6051	0.0000000E+000	0.0000000E+000	0.0000000E+000	-27.3949	0.0000000E+000	0.0000000E+000	0.0000000E+000	27.3949	1.92961	62.6051	-0.000682491
0.501541	2185.03	596.651	2265.02	-15.273	830.717	-0.000222706	-0.381388	531.855	36.9053	2	40	0.00659167	2.9102e-06	0	-0.0500463	0.286179	0.165296	5.42418	9.32234e-06	8.0309e-06	6.06868e-06	7.33455e-06	5.37413e-06	5.2924e-06	35.6596	19.1071	47.2603	7.35936e-07	5.26509e-07	2.41776e-07	1.81856e-07	1.72334e-07	1.24607e-07	0.000425903	0.000116299	0.000441496	15.273	36905.3	135153	140101	-74.727	0.0000000E+000	0.0000000E+000	0.0000000E+000	74.727	0.0000000E+000	0.0000000E+000	0.0000000E+000	-74.727	0.0000000E+000	0.0000000E+000	0.0000000E+000	-15.273	0.0000000E+000	0.0000000E+000	0.0000000E+000	15.273	3.66215	74.727	-0.00132227
0.251222	2583.14	431.075	2618.87	-9.47422	890.61	-0.000226891	-0.380535	1469.64	39.8189	2	40	0.00658462	2.5143e-06	0	-0.0563747	0.226679	0.119431	3.81167	5.78753e-06	8.54117e-06	5.37564e-06	5.51996e-06	3.53894e-06	4.67818e-06	48.1966	36.568	60.3311	5.80944e-07	3.55121e-07	2.40864e-07	6.38014e-07	3.62468e-07	5.2844e-07	0.000376636	6.28531e-05	0.000381845	9.47422	39818.9	238608	241908	-80.5258	0.0000000E+000	0.0000000E+000	0.0000000E+000	80.5258	0.0000000E+000	0.0000000E+000	0.0000000E+000	-80.5258	0.0000000E+000	0.0000000E+000	0.0000000E+000	-9.47422	0.0000000E+000	0.0000000E+000	0.0000000E+000	9.47422	5.99233	80.5258	-0.00260085
0.125939	2489.77	207.006	2498.36	-4.75278	1009.17	-0.000221779	-0.379493	6104.9	41.9115	2	40	0.00658988	2.63768e-06	0	-0.0688799	0.187387	0.0608803	2.64016	4.53329e-06	7.92504e-06	4.1054e-06	4.87342e-06	2.21107e-06	4.04153e-06	26.6289	29.0375	69.0095	4.30681e-07	1.81034e-07	1.39874e-07	2.61889e-07	1.7565e-07	3.23506e-07	0.000398886	3.31644e-05	0.000400262	4.75278	41911.5	504092	505831	-85.2472	0.0000000E+000	0.0000000E+000	0.0000000E+000	85.2472	0.0000000E+000	0.0000000E+000	0.0000000E+000	-85.2472	0.0000000E+000	0.0000000E+000	0.0000000E+000	-4.75278	0.0000000E+000	0.0000000E+000	0.0000000E+000	4.75278	12.0275	85.2472	-0.00514188
317705	3.61693	1.09829	3.78001	-16.891	1073.96	-0.000160186	-0.380384	0.45612	0.0385059	3	38	0.00716207	0.00189472	0	-0.0757013	-1	-1	-1	0	0	0	0	0	0	-1	-1	-1	0	0	0	0	0	0	0.253137	0.0768655	0.26455	16.891	38.5059	126.809	132.527	-73.109	0.0000000E+000	0.0000000E+000	0.0000000E+000	73.109	0.0000000E+000	0.0000000E+000	0.0000000E+000	-73.109	0.0000000E+000	0.0000000E+000	0.0000000E+000	-16.891	0.0000000E+000	0.0000000E+000	0.0000000E+000	16.891	3.29325	73.109	-0.000120752
159201	3.52547	0.788866	3.61265	-12.6128	1077.4	-0.000127564	-0.380435	1.26728	0.0604264	3	38	0.00724171	0.00200454	0	-0.0760695	-1	-1	-1	0	0	0	0	0	0	-1	-1	-1	0	0	0	0	0	0	0.270125	0.0604437	0.276805	12.6128	60.4264	270.048	276.726	-77.3872	0.0000000E+000	0.0000000E+000	0.0000000E+000	77.3872	0.0000000E+000	0.0000000E+000	0.0000000E+000	-77.3872	0.0000000E+000	0.0000000E+000	0.0000000E+000	-12.6128	0.0000000E+000	0.0000000E+000	0.0000000E+000	12.6128	4.46904	77.3872	-0.000123609
79767.3	3.55279	0.919874	3.66995	-14.516	1080.84	-0.000169525	-0.381386	2.16904	0.136271	3	38	0.00723373	0.00197107	0	-0.0764243	0.859125	0.529613	15.8875	1.97953e-05	2.12311e-05	2.2513e-05	1.95022e-05	3.27056e-05	2.1414e-05	0.0947539	0.0437433	1.51303	5.42731e-07	7.02044e-07	1.03975e-06	8.09408e-07	6.83553e-07	3.83283e-07	0.263785	0.0682981	0.272483	14.516	136.271	526.315	543.67	-75.484	0.0000000E+000	0.0000000E+000	0.0000000E+000	75.484	0.0000000E+000	0.0000000E+000	0.0000000E+000	-75.484	0.0000000E+000	0.0000000E+000	0.0000000E+000	-14.516	0.0000000E+000	0.0000000E+000	0.0000000E+000	14.516	3.86226	75.484	-0.000117685
39971.8	3.66885	1.41538	3.9324	-21.0958	1084.28	-0.000132225	-0.38163	2.81315	0.364439	3	38	0.00723171	0.00183901	0	-0.0767844	0.863783	0.570262	16.0418	3.14339e-05	2.22422e-05	2.40877e-05	2.37071e-05	2.19764e-05	2.16562e-05	0.0966665	0.0447291	1.64384	6.67506e-07	5.29444e-07	8.31629e-07	8.42192e-07	5.83789e-07	5.08953e-07	0.237255	0.0915289	0.254298	21.0958	364.439	944.673	1012.53	-68.9042	0.0000000E+000	0.0000000E+000	0.0000000E+000	68.9042	0.0000000E+000	0.0000000E+000	0.0000000E+000	-68.9042	0.0000000E+000	0.0000000E+000	0.0000000E+000	-21.0958	0.0000000E+000	0.0000000E+000	0.0000000E+000	21.0958	2.59213	68.9042	-0.000121714
20032.3	3.91124	2.46092	4.62103	-32.1778	1087.73	-0.000144453	-0.378468	3.22843	0.91561	3	38	0.00726532	0.00157223	0	-0.0771419	0.922918	0.414017	15.1497	2.71111e-05	2.81107e-05	2.80303e-05	2.45195e-05	2.10307e-05	2.4206e-05	0.119525	0.0623663	1.91377	6.43889e-07	1.14671e-06	5.72415e-07	4.84155e-07	6.99775e-07	6.16065e-07	0.183162	0.115245	0.216402	32.1778	915.61	1455.21	1719.3	-57.8222	0.0000000E+000	0.0000000E+000	0.0000000E+000	57.8222	0.0000000E+000	0.0000000E+000	0.0000000E+000	-57.8222	0.0000000E+000	0.0000000E+000	0.0000000E+000	-32.1778	0.0000000E+000	0.0000000E+000	0.0000000E+000	32.1778	1.58934	57.8222	-0.000119199
10039.3	4.38028	4.43362	6.23248	-45.3467	1091.17	-0.000112093	-0.376737	3.57566	1.80947	3	38	0.00716848	0.00115018	0	-0.0775005	1.00066	0.523496	15.0161	2.95236e-05	1.43965e-05	2.26141e-05	3.12353e-05	2.77667e-05	2.81216e-05	0.162543	0.0930094	2.57959	7.85537e-07	7.8903e-07	7.05436e-07	7.04146e-07	7.9272e-07	4.07206e-07	0.112767	0.11414	0.16045	45.3467	1809.47	1787.7	2543.63	-44.6533	0.0000000E+000	0.0000000E+000	0.0000000E+000	44.6533	0.0000000E+000	0.0000000E+000	0.0000000E+000	-44.6533	0.0000000E+000	0.0000000E+000	0.0000000E+000	-45.3467	0.0000000E+000	0.0000000E+000	0.0000000E+000	45.3467	0.987971	44.6533	-0.000119804
5028.39	5.36077	7.95045	9.58892	-56.0093	1094.7	-0.000252923	-0.382215	3.98107	2.7368	3	38	0.00692509	0.000722197	0	-0.0778628	1.04959	0.411009	15.4979	3.4851e-05	2.19026e-05	2.81952e-05	2.72028e-05	2.79928e-05	2.08645e-05	0.300965	0.124751	3.97369	1.24688e-06	1.04273e-06	8.72193e-07	6.82338e-07	4.63336e-07	5.94605e-07	0.0583026	0.0864673	0.104287	56.0093	2736.8	1845.35	3300.82	-33.9907	0.0000000E+000	0.0000000E+000	0.0000000E+000	33.9907	0.0000000E+000	0.0000000E+000	0.0000000E+000	-33.9907	0.0000000E+000	0.0000000E+000	0.0000000E+000	-56.0093	0.0000000E+000	0.0000000E+000	0.0000000E+000	56.0093	0.674273	33.9907	-0.000115979
2519.19	7.35473	14.2068	15.9977	-62.6298	1098.24	-0.000255645	-0.380386	4.44696	3.50705	3	38	0.00707874	0.000442486	0	-0.0782332	0.726226	0.433631	14.8598	1.90982e-05	1.32302e-05	2.72709e-05	2.32627e-05	1.73892e-05	1.63366e-05	0.628005	0.223479	6.73696	2.23762e-06	9.749e-07	5.92124e-07	7.68725e-07	5.52285e-07	5.29037e-07	0.0287379	0.0555115	0.0625092	62.6298	3507.05	1815.57	3949.14	-27.3702	0.0000000E+000	0.0000000E+000	0.0000000E+000	27.3702	0.0000000E+000	0.0000000E+000	0.0000000E+000	-27.3702	0.0000000E+000	0.0000000E+000	0.0000000E+000	-62.6298	0.0000000E+000	0.0000000E+000	0.0000000E+000	62.6298	0.517691	27.3702	-0.000138552
1262.98	11.5634	24.6877	27.2616	-64.9021	1101.56	-0.000236743	-0.380191	5.1044	4.18603	3	38	0.00673276	0.000246969	0	-0.0785807	0.893204	0.532299	16.6046	2.04804e-05	2.52008e-05	2.96268e-05	2.47262e-05	1.34083e-05	2.66797e-05	0.799539	0.525605	11.9135	1.03311e-06	1.05674e-06	5.74491e-07	5.45234e-07	6.7232e-07	4.17187e-07	0.0155591	0.0332184	0.0366817	64.9021	4186.03	1960.69	4622.46	-25.0979	0.0000000E+000	0.0000000E+000	0.0000000E+000	25.0979	0.0000000E+000	0.0000000E+000	0.0000000E+000	-25.0979	0.0000000E+000	0.0000000E+000	0.0000000E+000	-64.9021	0.0000000E+000	0.0000000E+000	0.0000000E+000	64.9021	0.468389	25.0979	-0.000116308
632.773	19.9927	41.9899	46.5065	-64.5395	1105.14	-0.00023583	-0.378217	5.99001	4.88303	3	39	0.00696044	0.000149666	0	-0.07895	0.940087	0.289304	15.6514	2.91613e-05	2.82896e-05	3.34668e-05	1.10181e-05	2.11877e-05	2.02448e-05	0.838142	0.266466	9.37839	5.87583e-07	4.70204e-07	3.56396e-07	7.86728e-07	2.95964e-07	2.5021e-07	0.00924364	0.0194141	0.0215024	64.5395	4883.03	2324.96	5408.27	-25.4605	0.0000000E+000	0.0000000E+000	0.0000000E+000	25.4605	0.0000000E+000	0.0000000E+000	0.0000000E+000	-25.4605	0.0000000E+000	0.0000000E+000	0.0000000E+000	-64.5395	0.0000000E+000	0.0000000E+000	0.0000000E+000	64.5395	0.47613	25.4605	-0.000115072
316.927	35.8672	67.7075	76.6209	-62.0882	1108.46	-0.000241329	-0.379914	7.41693	5.79167	3	39	0.00668613	8.72625e-05	0	-0.079297	1.03702	0.543331	17.0092	2.36426e-05	2.113e-05	1.62416e-05	4.00658e-05	2.37729e-05	2.05017e-05	0.820051	0.513248	16.7111	3.09147e-07	2.25222e-07	2.10598e-07	2.54305e-07	4.30498e-07	1.37132e-07	0.00610946	0.011533	0.0130513	62.0882	5791.67	3068.06	6554.11	-27.9118	0.0000000E+000	0.0000000E+000	0.0000000E+000	27.9118	0.0000000E+000	0.0000000E+000	0.0000000E+000	-27.9118	0.0000000E+000	0.0000000E+000	0.0000000E+000	-62.0882	0.0000000E+000	0.0000000E+000	0.0000000E+000	62.0882	0.529737	27.9118	-0.000115343
158.831	64.3166	105.503	123.562	-58.6328	1111.78	-0.00023309	-0.378437	9.49773	6.9244	3	39	0.0066149	5.35351e-05	0	-0.0796441	0.974355	0.466812	16.6512	4.05251e-05	2.13931e-05	1.61149e-05	2.41078e-05	1.61913e-05	1.82294e-05	1.3055	0.716379	26.8011	3.24331e-07	2.06107e-07	2.12292e-07	3.04659e-07	2.70023e-07	2.1901e-07	0.00421263	0.00691029	0.00809311	58.6328	6924.4	4221.23	8109.63	-31.3672	0.0000000E+000	0.0000000E+000	0.0000000E+000	31.3672	0.0000000E+000	0.0000000E+000	0.0000000E+000	-31.3672	0.0000000E+000	0.0000000E+000	0.0000000E+000	-58.6328	0.0000000E+000	0.0000000E+000	0.0000000E+000	58.6328	0.609617	31.3672	-0.000115769
79.6177	110.368	158.248	192.934	-55.1067	1115.07	-0.000263138	-0.377625	12.632	8.49832	3	39	0.0066054	3.42367e-05	0	-0.0799861	0.699623	0.347654	17.8684	1.13782e-05	1.47805e-05	2.33297e-05	1.45589e-05	1.29326e-05	2.54814e-05	1.95644	1.05291	43.0103	1.80859e-07	2.19443e-07	2.33969e-07	3.37795e-07	2.40383e-07	2.9275e-07	0.00296501	0.0042513	0.00518313	55.1067	8498.32	5927.03	10361	-34.8933	0.0000000E+000	0.0000000E+000	0.0000000E+000	34.8933	0.0000000E+000	0.0000000E+000	0.0000000E+000	-34.8933	0.0000000E+000	0.0000000E+000	0.0000000E+000	-55.1067	0.0000000E+000	0.0000000E+000	0.0000000E+000	55.1067	0.697435	34.8933	-0.000111303
39.8851	184.427	221.476	288.21	-50.2152	1118.54	-0.000202295	-0.377795	18.017	10.6394	3	40	0.0066451	2.30564e-05	0	-0.0803454	1.65972	0.712488	33.1803	3.87031e-05	4.83551e-05	4.93647e-05	2.98522e-05	4.33588e-05	2.88036e-05	0.890366	0.51084	13.4648	1.25352e-07	6.72381e-08	7.33988e-08	5.22466e-08	7.69712e-08	5.41919e-08	0.00222027	0.00266629	0.00346969	50.2152	10639.4	8859.63	13845.2	-39.7848	0.0000000E+000	0.0000000E+000	0.0000000E+000	39.7848	0.0000000E+000	0.0000000E+000	0.0000000E+000	-39.7848	0.0000000E+000	0.0000000E+000	0.0000000E+000	-50.2152	0.0000000E+000	0.0000000E+000	0.0000000E+000	50.2152	0.832719	39.7848	-0.000111388
19.9808	284.65	300.595	413.985	-46.5606	1121.72	-0.000200338	-0.378437	26.4987	13.9708	3	40	0.00661431	1.59772e-05	0	-0.0806768	1.676	1.13876	31.7192	2.92254e-05	3.86199e-05	3.11299e-05	4.63392e-05	5.05024e-05	5.43965e-05	1.35925	1.24769	17.9313	1.41903e-07	7.7007e-08	5.50616e-08	6.15342e-08	6.86854e-08	7.38543e-08	0.0016609	0.00175393	0.00241555	46.5606	13970.8	13229.7	19240.8	-43.4394	0.0000000E+000	0.0000000E+000	0.0000000E+000	43.4394	0.0000000E+000	0.0000000E+000	0.0000000E+000	-43.4394	0.0000000E+000	0.0000000E+000	0.0000000E+000	-46.5606	0.0000000E+000	0.0000000E+000	0.0000000E+000	46.5606	0.946956	43.4394	-0.000111368
10.016	427.142	397.061	583.187	-42.9098	1124.98	-0.000283233	-0.378146	40.0191	18.5509	3	40	0.00656177	1.12516e-05	0	-0.0810175	2.21049	1.15249	33.5701	7.28172e-05	5.58326e-05	5.63878e-05	3.82724e-05	4.45992e-05	5.39235e-05	2.54838	7.48328	25.2754	1.81992e-07	1.14857e-07	1.13967e-07	5.121e-08	7.85539e-08	7.96254e-08	0.0012559	0.00116746	0.00171471	42.9098	18550.9	19956.3	27246.8	-47.0902	0.0000000E+000	0.0000000E+000	0.0000000E+000	47.0902	0.0000000E+000	0.0000000E+000	0.0000000E+000	-47.0902	0.0000000E+000	0.0000000E+000	0.0000000E+000	-42.9098	0.0000000E+000	0.0000000E+000	0.0000000E+000	42.9098	1.07576	47.0902	-0.000111109
5.01766	643.774	558.318	852.153	-40.9337	1129.19	-0.000237165	-0.380141	56.8116	24.3874	3	40	0.00658517	7.72769e-06	0	-0.0814551	0.950957	0.500658	17.7901	2.11816e-05	2.22706e-05	2.66137e-05	3.31714e-05	1.92856e-05	2.34823e-05	4.95355	16.3402	20.7759	3.32255e-07	9.64671e-08	8.29967e-08	6.20577e-08	5.24471e-08	4.92216e-08	0.00088654	0.000768859	0.0011735	40.9337	24387.4	28120.1	37222.1	-49.0663	0.0000000E+000	0.0000000E+000	0.0000000E+000	49.0663	0.0000000E+000	0.0000000E+000	0.0000000E+000	-49.0663	0.0000000E+000	0.0000000E+000	0.0000000E+000	-40.9337	0.0000000E+000	0.0000000E+000	0.0000000E+000	40.9337	1.15306	49.0663	-0.000168841
2.51368	917.471	743.56	1180.95	-39.0229	1136.22	-0.000205176	-0.378141	85.152	33.7572	3	40	0.00657441	5.56707e-06	0	-0.0821896	0.638388	0.418439	12.2087	9.0578e-06	2.29909e-05	1.61423e-05	1.96295e-05	9.81365e-06	1.44253e-05	8.72887	21.7449	21.0861	2.56756e-07	3.03875e-07	1.09908e-07	1.29078e-07	1.02261e-07	6.93803e-08	0.000657858	0.000533158	0.000846778	39.0229	33757.2	41652.6	53614.3	-50.9771	0.0000000E+000	0.0000000E+000	0.0000000E+000	50.9771	0.0000000E+000	0.0000000E+000	0.0000000E+000	-50.9771	0.0000000E+000	0.0000000E+000	0.0000000E+000	-39.0229	0.0000000E+000	0.0000000E+000	0.0000000E+000	39.0229	1.23389	50.9771	-0.000292917
1.25968	1604.98	756.68	1774.41	-25.2419	1149.05	-0.000205931	-0.378971	166.974	30.3645	3	40	0.00658649	3.71194e-06	0	-0.0835352	0.484905	0.184474	8.67795	7.76679e-06	1.10531e-05	1.27351e-05	1.52134e-05	1.32713e-05	1.23897e-05	28.4167	36.9071	26.1447	8.89384e-07	3.13417e-07	2.10979e-07	1.31071e-07	9.87116e-08	1.22806e-07	0.000509756	0.000240329	0.000563569	25.2419	30364.5	64405.6	71204.5	-64.7581	0.0000000E+000	0.0000000E+000	0.0000000E+000	64.7581	0.0000000E+000	0.0000000E+000	0.0000000E+000	-64.7581	0.0000000E+000	0.0000000E+000	0.0000000E+000	-25.2419	0.0000000E+000	0.0000000E+000	0.0000000E+000	25.2419	2.12108	64.7581	-0.000545787
0.631645	1909.12	460.051	1963.77	-13.5486	1173.51	-0.00022359	-0.378006	547.698	30.0589	3	40	0.00659016	3.35587e-06	0	-0.0860989	0.288735	0.195389	5.63897	8.17556e-06	7.49013e-06	8.2296e-06	5.01775e-06	4.50295e-06	6.61893e-06	27.2035	44.6696	33.495	3.97581e-07	5.96336e-07	4.01779e-07	2.48518e-07	1.98407e-07	1.4682e-07	0.000495054	0.000119296	0.000509225	13.5486	30058.9	124738	128309	-76.4514	0.0000000E+000	0.0000000E+000	0.0000000E+000	76.4514	0.0000000E+000	0.0000000E+000	0.0000000E+000	-76.4514	0.0000000E+000	0.0000000E+000	0.0000000E+000	-13.5486	0.0000000E+000	0.0000000E+000	0.0000000E+000	13.5486	4.1498	76.4514	-0.00104579
0.316193	2544.79	350.28	2568.78	-7.83728	1221.27	-0.00021968	-0.3776	1436.99	26.7195	3	40	0.0065893	2.56515e-06	0	-0.0911062	0.247078	0.113648	4.2463	6.795e-06	4.22478e-06	8.7579e-06	7.55318e-06	5.83931e-06	3.24152e-06	46.6111	30.0288	59.1623	5.78539e-07	5.02423e-07	4.48812e-07	4.66567e-07	3.72286e-07	2.96795e-07	0.000385653	5.30836e-05	0.00038929	7.83728	26719.5	194118	195948	-82.1627	0.0000000E+000	0.0000000E+000	0.0000000E+000	82.1627	0.0000000E+000	0.0000000E+000	0.0000000E+000	-82.1627	0.0000000E+000	0.0000000E+000	0.0000000E+000	-7.83728	0.0000000E+000	0.0000000E+000	0.0000000E+000	7.83728	7.26502	82.1627	-0.00205706
0.158419	2403.09	369.903	2431.39	-8.75076	1315.66	-0.000230706	-0.376619	2715.97	62.8626	3	40	0.00658748	2.70934e-06	0	-0.100984	0.182492	0.0936235	3.08136	2.8793e-06	6.85296e-06	2.72216e-06	5.03148e-06	3.26189e-06	4.87776e-06	40.2487	34.093	73.228	4.10804e-07	2.36432e-07	6.58852e-07	4.02592e-07	2.22588e-07	3.76686e-07	0.0004065	6.25718e-05	0.000411287	8.75076	62862.6	408389	413199	-81.2492	0.0000000E+000	0.0000000E+000	0.0000000E+000	81.2492	0.0000000E+000	0.0000000E+000	0.0000000E+000	-81.2492	0.0000000E+000	0.0000000E+000	0.0000000E+000	-8.75076	0.0000000E+000	0.0000000E+000	0.0000000E+000	8.75076	6.49653	81.2492	-0.0040634
0.0999518	2476.66	-52.7162	2477.22	1.21937	1425.86	-0.000209205	-0.376192	-30205.5	-13.6787	3	40	0.00658493	2.65819e-06	0	-0.112504	0.184374	0.111058	2.53692	5.86826e-06	5.27986e-06	3.92269e-06	5.73775e-06	1.62215e-06	4.0897e-06	38.9406	17.5736	73.028	3.25742e-07	4.1931e-07	5.70641e-07	3.96815e-07	2.90702e-07	2.91441e-07	0.000403587	-8.59043e-06	0.000403678	-1.21937	-13678.7	642639	642784	-91.2194	0.0000000E+000	0.0000000E+000	0.0000000E+000	91.2194	0.0000000E+000	0.0000000E+000	0.0000000E+000	-91.2194	0.0000000E+000	0.0000000E+000	0.0000000E+000	1.21937	0.0000000E+000	0.0000000E+000	0.0000000E+000	-1.21937	46.981	88.7806	-0.00641249