File: Python/Data/RDE/240222-EIS-Fe2Fe3_5mM-HCl1M-0RPM-Ag_AgCl_BLF8-GC-RDE-5minVsOCV-5ppf-3scans_C15.mpt
EC-Lab ASCII FILE
Nb header lines : 66

Potentio Electrochemical Impedance Spectroscopy

Run on channel : 15 (SN 19485)
User :
Electrode connection : standard
Potential control : Ewe
Ewe ctrl range : min = -1.00 V, max = 1.00 V
Ewe,I filtering : <None>
Safety Limits :
	Do not start on E overload
Channel : Floating
Acquisition started on : 02/22/2024 15:30:34.416
Loaded Setting File :  NONE
Saved on :
	File : 240222-EIS-Fe2Fe3_5mM-HCl1M-0RPM-Ag_AgCl_BLF8-GC-RDE-5minVsOCV-5ppf-3scans_C15.mpr
	Directory : C:\Data\mathias\RDE-RPM-variation\
	Host : 192.168.0.1
Device : VMP-300 (SN 0826)
Address : USB
EC-Lab for windows v11.52 (software)
Internet server v11.52 (firmware)
Command interpretor v11.52 (firmware)
Electrode material :
Initial state :
Electrolyte :
Comments :
Cable : special
Electrode surface area : 0.001 cm²
Characteristic mass : 0.001 g
Equivalent Weight : 0.000 g/eq.
Density : 0.000 g/cm3
Volume (V) : 0.001 cm³
Record EIS quality indicators
Cycle Definition : Charge/Discharge alternance
Mode                Single sine
E (V)               0.0000
vs.                 Ref
tE (h:m:s)          0:05:0.0000
record              0
dI                  0.000
unit dI             mA
dt (s)              0.000
fi                  400.000
unit fi             kHz
ff                  100.000
unit ff             mHz
Nd                  10
Points              per decade
spacing             Logarithmic
Va (mV)             7.0
pw                  0.10
Na                  5
corr                0
E range min (V)     -1.000
E range max (V)     1.000
I Range             Auto
Bandwidth           8
nc cycles           3
goto Ns'            0
nr cycles           0
inc. cycle          1

freq/Hz	Re(Z)/Ohm	-Im(Z)/Ohm	|Z|/Ohm	Phase(Z)/deg	time/s	<Ewe>/V	<I>/mA	Cs/µF	Cp/µF	cycle number	I Range	|Ewe|/V	|I|/A	Ns	(Q-Qo)/mA.h	THD Ewe/%	NSD Ewe/%	NSR Ewe/%	|Ewe h2|/V	|Ewe h3|/V	|Ewe h4|/V	|Ewe h5|/V	|Ewe h6|/V	|Ewe h7|/V	THD I/%	NSD I/%	NSR I/%	|I h2|/A	|I h3|/A	|I h4|/A	|I h5|/A	|I h6|/A	|I h7|/A	Re(Y)/Ohm-1	Im(Y)/Ohm-1	|Y|/Ohm-1	Phase(Y)/deg	Re(C)/nF	Im(C)/nF	|C|/nF	Phase(C)/deg	Re(M)	Im(M)	|M|	Phase(M)/deg	Re(Permittivity)	Im(Permittivity)	|Permittivity|	Phase(Permittivity)/deg	Re(Resistivity)/Ohm.cm	Im(Resistivity)/Ohm.cm	|Resistivity|/Ohm.cm	Phase(Resistivity)/deg	Re(Conductivity)/mS/cm	Im(Conductivity)/mS/cm	|Conductivity|/mS/cm	Phase(Conductivity)/deg	Tan(Delta)	Loss Angle(Delta)/deg	dq/mA.h
399996	3.65827	1.57791	3.98406	-23.3319	303.393	-0.000165778	-0.0214833	0.252163	0.0395545	1	38	0.00652594	0.00163801	0	-0.00193645	-1	-1	-1	0	0	0	0	0	0	-1	-1	-1	0	0	0	0	0	0	0.230475	0.0994104	0.251	23.3319	39.5545	91.7039	99.8707	-66.6681	0.0000000E+000	0.0000000E+000	0.0000000E+000	66.6681	0.0000000E+000	0.0000000E+000	0.0000000E+000	-66.6681	0.0000000E+000	0.0000000E+000	0.0000000E+000	-23.3319	0.0000000E+000	0.0000000E+000	0.0000000E+000	23.3319	2.31842	66.6681	-0.00193645
159201	3.55591	0.873373	3.6616	-13.7994	310.644	-0.000157035	-0.0227531	1.14466	0.065123	1	38	0.00721242	0.00196975	0	-0.00198731	-1	-1	-1	0	0	0	0	0	0	-1	-1	-1	0	0	0	0	0	0	0.265222	0.0651417	0.273105	13.7994	65.123	265.146	273.027	-76.2006	0.0000000E+000	0.0000000E+000	0.0000000E+000	76.2006	0.0000000E+000	0.0000000E+000	0.0000000E+000	-76.2006	0.0000000E+000	0.0000000E+000	0.0000000E+000	-13.7994	0.0000000E+000	0.0000000E+000	0.0000000E+000	13.7994	4.07147	76.2006	-1.53697e-05
63362.9	3.5869	0.989582	3.7209	-15.4235	317.894	-0.00013819	-0.0210643	2.53824	0.179532	1	38	0.00722464	0.00194164	0	-0.00203039	0.891322	0.723289	17.6455	1.95024e-05	2.64672e-05	1.95081e-05	2.65283e-05	2.25715e-05	2.61933e-05	0.0847047	0.0606797	1.46202	4.5184e-07	9.96046e-07	4.91029e-07	7.38526e-07	5.18257e-07	3.74572e-07	0.259073	0.0714752	0.268752	15.4235	179.531	650.74	675.052	-74.5765	0.0000000E+000	0.0000000E+000	0.0000000E+000	74.5765	0.0000000E+000	0.0000000E+000	0.0000000E+000	-74.5765	0.0000000E+000	0.0000000E+000	0.0000000E+000	-15.4235	0.0000000E+000	0.0000000E+000	0.0000000E+000	15.4235	3.62466	74.5765	-8.32308e-06
25219	3.74149	1.86369	4.17997	-26.4785	325.144	-0.000143502	-0.0213082	3.38625	0.673164	1	38	0.0072614	0.00173719	0	-0.00207446	0.947306	0.736374	17.4348	2.47682e-05	1.87098e-05	2.7148e-05	2.42611e-05	3.13172e-05	2.90745e-05	0.0998247	0.0570445	1.62648	6.722e-07	7.48052e-07	5.97647e-07	7.50454e-07	6.04786e-07	6.08068e-07	0.214141	0.106667	0.239236	26.4785	673.164	1351.43	1509.8	-63.5215	0.0000000E+000	0.0000000E+000	0.0000000E+000	63.5215	0.0000000E+000	0.0000000E+000	0.0000000E+000	-63.5215	0.0000000E+000	0.0000000E+000	0.0000000E+000	-26.4785	0.0000000E+000	0.0000000E+000	0.0000000E+000	26.4785	2.00757	63.5215	-1.12352e-05
10039.3	4.03554	4.17332	5.80536	-45.9616	332.394	-0.000144397	-0.021649	3.79868	1.96308	1	38	0.00728992	0.00125572	0	-0.00212064	1.05412	0.656795	17.4304	2.84607e-05	1.68037e-05	3.98948e-05	3.29809e-05	3.071e-05	1.95799e-05	0.135119	0.0791254	2.27048	1.06332e-06	5.90705e-07	6.26872e-07	4.5843e-07	3.49785e-07	4.59071e-07	0.119741	0.123829	0.172255	45.9616	1963.08	1898.27	2730.78	-44.0384	0.0000000E+000	0.0000000E+000	0.0000000E+000	44.0384	0.0000000E+000	0.0000000E+000	0.0000000E+000	-44.0384	0.0000000E+000	0.0000000E+000	0.0000000E+000	-45.9616	0.0000000E+000	0.0000000E+000	0.0000000E+000	45.9616	0.966985	44.0384	-9.95124e-06
3993.72	4.87987	9.74493	10.8985	-63.4001	339.815	-0.00025859	-0.0216434	4.08944	3.26956	1	38	0.00667817	0.000612762	0	-0.00216453	0.949074	0.565756	19.1726	2.54891e-05	1.73134e-05	1.73539e-05	2.52131e-05	2.29594e-05	3.00254e-05	0.308654	0.107772	4.68008	6.02809e-07	1.10634e-06	5.91599e-07	6.512e-07	6.45998e-07	6.20409e-07	0.0410843	0.082044	0.0917559	63.4001	3269.56	1637.26	3656.59	-26.5999	0.0000000E+000	0.0000000E+000	0.0000000E+000	26.5999	0.0000000E+000	0.0000000E+000	0.0000000E+000	-26.5999	0.0000000E+000	0.0000000E+000	0.0000000E+000	-63.4001	0.0000000E+000	0.0000000E+000	0.0000000E+000	63.4001	0.50076	26.5999	-1.09155e-05
1589.49	7.31072	22.3323	23.4985	-71.8736	347.365	-0.000292889	-0.0222877	4.48361	4.04963	1	38	0.00649747	0.000276506	0	-0.00221031	1.0096	0.542866	19.6355	2.11406e-05	3.0718e-05	1.80693e-05	1.75748e-05	2.21912e-05	3.28159e-05	0.772734	0.248412	10.3369	6.30065e-07	1.47472e-06	3.76797e-07	9.41855e-07	5.25157e-07	6.13048e-07	0.0132398	0.040444	0.0425559	71.8736	4049.63	1325.69	4261.1	-18.1264	0.0000000E+000	0.0000000E+000	0.0000000E+000	18.1264	0.0000000E+000	0.0000000E+000	0.0000000E+000	-18.1264	0.0000000E+000	0.0000000E+000	0.0000000E+000	-71.8736	0.0000000E+000	0.0000000E+000	0.0000000E+000	71.8736	0.327361	18.1264	-1.10366e-05
632.773	14.0649	50.2341	52.166	-74.3585	354.948	-0.000232493	-0.0203474	5.00695	4.64298	1	39	0.00660837	0.00012668	0	-0.00225368	1.02217	0.569516	18.7376	3.31075e-05	1.92045e-05	2.83954e-05	1.88307e-05	3.27376e-05	1.93411e-05	0.856505	0.238167	9.96714	4.27327e-07	5.20749e-07	3.20393e-07	6.85757e-07	2.00858e-07	1.70711e-07	0.00516846	0.0184597	0.0191696	74.3585	4642.98	1299.97	4821.53	-15.6415	0.0000000E+000	0.0000000E+000	0.0000000E+000	15.6415	0.0000000E+000	0.0000000E+000	0.0000000E+000	-15.6415	0.0000000E+000	0.0000000E+000	0.0000000E+000	-74.3585	0.0000000E+000	0.0000000E+000	0.0000000E+000	74.3585	0.279986	15.6415	-1.0273e-05
251.853	31.0652	108.814	113.162	-74.0665	362.27	-0.000245131	-0.0203228	5.80747	5.36981	1	39	0.00634171	5.60412e-05	0	-0.00229486	0.941994	0.564257	19.6085	1.85505e-05	2.35637e-05	2.00838e-05	2.72459e-05	1.95617e-05	1.98205e-05	1.24634	0.734218	22.3636	2.01198e-07	3.36957e-07	1.8462e-07	2.3452e-07	3.18226e-07	3.0558e-07	0.00242592	0.00849742	0.00883692	74.0665	5369.81	1533.02	5584.36	-15.9335	0.0000000E+000	0.0000000E+000	0.0000000E+000	15.9335	0.0000000E+000	0.0000000E+000	0.0000000E+000	-15.9335	0.0000000E+000	0.0000000E+000	0.0000000E+000	-74.0665	0.0000000E+000	0.0000000E+000	0.0000000E+000	74.0665	0.285489	15.9335	-1.03249e-05
100.224	67.1053	231.222	240.763	-73.8162	370.065	-0.000221719	-0.0204537	6.86779	6.33427	1	40	0.0072102	2.99473e-05	0	-0.00233869	1.36838	0.666359	26.069	2.98842e-05	3.62173e-05	3.81868e-05	4.55303e-05	4.52826e-05	3.13433e-05	0.742996	0.164003	8.24408	8.57483e-08	1.09822e-07	4.81957e-08	1.34426e-07	6.81066e-08	4.90968e-08	0.00115765	0.00398887	0.00415346	73.8162	6334.27	1838.33	6595.63	-16.1838	0.0000000E+000	0.0000000E+000	0.0000000E+000	16.1838	0.0000000E+000	0.0000000E+000	0.0000000E+000	-16.1838	0.0000000E+000	0.0000000E+000	0.0000000E+000	-73.8162	0.0000000E+000	0.0000000E+000	0.0000000E+000	73.8162	0.29022	16.1838	-1.28333e-05
39.8851	139.815	494.598	513.98	-74.2153	377.169	-0.000255141	-0.0204181	8.06783	7.47083	1	40	0.00708341	1.37815e-05	0	-0.00237873	1.45073	0.609612	27.0091	3.93053e-05	3.11881e-05	4.27005e-05	3.38727e-05	4.80775e-05	3.92192e-05	1.08229	0.381089	17.8948	7.03928e-08	4.07679e-08	4.90595e-08	6.248e-08	5.54474e-08	5.60885e-08	0.000529249	0.00187223	0.0019456	74.2153	7470.83	2111.88	7763.59	-15.7847	0.0000000E+000	0.0000000E+000	0.0000000E+000	15.7847	0.0000000E+000	0.0000000E+000	0.0000000E+000	-15.7847	0.0000000E+000	0.0000000E+000	0.0000000E+000	-74.2153	0.0000000E+000	0.0000000E+000	0.0000000E+000	74.2153	0.282684	15.7847	-9.95827e-06
15.879	311.714	1057.73	1102.71	-73.5798	384.147	-0.000259373	-0.0202619	9.47589	8.71869	1	40	0.00702546	6.3711e-06	0	-0.002418	1.50731	0.78121	27.5648	3.87721e-05	4.90951e-05	3.5531e-05	3.35548e-05	3.3013e-05	2.57405e-05	2.38661	1.11651	39.4282	5.946e-08	8.46043e-08	5.11094e-08	4.5455e-08	5.02467e-08	4.11494e-08	0.000256351	0.000869872	0.000906859	73.5798	8718.68	2569.4	9089.4	-16.4202	0.0000000E+000	0.0000000E+000	0.0000000E+000	16.4202	0.0000000E+000	0.0000000E+000	0.0000000E+000	-16.4202	0.0000000E+000	0.0000000E+000	0.0000000E+000	-73.5798	0.0000000E+000	0.0000000E+000	0.0000000E+000	73.5798	0.2947	16.4203	-9.68265e-06
6.31569	718.241	2275.81	2386.46	-72.4844	392.399	-0.000222688	-0.0201424	11.0729	10.07	1	41	0.00705468	2.95613e-06	0	-0.00246373	1.25459	0.642509	24.7203	2.58175e-05	2.97594e-05	3.31551e-05	3.84615e-05	3.82511e-05	3.56467e-05	0.665084	0.377892	11.4793	7.08723e-09	6.34853e-09	5.39545e-09	9.07832e-09	7.71905e-09	7.95438e-09	0.000126113	0.000399602	0.00041903	72.4844	10070	3178.05	10559.5	-17.5156	0.0000000E+000	0.0000000E+000	0.0000000E+000	17.5156	0.0000000E+000	0.0000000E+000	0.0000000E+000	-17.5156	0.0000000E+000	0.0000000E+000	0.0000000E+000	-72.4844	0.0000000E+000	0.0000000E+000	0.0000000E+000	72.4844	0.315597	17.5156	-1.26708e-05
2.51368	1715.68	4681.9	4986.36	-69.8747	406.699	-0.000237228	-0.0199514	13.5235	11.9225	1	41	0.00704768	1.41339e-06	0	-0.00254313	0.647143	0.357486	13.2455	1.78424e-05	2.21352e-05	2.03583e-05	1.18168e-05	1.13488e-05	1.7262e-05	0.703508	0.667685	13.33	4.94351e-09	3.10178e-09	3.75776e-09	4.2536e-09	2.64475e-09	3.19326e-09	6.90031e-05	0.000188302	0.000200547	69.8747	11922.5	4368.98	12697.8	-20.1253	0.0000000E+000	0.0000000E+000	0.0000000E+000	20.1253	0.0000000E+000	0.0000000E+000	0.0000000E+000	-20.1253	0.0000000E+000	0.0000000E+000	0.0000000E+000	-69.8747	0.0000000E+000	0.0000000E+000	0.0000000E+000	69.8747	0.366449	20.1253	-2.56277e-05
1.00122	3826.21	9239.34	10000.3	-67.5045	438.626	-0.000252067	-0.0197805	17.2049	14.6862	1	41	0.00705158	7.0514e-07	0	-0.00271891	0.419249	0.224541	8.14608	8.59616e-06	9.44603e-06	1.31782e-05	1.2066e-05	8.62751e-06	1.19601e-05	0.988224	1.08921	18.5285	3.58148e-09	2.77319e-09	2.97309e-09	2.15108e-09	2.02003e-09	2.02775e-09	3.82601e-05	9.23886e-05	9.99974e-05	67.5045	14686.2	6081.88	15895.7	-22.4955	0.0000000E+000	0.0000000E+000	0.0000000E+000	22.4955	0.0000000E+000	0.0000000E+000	0.0000000E+000	-22.4955	0.0000000E+000	0.0000000E+000	0.0000000E+000	-67.5045	0.0000000E+000	0.0000000E+000	0.0000000E+000	67.5045	0.414122	22.4955	-5.87029e-05
0.398211	7374.46	17237.9	18749.1	-66.8385	515.025	-0.000236811	-0.0202445	23.1858	19.5989	1	41	0.00704794	3.75908e-07	0	-0.00313706	0.233939	0.155811	5.02944	5.69728e-06	7.40433e-06	6.26937e-06	8.59587e-06	5.4566e-06	3.16889e-06	4.78614	13.9595	26.9363	1.17802e-08	9.3558e-09	6.70892e-09	4.64977e-09	4.60469e-09	3.17795e-09	2.09783e-05	4.90371e-05	5.33359e-05	66.8385	19598.9	8384.5	21317	-23.1615	0.0000000E+000	0.0000000E+000	0.0000000E+000	23.1615	0.0000000E+000	0.0000000E+000	0.0000000E+000	-23.1615	0.0000000E+000	0.0000000E+000	0.0000000E+000	-66.8385	0.0000000E+000	0.0000000E+000	0.0000000E+000	66.8385	0.427805	23.1615	-0.000143705
0.158419	18016.2	36580.1	40776.1	-63.7791	703.81	-0.000271063	-0.0195185	27.4643	22.1028	1	41	0.00704557	1.72787e-07	0	-0.0041729	0.237916	0.121023	3.20823	3.60897e-06	8.04671e-06	6.67711e-06	7.82595e-06	5.88169e-06	5.51356e-06	6.8643	23.3293	32.9476	8.09013e-09	4.23062e-09	3.41283e-09	3.39843e-09	2.9905e-09	2.05575e-09	1.08356e-05	2.20006e-05	2.45242e-05	63.7791	22102.8	10885.9	24638.1	-26.2209	0.0000000E+000	0.0000000E+000	0.0000000E+000	26.2209	0.0000000E+000	0.0000000E+000	0.0000000E+000	-26.2209	0.0000000E+000	0.0000000E+000	0.0000000E+000	-63.7791	0.0000000E+000	0.0000000E+000	0.0000000E+000	63.7791	0.492514	26.2209	-0.000349228
317705	3.62684	1.28178	3.84668	-19.4642	891.54	-0.000195939	-0.0208837	0.390824	0.0433949	2	38	0.00714482	0.0018574	0	-0.00519236	-1	-1	-1	0	0	0	0	0	0	-1	-1	-1	0	0	0	0	0	0	0.245107	0.0866249	0.259964	19.4642	43.3949	122.787	130.23	-70.5358	0.0000000E+000	0.0000000E+000	0.0000000E+000	70.5358	0.0000000E+000	0.0000000E+000	0.0000000E+000	-70.5358	0.0000000E+000	0.0000000E+000	0.0000000E+000	-19.4642	0.0000000E+000	0.0000000E+000	0.0000000E+000	19.4642	2.82953	70.5358	-1.17186e-05
126447	3.55473	0.839382	3.65249	-13.2859	898.791	-0.000153568	-0.0207552	1.49951	0.0791938	2	38	0.00722266	0.00197746	0	-0.00522562	-1	-1	-1	0	0	0	0	0	0	-1	-1	-1	0	0	0	0	0	0	0.266458	0.0629189	0.273786	13.2859	79.1938	335.381	344.604	-76.7141	0.0000000E+000	0.0000000E+000	0.0000000E+000	76.7141	0.0000000E+000	0.0000000E+000	0.0000000E+000	-76.7141	0.0000000E+000	0.0000000E+000	0.0000000E+000	-13.2859	0.0000000E+000	0.0000000E+000	0.0000000E+000	13.2859	4.23494	76.7141	-5.3642e-06
50326.6	3.63424	1.14594	3.81062	-17.501	906.044	-0.000156476	-0.0208167	2.7597	0.24957	2	38	0.0072516	0.00190299	0	-0.00527338	0.897562	0.438598	17.742	2.76223e-05	2.80999e-05	2.10142e-05	1.91978e-05	2.93401e-05	2.21524e-05	0.0785265	0.0457151	1.50139	5.00739e-07	7.28154e-07	5.59645e-07	5.85324e-07	4.97211e-07	3.44325e-07	0.250277	0.0789167	0.262424	17.501	249.57	791.487	829.901	-72.499	0.0000000E+000	0.0000000E+000	0.0000000E+000	72.499	0.0000000E+000	0.0000000E+000	0.0000000E+000	-72.499	0.0000000E+000	0.0000000E+000	0.0000000E+000	-17.501	0.0000000E+000	0.0000000E+000	0.0000000E+000	17.501	3.17141	72.499	-1.19588e-05
20032.3	3.80229	2.29533	4.44139	-31.1181	913.297	-0.000199294	-0.0207236	3.46134	0.924477	2	38	0.00727997	0.00163912	0	-0.00531333	0.860329	0.398367	17.5398	2.07177e-05	2.45479e-05	2.39475e-05	2.5546e-05	2.21586e-05	2.53138e-05	0.0954606	0.0658511	1.73248	7.62465e-07	6.11174e-07	5.29871e-07	5.69391e-07	4.90924e-07	5.73636e-07	0.192756	0.116361	0.225155	31.1181	924.477	1531.43	1788.84	-58.8819	0.0000000E+000	0.0000000E+000	0.0000000E+000	58.8819	0.0000000E+000	0.0000000E+000	0.0000000E+000	-58.8819	0.0000000E+000	0.0000000E+000	0.0000000E+000	-31.1181	0.0000000E+000	0.0000000E+000	0.0000000E+000	31.1181	1.65653	58.8819	-8.5284e-06
7967.67	4.18828	5.23392	6.7034	-51.3326	920.565	-0.000294231	-0.0206324	3.81647	2.32662	2	38	0.00736188	0.00109823	0	-0.00535567	0.923651	0.669989	17.2606	3.10452e-05	2.38115e-05	2.316e-05	3.03679e-05	1.70903e-05	2.34531e-05	0.146843	0.100618	2.59754	7.14278e-07	5.22884e-07	5.05318e-07	6.19742e-07	5.24893e-07	6.50965e-07	0.0932062	0.116476	0.149178	51.3326	2326.62	1861.8	2979.85	-38.6674	0.0000000E+000	0.0000000E+000	0.0000000E+000	38.6674	0.0000000E+000	0.0000000E+000	0.0000000E+000	-38.6674	0.0000000E+000	0.0000000E+000	0.0000000E+000	-51.3326	0.0000000E+000	0.0000000E+000	0.0000000E+000	51.3326	0.800218	38.6674	-1.16877e-05
3171.96	5.28773	12.2007	13.2973	-66.5684	927.989	-0.000311791	-0.0213343	4.11251	3.4622	2	38	0.00635408	0.000477848	0	-0.00540074	0.92858	0.445528	20.4224	2.16467e-05	2.89347e-05	1.32138e-05	2.74951e-05	1.72944e-05	2.10892e-05	0.374892	0.198542	5.99294	6.15487e-07	1.03685e-06	4.7094e-07	4.93717e-07	7.93052e-07	4.6396e-07	0.0299049	0.0690016	0.0752033	66.5684	3462.2	1500.5	3773.37	-23.4316	0.0000000E+000	0.0000000E+000	0.0000000E+000	23.4316	0.0000000E+000	0.0000000E+000	0.0000000E+000	-23.4316	0.0000000E+000	0.0000000E+000	0.0000000E+000	-66.5684	0.0000000E+000	0.0000000E+000	0.0000000E+000	66.5684	0.433394	23.4316	-1.03691e-05
1262.98	8.50268	27.8581	29.1268	-73.0271	935.537	-0.000284146	-0.0213846	4.52349	4.13801	2	38	0.00659191	0.000226318	0	-0.00544524	1.09398	0.69612	19.4603	3.0073e-05	3.35287e-05	2.28587e-05	2.09588e-05	2.80997e-05	1.5491e-05	1.02059	0.404843	12.6572	8.16655e-07	1.04107e-06	7.43933e-07	1.45771e-06	3.99409e-07	4.51149e-07	0.0100224	0.0328373	0.0343327	73.0271	4138.01	1262.98	4326.46	-16.9729	0.0000000E+000	0.0000000E+000	0.0000000E+000	16.9729	0.0000000E+000	0.0000000E+000	0.0000000E+000	-16.9729	0.0000000E+000	0.0000000E+000	0.0000000E+000	-73.0271	0.0000000E+000	0.0000000E+000	0.0000000E+000	73.0271	0.305214	16.9729	-1.09002e-05
502.588	17.0692	62.0501	64.3551	-74.6191	943.122	-0.000249009	-0.0192457	5.10347	4.74444	2	39	0.00664162	0.000103203	0	-0.0054859	0.977759	0.635229	18.7124	2.30533e-05	2.54426e-05	2.53649e-05	2.0049e-05	2.13058e-05	2.9328e-05	0.929567	0.367039	12.2822	3.81513e-07	3.30717e-07	2.16294e-07	6.25077e-07	3.1186e-07	2.45045e-07	0.00412142	0.0149823	0.0155388	74.6191	4744.44	1305.13	4920.68	-15.3809	0.0000000E+000	0.0000000E+000	0.0000000E+000	15.3809	0.0000000E+000	0.0000000E+000	0.0000000E+000	-15.3809	0.0000000E+000	0.0000000E+000	0.0000000E+000	-74.6191	0.0000000E+000	0.0000000E+000	0.0000000E+000	74.6191	0.275086	15.3809	-9.78521e-06
199.936	37.8831	133.03	138.319	-74.1046	950.441	-0.000295797	-0.0193104	5.98381	5.53496	2	39	0.00646963	4.67732e-05	0	-0.00552487	1.17457	0.616939	19.1036	2.53244e-05	3.77007e-05	2.85336e-05	2.67928e-05	3.42849e-05	2.14815e-05	1.40078	0.8718	26.8199	3.12206e-07	1.98657e-07	2.50539e-07	2.99919e-07	2.65335e-07	1.55501e-07	0.00198007	0.00695322	0.00722965	74.1046	5534.96	1576.19	5755.01	-15.8954	0.0000000E+000	0.0000000E+000	0.0000000E+000	15.8954	0.0000000E+000	0.0000000E+000	0.0000000E+000	-15.8954	0.0000000E+000	0.0000000E+000	0.0000000E+000	-74.1046	0.0000000E+000	0.0000000E+000	0.0000000E+000	74.1046	0.28477	15.8954	-9.76172e-06
79.6177	82.124	283.54	295.194	-73.847	957.964	-0.000279934	-0.0193943	7.05011	6.50445	2	40	0.00651367	2.20657e-05	0	-0.00556484	1.75258	0.702497	29.6114	4.72358e-05	3.36936e-05	5.33527e-05	4.18053e-05	3.61588e-05	5.0199e-05	0.812202	0.27813	11.2583	4.64755e-08	7.09269e-08	8.14337e-08	1.03579e-07	4.93379e-08	5.80009e-08	0.000942444	0.00325387	0.0033876	73.847	6504.45	1883.94	6771.79	-16.153	0.0000000E+000	0.0000000E+000	0.0000000E+000	16.153	0.0000000E+000	0.0000000E+000	0.0000000E+000	-16.153	0.0000000E+000	0.0000000E+000	0.0000000E+000	-73.847	0.0000000E+000	0.0000000E+000	0.0000000E+000	73.847	0.289638	16.153	-9.45825e-06
31.6723	170.935	607.948	631.521	-74.2958	965.011	-0.00028478	-0.0194731	8.26561	7.66004	2	40	0.00642446	1.0173e-05	0	-0.00560262	1.29937	0.827436	30.1563	3.76221e-05	2.98318e-05	2.44679e-05	2.7917e-05	3.85292e-05	2.60437e-05	1.17173	0.565132	24.5504	3.75448e-08	7.04579e-08	3.21487e-08	5.14864e-08	3.28791e-08	3.24058e-08	0.000428602	0.00152437	0.00158348	74.2958	7660.04	2153.75	7957.07	-15.7042	0.0000000E+000	0.0000000E+000	0.0000000E+000	15.7042	0.0000000E+000	0.0000000E+000	0.0000000E+000	-15.7042	0.0000000E+000	0.0000000E+000	0.0000000E+000	-74.2958	0.0000000E+000	0.0000000E+000	0.0000000E+000	74.2958	0.281167	15.7042	-9.27613e-06
12.6144	381.18	1318.05	1372.06	-73.8701	972.484	-0.000280791	-0.0194101	9.57248	8.83366	2	41	0.00645831	4.70702e-06	0	-0.0056426	1.52901	0.844831	26.7966	3.95246e-05	3.64976e-05	3.59661e-05	4.1549e-05	3.51731e-05	3.36758e-05	0.67405	0.211493	7.13265	9.70992e-09	1.31502e-08	1.46449e-08	1.87044e-08	5.95554e-09	6.3232e-09	0.000202482	0.000700141	0.000728832	73.8701	8833.66	2554.7	9195.65	-16.1299	0.0000000E+000	0.0000000E+000	0.0000000E+000	16.1299	0.0000000E+000	0.0000000E+000	0.0000000E+000	-16.1299	0.0000000E+000	0.0000000E+000	0.0000000E+000	-73.8701	0.0000000E+000	0.0000000E+000	0.0000000E+000	73.8701	0.289201	16.1299	-1.17149e-05
5.01766	910.663	2803.72	2947.91	-72.0059	981.19	-0.000282164	-0.0191859	11.3132	10.2335	2	41	0.00644499	2.18629e-06	0	-0.00568891	1.40944	0.675103	22.685	3.63996e-05	3.73636e-05	2.82819e-05	2.83722e-05	3.62438e-05	4.05522e-05	0.893158	0.347108	12.9492	8.34026e-09	5.56799e-09	6.42644e-09	8.2152e-09	7.58636e-09	8.46317e-09	0.000104793	0.000322632	0.000339224	72.0059	10233.5	3323.91	10759.8	-17.9941	0.0000000E+000	0.0000000E+000	0.0000000E+000	17.9941	0.0000000E+000	0.0000000E+000	0.0000000E+000	-17.9941	0.0000000E+000	0.0000000E+000	0.0000000E+000	-72.0059	0.0000000E+000	0.0000000E+000	0.0000000E+000	72.0059	0.324806	17.9941	-1.41937e-05
1.99783	2153.49	5677.14	6071.86	-69.2269	998.482	-0.00029118	-0.0192748	14.0324	12.2673	2	41	0.00643604	1.05998e-06	0	-0.00578085	0.717981	0.339626	12.7794	1.56507e-05	1.79498e-05	9.19781e-06	2.05199e-05	1.98843e-05	1.86154e-05	0.904793	0.446422	15.943	4.77231e-09	3.63182e-09	1.98523e-09	3.71989e-09	3.56056e-09	3.32321e-09	5.84116e-05	0.000153988	0.000164694	69.2269	12267.3	4653.3	13120.2	-20.7731	0.0000000E+000	0.0000000E+000	0.0000000E+000	20.7731	0.0000000E+000	0.0000000E+000	0.0000000E+000	-20.7731	0.0000000E+000	0.0000000E+000	0.0000000E+000	-69.2269	0.0000000E+000	0.0000000E+000	0.0000000E+000	69.2269	0.379326	20.7731	-3.0206e-05
0.79456	4710.25	11147.1	12101.4	-67.0933	1038.01	-0.000267508	-0.0191337	17.9694	15.247	2	41	0.00643258	5.31557e-07	0	-0.00599129	0.404213	0.137192	7.81752	8.24204e-06	1.22813e-05	8.9905e-06	1.08673e-05	8.54999e-06	8.67929e-06	0.986505	1.29894	22.4476	2.28931e-09	2.16694e-09	1.83381e-09	1.50251e-09	1.84375e-09	1.39405e-09	3.21642e-05	7.61185e-05	8.26351e-05	67.0933	15247	6442.69	16552.3	-22.9067	0.0000000E+000	0.0000000E+000	0.0000000E+000	22.9067	0.0000000E+000	0.0000000E+000	0.0000000E+000	-22.9067	0.0000000E+000	0.0000000E+000	0.0000000E+000	-67.0933	0.0000000E+000	0.0000000E+000	0.0000000E+000	67.0933	0.422555	22.9067	-7.02799e-05
0.316193	9794.05	21642.6	23755.6	-65.6516	1133.64	-0.000259022	-0.0191648	23.2572	19.304	2	41	0.00643542	2.70901e-07	0	-0.00649776	0.301614	0.12559	5.01424	6.44508e-06	7.82456e-06	9.19048e-06	7.97641e-06	6.26562e-06	6.44043e-06	4.59526	15.9454	34.6802	7.6914e-09	6.07878e-09	5.262e-09	3.3052e-09	2.6633e-09	2.98012e-09	1.73553e-05	3.83512e-05	4.20954e-05	65.6516	19304	8735.73	21188.6	-24.3484	0.0000000E+000	0.0000000E+000	0.0000000E+000	24.3484	0.0000000E+000	0.0000000E+000	0.0000000E+000	-24.3484	0.0000000E+000	0.0000000E+000	0.0000000E+000	-65.6516	0.0000000E+000	0.0000000E+000	0.0000000E+000	65.6516	0.452535	24.3484	-0.000172108
0.125939	21097.3	42570.6	47511.5	-63.6378	1370.73	-0.000262165	-0.0188841	29.686	23.8326	2	41	0.0064332	1.35403e-07	0	-0.00773998	0.183057	0.100839	3.30312	2.7334e-06	6.50796e-06	4.44254e-06	5.05747e-06	3.10031e-06	3.09875e-06	7.57198	35.7372	36.1294	6.93208e-09	4.29901e-09	2.59619e-09	2.95966e-09	1.94414e-09	1.66611e-09	9.34604e-06	1.88587e-05	2.10475e-05	63.6378	23832.6	11811.1	26598.8	-26.3622	0.0000000E+000	0.0000000E+000	0.0000000E+000	26.3622	0.0000000E+000	0.0000000E+000	0.0000000E+000	-26.3622	0.0000000E+000	0.0000000E+000	0.0000000E+000	-63.6378	0.0000000E+000	0.0000000E+000	0.0000000E+000	63.6378	0.495583	26.3622	-0.000424253
252347	3.59226	1.08704	3.75313	-16.8362	1479.47	-0.000149225	-0.0188058	0.580195	0.0486723	3	38	0.00722765	0.00192577	0	-0.00830775	-1	-1	-1	0	0	0	0	0	0	-1	-1	-1	0	0	0	0	0	0	0.255024	0.0771721	0.266444	16.8362	48.6723	160.843	168.046	-73.1638	0.0000000E+000	0.0000000E+000	0.0000000E+000	73.1638	0.0000000E+000	0.0000000E+000	0.0000000E+000	-73.1638	0.0000000E+000	0.0000000E+000	0.0000000E+000	-16.8362	0.0000000E+000	0.0000000E+000	0.0000000E+000	16.8362	3.30461	73.1638	-5.79465e-06
100431	3.56118	0.861104	3.66381	-13.5934	1486.72	-0.000165498	-0.0182863	1.84034	0.101658	3	38	0.00722935	0.00197318	0	-0.00834417	1.09239	0.634743	17.6529	3.98462e-05	3.54074e-05	3.25928e-05	1.92125e-05	2.82688e-05	2.47523e-05	0.0907714	0.0577832	1.46026	7.62085e-07	9.2749e-07	4.83561e-07	6.34672e-07	6.18428e-07	3.72029e-07	0.265294	0.0641489	0.27294	13.5934	101.658	420.419	432.535	-76.4066	0.0000000E+000	0.0000000E+000	0.0000000E+000	76.4066	0.0000000E+000	0.0000000E+000	0.0000000E+000	-76.4066	0.0000000E+000	0.0000000E+000	0.0000000E+000	-13.5934	0.0000000E+000	0.0000000E+000	0.0000000E+000	13.5934	4.1356	76.4066	-6.88024e-06
39971.8	3.66314	1.34065	3.90076	-20.1018	1493.98	-0.000155861	-0.0181076	2.96997	0.350818	3	38	0.00720782	0.0018478	0	-0.00838418	0.968845	0.52227	17.6205	4.03981e-05	2.29068e-05	1.78527e-05	3.20797e-05	1.36777e-05	2.39033e-05	0.0977118	0.0427933	1.541	7.75095e-07	9.83754e-07	6.23872e-07	5.736e-07	5.49337e-07	5.28407e-07	0.240743	0.088108	0.25636	20.1018	350.818	958.564	1020.74	-69.8982	0.0000000E+000	0.0000000E+000	0.0000000E+000	69.8982	0.0000000E+000	0.0000000E+000	0.0000000E+000	-69.8982	0.0000000E+000	0.0000000E+000	0.0000000E+000	-20.1018	0.0000000E+000	0.0000000E+000	0.0000000E+000	20.1018	2.73237	69.8982	-6.24522e-06
15912.6	3.86581	2.83135	4.79177	-36.2194	1501.23	-0.000114292	-0.0185154	3.53251	1.23333	3	38	0.00731913	0.00152744	0	-0.00842338	0.930659	0.601418	17.364	1.4586e-05	1.99139e-05	2.97172e-05	3.50771e-05	2.79368e-05	2.16967e-05	0.105311	0.0490385	1.86582	7.59141e-07	4.58906e-07	6.32351e-07	3.89931e-07	5.729e-07	5.62933e-07	0.168364	0.123311	0.208691	36.2194	1233.33	1683.94	2087.29	-53.7806	0.0000000E+000	0.0000000E+000	0.0000000E+000	53.7806	0.0000000E+000	0.0000000E+000	0.0000000E+000	-53.7806	0.0000000E+000	0.0000000E+000	0.0000000E+000	-36.2194	0.0000000E+000	0.0000000E+000	0.0000000E+000	36.2194	1.36536	53.7806	-7.8876e-06
6332.63	4.35837	6.50268	7.82817	-56.1684	1508.6	-0.000267836	-0.0188933	3.86495	2.66691	3	38	0.00714617	0.000912879	0	-0.00846416	1.02892	0.675994	17.5889	2.41639e-05	3.98267e-05	2.54343e-05	2.2656e-05	3.26526e-05	2.01338e-05	0.216599	0.0806551	3.10722	6.32988e-07	1.04952e-06	8.77629e-07	8.26616e-07	5.75716e-07	2.67844e-07	0.0711219	0.106114	0.127744	56.1684	2666.91	1787.47	3210.52	-33.8316	0.0000000E+000	0.0000000E+000	0.0000000E+000	33.8316	0.0000000E+000	0.0000000E+000	0.0000000E+000	-33.8316	0.0000000E+000	0.0000000E+000	0.0000000E+000	-56.1684	0.0000000E+000	0.0000000E+000	0.0000000E+000	56.1684	0.670241	33.8316	-1.12293e-05
2519.19	5.79958	15.1312	16.2046	-69.0289	1516.16	-0.000279169	-0.0191801	4.17527	3.64046	3	38	0.00693848	0.00042818	0	-0.00850529	0.856966	0.545324	18.3768	2.48512e-05	3.07672e-05	1.54288e-05	1.9219e-05	2.19969e-05	1.94658e-05	0.490359	0.17841	6.70313	6.227e-07	1.26006e-06	5.31585e-07	9.88396e-07	6.10165e-07	4.35326e-07	0.0220861	0.0576232	0.0617109	69.0289	3640.46	1395.34	3898.71	-20.9711	0.0000000E+000	0.0000000E+000	0.0000000E+000	20.9711	0.0000000E+000	0.0000000E+000	0.0000000E+000	-20.9711	0.0000000E+000	0.0000000E+000	0.0000000E+000	-69.0289	0.0000000E+000	0.0000000E+000	0.0000000E+000	69.0289	0.383285	20.9711	-1.12171e-05
1002.75	9.87911	34.5995	35.9822	-74.0645	1523.74	-0.000278852	-0.0186266	4.5873	4.24151	3	39	0.00723907	0.000201185	0	-0.00854544	1.09439	0.634103	17.4041	2.45222e-05	2.82536e-05	2.28423e-05	3.76343e-05	2.46741e-05	3.6061e-05	0.612687	0.194286	6.41704	3.94255e-07	8.67396e-07	3.06116e-07	4.79097e-07	2.1467e-07	3.32176e-07	0.00763029	0.0267235	0.0277915	74.0645	4241.51	1211.07	4411.02	-15.9355	0.0000000E+000	0.0000000E+000	0.0000000E+000	15.9355	0.0000000E+000	0.0000000E+000	0.0000000E+000	-15.9355	0.0000000E+000	0.0000000E+000	0.0000000E+000	-74.0645	0.0000000E+000	0.0000000E+000	0.0000000E+000	74.0645	0.285527	15.9355	-1.04894e-05
399.106	21.0373	76.1834	79.0347	-74.5631	1531.07	-0.000247946	-0.0184301	5.23445	4.86359	3	39	0.00657544	8.31969e-05	0	-0.00858291	0.935163	0.691561	18.8272	3.35191e-05	2.44554e-05	2.42652e-05	1.64653e-05	2.082e-05	2.18673e-05	1.02283	0.457551	15.3152	3.79215e-07	2.64244e-07	3.11013e-07	4.00534e-07	1.73297e-07	2.85398e-07	0.00336786	0.0121962	0.0126527	74.5631	4863.59	1343.03	5045.61	-15.4369	0.0000000E+000	0.0000000E+000	0.0000000E+000	15.4369	0.0000000E+000	0.0000000E+000	0.0000000E+000	-15.4369	0.0000000E+000	0.0000000E+000	0.0000000E+000	-74.5631	0.0000000E+000	0.0000000E+000	0.0000000E+000	74.5631	0.27614	15.4369	-9.33254e-06
158.831	46.3477	162.623	169.098	-74.0924	1538.4	-0.000258254	-0.0185643	6.16176	5.69886	3	39	0.00645585	3.81781e-05	0	-0.00862019	0.934067	0.528352	19.144	2.44355e-05	1.80778e-05	2.23268e-05	2.12581e-05	2.19242e-05	2.22674e-05	1.71991	1.15885	33.2399	3.35013e-07	1.85034e-07	2.21418e-07	2.52782e-07	2.70188e-07	2.09794e-07	0.00162088	0.00568725	0.00591372	74.0924	5698.86	1624.18	5925.79	-15.9076	0.0000000E+000	0.0000000E+000	0.0000000E+000	15.9076	0.0000000E+000	0.0000000E+000	0.0000000E+000	-15.9076	0.0000000E+000	0.0000000E+000	0.0000000E+000	-74.0924	0.0000000E+000	0.0000000E+000	0.0000000E+000	74.0924	0.285001	15.9076	-9.43129e-06
63.2394	97.2203	346.071	359.467	-74.3086	1545.88	-0.000238477	-0.0185403	7.27223	6.74029	3	40	0.00648069	1.80286e-05	0	-0.00865816	1.55726	0.992199	29.7346	2.26326e-05	2.76262e-05	3.69179e-05	3.79575e-05	4.0127e-05	5.4907e-05	0.928661	0.485405	13.9619	3.17413e-08	7.30956e-08	4.63355e-08	8.70277e-08	6.32264e-08	7.11686e-08	0.000752382	0.00267822	0.00278189	74.3086	6740.29	1893.52	7001.21	-15.6914	0.0000000E+000	0.0000000E+000	0.0000000E+000	15.6914	0.0000000E+000	0.0000000E+000	0.0000000E+000	-15.6914	0.0000000E+000	0.0000000E+000	0.0000000E+000	-74.3086	0.0000000E+000	0.0000000E+000	0.0000000E+000	74.3086	0.280926	15.6914	-9.14234e-06
25.1691	208.791	748.578	777.15	-74.4153	1552.9	-0.000219221	-0.0185129	8.44725	7.83753	3	40	0.00644995	8.29949e-06	0	-0.00869407	1.85736	1.02186	29.8148	3.67958e-05	4.82246e-05	5.59915e-05	2.68823e-05	3.97912e-05	5.61638e-05	2.00316	0.997973	29.7106	3.99719e-08	4.30337e-08	7.22646e-08	5.58597e-08	5.87276e-08	8.3639e-08	0.000345702	0.00123944	0.00128675	74.4153	7837.53	2186.02	8136.68	-15.5847	0.0000000E+000	0.0000000E+000	0.0000000E+000	15.5847	0.0000000E+000	0.0000000E+000	0.0000000E+000	-15.5847	0.0000000E+000	0.0000000E+000	0.0000000E+000	-74.4153	0.0000000E+000	0.0000000E+000	0.0000000E+000	74.4153	0.278917	15.5847	-9.02413e-06
10.016	474.906	1612.23	1680.72	-73.5868	1560.36	-0.000269346	-0.0184138	9.85594	9.06903	3	41	0.00643428	3.82829e-06	0	-0.00873193	1.80951	0.744869	38.6166	3.87188e-05	3.91064e-05	4.38383e-05	4.66517e-05	4.28171e-05	5.33439e-05	0.680333	0.220076	12.4254	1.00454e-08	1.10789e-08	9.9864e-09	1.14187e-08	7.63407e-09	1.00045e-08	0.00016812	0.000570738	0.000594984	73.5868	9069.03	2671.43	9454.3	-16.4132	0.0000000E+000	0.0000000E+000	0.0000000E+000	16.4132	0.0000000E+000	0.0000000E+000	0.0000000E+000	-16.4132	0.0000000E+000	0.0000000E+000	0.0000000E+000	-73.5868	0.0000000E+000	0.0000000E+000	0.0000000E+000	73.5868	0.294566	16.4132	-8.95423e-06
3.98597	1135.28	3408.3	3592.41	-71.5774	1570.49	-0.000231253	-0.0184368	11.7151	10.5451	3	41	0.00644432	1.79387e-06	0	-0.00878337	0.996782	0.46167	18.7797	3.14887e-05	2.97849e-05	2.68168e-05	1.83664e-05	2.27809e-05	1.22823e-05	0.774568	0.308137	13.3694	8.27238e-09	4.47167e-09	5.55765e-09	5.2074e-09	4.76788e-09	3.17406e-09	8.79696e-05	0.000264099	0.000278365	71.5774	10545.1	3512.52	11114.8	-18.4226	0.0000000E+000	0.0000000E+000	0.0000000E+000	18.4226	0.0000000E+000	0.0000000E+000	0.0000000E+000	-18.4226	0.0000000E+000	0.0000000E+000	0.0000000E+000	-71.5774	0.0000000E+000	0.0000000E+000	0.0000000E+000	71.5774	0.333093	18.4226	-1.61477e-05
1.5871	2664.53	6814.53	7316.93	-68.6442	1591.57	-0.000245611	-0.0184042	14.7157	12.7642	3	41	0.00643014	8.78803e-07	0	-0.00889106	0.696979	0.288217	11.6233	1.29708e-05	1.55213e-05	1.32805e-05	1.46582e-05	1.6848e-05	2.29895e-05	0.976942	0.666378	17.543	3.93161e-09	3.78407e-09	2.08625e-09	2.2013e-09	2.57676e-09	3.60541e-09	4.97694e-05	0.000127285	0.000136669	68.6442	12764.2	4990.89	13705.2	-21.3558	0.0000000E+000	0.0000000E+000	0.0000000E+000	21.3558	0.0000000E+000	0.0000000E+000	0.0000000E+000	-21.3558	0.0000000E+000	0.0000000E+000	0.0000000E+000	-68.6442	0.0000000E+000	0.0000000E+000	0.0000000E+000	68.6442	0.391007	21.3558	-3.55732e-05
0.631645	5582.25	13225.1	14354.9	-67.1156	1640.67	-0.000250813	-0.0186488	19.0524	16.1712	3	41	0.00643404	4.48211e-07	0	-0.00914436	0.426526	0.160963	6.92357	6.71361e-06	1.07272e-05	1.16842e-05	1.02461e-05	1.04455e-05	1.0486e-05	1.51915	4.20263	25.0868	3.5643e-09	2.07768e-09	3.09781e-09	1.8706e-09	2.27661e-09	2.11949e-09	2.70899e-05	6.41794e-05	6.96625e-05	67.1156	16171.2	6825.82	17552.8	-22.8844	0.0000000E+000	0.0000000E+000	0.0000000E+000	22.8844	0.0000000E+000	0.0000000E+000	0.0000000E+000	-22.8844	0.0000000E+000	0.0000000E+000	0.0000000E+000	-67.1156	0.0000000E+000	0.0000000E+000	0.0000000E+000	67.1156	0.422096	22.8844	-8.58175e-05
0.251222	11993.9	25966.8	28603	-65.2081	1760.53	-0.000238475	-0.0185069	24.3974	20.1076	3	41	0.00643536	2.24989e-07	0	-0.00975934	0.261301	0.162053	4.44661	5.72858e-06	6.4992e-06	4.70525e-06	8.63452e-06	7.51948e-06	4.38021e-06	3.15364	9.61319	35.8426	4.43195e-09	3.03253e-09	2.44815e-09	2.26049e-09	2.01512e-09	1.6059e-09	1.46602e-05	3.17393e-05	3.49614e-05	65.2081	20107.6	9287.57	22148.9	-24.7919	0.0000000E+000	0.0000000E+000	0.0000000E+000	24.7919	0.0000000E+000	0.0000000E+000	0.0000000E+000	-24.7919	0.0000000E+000	0.0000000E+000	0.0000000E+000	-65.2081	0.0000000E+000	0.0000000E+000	0.0000000E+000	65.2081	0.461894	24.7919	-0.000209007
0.0999518	27263.1	47643.6	54892.5	-60.2205	2058.53	-0.000259439	-0.0185724	33.4215	25.1773	3	41	0.00643245	1.17183e-07	0	-0.0112922	0.225554	0.101056	3.12727	4.14767e-06	9.83235e-06	3.87565e-06	5.74227e-06	3.49835e-06	3.48023e-06	10.0867	54.6036	37.8977	7.70756e-09	6.12434e-09	3.80792e-09	3.54355e-09	2.50438e-09	2.76328e-09	9.04793e-06	1.58117e-05	1.82174e-05	60.2205	25177.2	14407.2	29007.9	-29.7795	0.0000000E+000	0.0000000E+000	0.0000000E+000	29.7795	0.0000000E+000	0.0000000E+000	0.0000000E+000	-29.7795	0.0000000E+000	0.0000000E+000	0.0000000E+000	-60.2205	0.0000000E+000	0.0000000E+000	0.0000000E+000	60.2205	0.57223	29.7795	-0.000522014
200434	3.57392	0.947036	3.69727	-14.8414	2067.41	-0.000161714	-0.0208037	0.838459	0.0550114	4	38	0.00723763	0.00195756	0	-0.0113458	-1	-1	-1	0	0	0	0	0	0	-1	-1	-1	0	0	0	0	0	0	0.261447	0.0692794	0.27047	14.8414	55.0114	207.602	214.767	-75.1586	0.0000000E+000	0.0000000E+000	0.0000000E+000	75.1586	0.0000000E+000	0.0000000E+000	0.0000000E+000	-75.1586	0.0000000E+000	0.0000000E+000	0.0000000E+000	-14.8414	0.0000000E+000	0.0000000E+000	0.0000000E+000	14.8414	3.7738	75.1586	-7.1391e-06
79767.3	3.57627	0.921833	3.69317	-14.4541	2074.66	-0.000141116	-0.0206286	2.16443	0.13485	4	38	0.00722724	0.00195692	0	-0.0113882	0.963282	0.384626	17.986	2.92474e-05	2.76982e-05	2.11226e-05	2.25353e-05	2.61368e-05	2.17423e-05	0.0833803	0.0450905	1.45071	3.4439e-07	7.65571e-07	7.07079e-07	6.58967e-07	6.05067e-07	5.16108e-07	0.2622	0.0675856	0.27077	14.4541	134.85	523.152	540.252	-75.5459	0.0000000E+000	0.0000000E+000	0.0000000E+000	75.5459	0.0000000E+000	0.0000000E+000	0.0000000E+000	-75.5459	0.0000000E+000	0.0000000E+000	0.0000000E+000	-14.4541	0.0000000E+000	0.0000000E+000	0.0000000E+000	14.4541	3.87952	75.5459	-9.44114e-06
31751	3.71219	1.59812	4.04158	-23.2922	2081.91	-0.000161062	-0.0211556	3.13655	0.490422	4	38	0.00729877	0.00180592	0	-0.0114261	0.963431	0.663744	17.8069	2.79225e-05	1.84332e-05	3.73401e-05	2.56384e-05	2.95874e-05	2.06907e-05	0.0960005	0.0650086	1.56778	7.44881e-07	7.44038e-07	4.64291e-07	6.87596e-07	6.58545e-07	4.20459e-07	0.227263	0.097838	0.247428	23.2922	490.422	1139.18	1240.26	-66.7078	0.0000000E+000	0.0000000E+000	0.0000000E+000	66.7078	0.0000000E+000	0.0000000E+000	0.0000000E+000	-66.7078	0.0000000E+000	0.0000000E+000	0.0000000E+000	-23.2922	0.0000000E+000	0.0000000E+000	0.0000000E+000	23.2922	2.32285	66.7078	-1.03905e-05
12637.3	3.95233	3.5068	5.2838	-41.5818	2089.16	-0.000165032	-0.0209694	3.59132	1.58191	4	38	0.00728954	0.0013796	0	-0.0114685	1.04983	0.650483	17.6908	2.52828e-05	2.26461e-05	3.92688e-05	2.32423e-05	2.46684e-05	3.65644e-05	0.134251	0.0830427	2.08674	1.03044e-06	6.8923e-07	6.72505e-07	5.80959e-07	5.33926e-07	5.31624e-07	0.141566	0.125608	0.189258	41.5818	1581.91	1782.89	2383.52	-48.4182	0.0000000E+000	0.0000000E+000	0.0000000E+000	48.4182	0.0000000E+000	0.0000000E+000	0.0000000E+000	-48.4182	0.0000000E+000	0.0000000E+000	0.0000000E+000	-41.5818	0.0000000E+000	0.0000000E+000	0.0000000E+000	41.5818	1.12705	48.4182	-8.46964e-06
5028.39	4.60165	8.11137	9.32574	-60.4334	2096.56	-0.000289552	-0.0208149	3.90209	2.95202	4	38	0.00697836	0.00074829	0	-0.0115125	0.959776	0.344071	18.3402	2.07978e-05	2.87804e-05	2.05267e-05	3.35399e-05	1.94983e-05	2.31049e-05	0.240012	0.0967806	3.80579	5.78693e-07	9.84133e-07	7.6304e-07	6.89343e-07	4.33978e-07	6.71825e-07	0.0529111	0.0932669	0.10723	60.4334	2952.02	1674.7	3393.97	-29.5666	0.0000000E+000	0.0000000E+000	0.0000000E+000	29.5666	0.0000000E+000	0.0000000E+000	0.0000000E+000	-29.5666	0.0000000E+000	0.0000000E+000	0.0000000E+000	-60.4334	0.0000000E+000	0.0000000E+000	0.0000000E+000	60.4334	0.567309	29.5666	-1.0849e-05
2001.92	6.46061	18.7837	19.8637	-71.0194	2104.11	-0.000302731	-0.0204015	4.23247	3.78473	4	38	0.00678519	0.000341588	0	-0.0115555	1.0321	0.50933	18.9713	2.39867e-05	2.52155e-05	3.0129e-05	3.86265e-05	1.83596e-05	1.72714e-05	0.605157	0.337042	8.51059	1.09368e-06	1.10198e-06	5.48073e-07	7.22371e-07	7.40982e-07	3.0034e-07	0.016374	0.047606	0.0503432	71.0194	3784.73	1301.75	4002.34	-18.9806	0.0000000E+000	0.0000000E+000	0.0000000E+000	18.9806	0.0000000E+000	0.0000000E+000	0.0000000E+000	-18.9806	0.0000000E+000	0.0000000E+000	0.0000000E+000	-71.0194	0.0000000E+000	0.0000000E+000	0.0000000E+000	71.0194	0.343948	18.9806	-1.05929e-05
796.787	11.9912	42.3799	44.0437	-74.2014	2111.69	-0.000297978	-0.0186598	4.71322	4.36385	4	39	0.00692842	0.000157308	0	-0.0115965	1.14276	0.515483	17.4313	2.3097e-05	3.67954e-05	3.71138e-05	2.3581e-05	2.50203e-05	2.99707e-05	0.697002	0.225456	7.65884	4.95982e-07	5.05407e-07	4.27223e-07	5.53697e-07	2.264e-07	2.44433e-07	0.00618152	0.021847	0.0227047	74.2014	4363.85	1234.73	4535.17	-15.7986	0.0000000E+000	0.0000000E+000	0.0000000E+000	15.7986	0.0000000E+000	0.0000000E+000	0.0000000E+000	-15.7986	0.0000000E+000	0.0000000E+000	0.0000000E+000	-74.2014	0.0000000E+000	0.0000000E+000	0.0000000E+000	74.2014	0.282945	15.7986	-9.62138e-06
316.927	25.8524	92.9395	96.4682	-74.4553	2119.02	-0.000287688	-0.018202	5.40332	5.01526	4	39	0.00653032	6.76941e-05	0	-0.011634	1.11799	0.542319	19.3387	2.2097e-05	3.75506e-05	2.88016e-05	2.89103e-05	2.54483e-05	1.82009e-05	1.00182	0.591282	19.1437	2.17736e-07	3.26801e-07	2.99989e-07	2.41005e-07	2.49622e-07	2.36799e-07	0.00277801	0.00998694	0.0103661	74.4553	5015.26	1395.07	5205.68	-15.5447	0.0000000E+000	0.0000000E+000	0.0000000E+000	15.5447	0.0000000E+000	0.0000000E+000	0.0000000E+000	-15.5447	0.0000000E+000	0.0000000E+000	0.0000000E+000	-74.4553	0.0000000E+000	0.0000000E+000	0.0000000E+000	74.4553	0.278164	15.5447	-9.36033e-06
126.171	55.7541	197.571	205.287	-74.2411	2126.34	-0.000271527	-0.018292	6.38464	5.9137	4	39	0.00645316	3.14347e-05	0	-0.0116715	1.06399	0.479651	19.5653	2.91156e-05	2.35425e-05	2.81404e-05	2.12639e-05	3.23085e-05	2.21908e-05	1.98555	0.832663	40.5282	1.48039e-07	2.91328e-07	1.62734e-07	2.7632e-07	2.46261e-07	2.24593e-07	0.00132298	0.00468812	0.00487122	74.2411	5913.7	1668.83	6144.66	-15.7589	0.0000000E+000	0.0000000E+000	0.0000000E+000	15.7589	0.0000000E+000	0.0000000E+000	0.0000000E+000	-15.7589	0.0000000E+000	0.0000000E+000	0.0000000E+000	-74.2411	0.0000000E+000	0.0000000E+000	0.0000000E+000	74.2411	0.282198	15.7589	-9.33164e-06
50.2089	116.874	423.099	438.945	-74.558	2133.76	-0.000257826	-0.0184025	7.492	6.96085	4	40	0.00648381	1.47714e-05	0	-0.0117089	1.32062	0.827247	30.68	3.22669e-05	4.31474e-05	3.13075e-05	2.57236e-05	3.59655e-05	2.1797e-05	0.988849	0.47472	17.4095	6.43455e-08	7.84688e-08	5.99031e-08	4.91125e-08	4.02228e-08	3.49245e-08	0.000606597	0.00219595	0.00227819	74.558	6960.85	1922.82	7221.54	-15.442	0.0000000E+000	0.0000000E+000	0.0000000E+000	15.442	0.0000000E+000	0.0000000E+000	0.0000000E+000	-15.442	0.0000000E+000	0.0000000E+000	0.0000000E+000	-74.558	0.0000000E+000	0.0000000E+000	0.0000000E+000	74.558	0.276234	15.442	-8.9502e-06
19.9808	247.096	914.352	947.151	-74.8775	2140.79	-0.00027093	-0.0183484	8.71151	8.1186	4	40	0.00646429	6.82498e-06	0	-0.0117445	1.75304	0.781428	30.326	3.88509e-05	4.32055e-05	4.28652e-05	4.44892e-05	4.37254e-05	3.76061e-05	1.80547	0.951045	36.9011	2.33233e-08	5.61619e-08	3.30521e-08	6.10734e-08	6.04603e-08	4.21667e-08	0.00027544	0.00101924	0.0010558	74.8775	8118.6	2193.99	8409.83	-15.1225	0.0000000E+000	0.0000000E+000	0.0000000E+000	15.1225	0.0000000E+000	0.0000000E+000	0.0000000E+000	-15.1225	0.0000000E+000	0.0000000E+000	0.0000000E+000	-74.8775	0.0000000E+000	0.0000000E+000	0.0000000E+000	74.8775	0.270242	15.1225	-8.97785e-06
7.95573	584.082	1966.2	2051.12	-73.4553	2148.47	-0.000224468	-0.0184485	10.1745	9.34945	4	41	0.0064473	3.14331e-06	0	-0.0117834	1.30952	0.673085	26.2861	3.88e-05	2.84296e-05	3.06544e-05	3.42811e-05	2.99547e-05	2.32994e-05	0.817545	0.322827	10.486	1.17973e-08	8.28993e-09	6.47194e-09	1.51376e-08	8.00793e-09	6.86115e-09	0.000138833	0.000467354	0.000487539	73.4553	9349.45	2777.37	9753.26	-16.5447	0.0000000E+000	0.0000000E+000	0.0000000E+000	16.5447	0.0000000E+000	0.0000000E+000	0.0000000E+000	-16.5447	0.0000000E+000	0.0000000E+000	0.0000000E+000	-73.4553	0.0000000E+000	0.0000000E+000	0.0000000E+000	73.4553	0.297062	16.5447	-1.0084e-05
3.16616	1436.49	4087.5	4332.57	-70.6368	2160.42	-0.000233872	-0.0184443	12.2979	10.946	4	41	0.00643685	1.48569e-06	0	-0.0118444	0.889984	0.417967	16.6859	1.32214e-05	2.68346e-05	2.37211e-05	2.45261e-05	1.88769e-05	1.90444e-05	0.950321	0.4081	14.3507	5.42321e-09	8.21923e-09	4.47735e-09	5.5524e-09	3.83891e-09	4.31116e-09	7.65263e-05	0.000217754	0.00023081	70.6368	10946	3846.78	11602.2	-19.3632	0.0000000E+000	0.0000000E+000	0.0000000E+000	19.3632	0.0000000E+000	0.0000000E+000	0.0000000E+000	-19.3632	0.0000000E+000	0.0000000E+000	0.0000000E+000	-70.6368	0.0000000E+000	0.0000000E+000	0.0000000E+000	70.6368	0.351434	19.3632	-1.94955e-05
1.25968	3267.7	8111.27	8744.75	-68.0575	2186.31	-0.000251303	-0.0185247	15.5766	13.4016	4	41	0.00643513	7.35885e-07	0	-0.0119769	0.594148	0.231395	10.3851	1.17272e-05	1.2528e-05	1.54475e-05	1.29849e-05	1.56455e-05	1.41043e-05	1.11303	0.793046	19.3801	2.98089e-09	3.26137e-09	2.90002e-09	3.61422e-09	3.03288e-09	2.65201e-09	4.27314e-05	0.000106071	0.000114354	68.0575	13401.6	5398.94	14448.2	-21.9425	0.0000000E+000	0.0000000E+000	0.0000000E+000	21.9425	0.0000000E+000	0.0000000E+000	0.0000000E+000	-21.9425	0.0000000E+000	0.0000000E+000	0.0000000E+000	-68.0575	0.0000000E+000	0.0000000E+000	0.0000000E+000	68.0575	0.402859	21.9425	-4.42518e-05
0.501541	7055.27	15793.5	17297.7	-65.9288	2247.47	-0.000245992	-0.0184181	20.0925	16.75	4	41	0.00643464	3.71993e-07	0	-0.012289	0.341167	0.167529	6.31507	7.68784e-06	7.70414e-06	5.1655e-06	8.35984e-06	1.05166e-05	1.03913e-05	1.72251	2.87563	28.486	4.04885e-09	2.13022e-09	1.59791e-09	2.28595e-09	2.23494e-09	2.37204e-09	2.35795e-05	5.27837e-05	5.7811e-05	65.9288	16750	7482.53	18345.3	-24.0712	0.0000000E+000	0.0000000E+000	0.0000000E+000	24.0712	0.0000000E+000	0.0000000E+000	0.0000000E+000	-24.0712	0.0000000E+000	0.0000000E+000	0.0000000E+000	-65.9288	0.0000000E+000	0.0000000E+000	0.0000000E+000	65.9288	0.446719	24.0712	-0.000105534
0.199573	14053.8	32034.2	34981.4	-66.3123	2397.83	-0.000262863	-0.0184353	24.8945	20.8764	4	41	0.00643528	1.83963e-07	0	-0.0130582	0.298199	0.0843971	3.94015	5.25454e-06	9.06935e-06	7.37833e-06	8.85263e-06	4.72599e-06	6.70331e-06	7.15542	21.8853	36.9349	8.37053e-09	5.68762e-09	4.28956e-09	3.92112e-09	2.08602e-09	2.44649e-09	1.14847e-05	2.61781e-05	2.85866e-05	66.3123	20876.4	9158.76	22797.1	-23.6877	0.0000000E+000	0.0000000E+000	0.0000000E+000	23.6877	0.0000000E+000	0.0000000E+000	0.0000000E+000	-23.6877	0.0000000E+000	0.0000000E+000	0.0000000E+000	-66.3123	0.0000000E+000	0.0000000E+000	0.0000000E+000	66.3123	0.438713	23.6877	-0.000261212
0.0999518	27689.9	49883.1	57053.1	-60.9655	2644.65	-0.000276133	-0.0188297	31.921	24.402	4	41	0.00643344	1.12762e-07	0	-0.0143381	0.218303	0.14082	3.14351	6.56636e-06	4.47644e-06	3.87016e-06	6.33914e-06	5.38378e-06	4.13639e-06	4.5426	34.464	37.8012	3.11384e-09	2.76838e-09	1.28219e-09	1.29118e-09	1.30936e-09	1.00728e-09	8.50674e-06	1.53248e-05	1.75275e-05	60.9655	24402	13545.4	27909.4	-29.0345	0.0000000E+000	0.0000000E+000	0.0000000E+000	29.0345	0.0000000E+000	0.0000000E+000	0.0000000E+000	-29.0345	0.0000000E+000	0.0000000E+000	0.0000000E+000	-60.9655	0.0000000E+000	0.0000000E+000	0.0000000E+000	60.9655	0.555096	29.0345	-0.000530115