File: Python/Data/RDE/240219-CV-EIS-Fe2Fe3_5mM-HCl1M-1225RPM-Ag_AgCl_BLF8-GC-RDE_01_CV_C15.mpt
EC-Lab ASCII FILE
Nb header lines : 60

Cyclic Voltammetry

Run on channel : 15 (SN 19485)
User :
Electrode connection : standard
Potential control : Ewe
Ewe ctrl range : min = -1.00 V, max = 1.00 V
Ewe,I filtering : <None>
Safety Limits :
	Do not start on E overload
Channel : Floating
Acquisition started on : 02/19/2024 16:52:12.543
Loaded Setting File :  C:\Data\mathias\RDE-RPM-variation\240219-CV-EIS-Fe2Fe3_5mM-HCl1M-RPMtest-Ag_AgCl_BLF8-GC-RDE.mps
Saved on :
	File : 240219-CV-EIS-Fe2Fe3_5mM-HCl1M-1225RPM-Ag_AgCl_BLF8-GC-RDE_01_CV_C15.mpr
	Directory : C:\Data\mathias\RDE-RPM-variation\
	Host : 192.168.0.1
Device : VMP-300 (SN 0826)
Address : USB
EC-Lab for windows v11.52 (software)
Internet server v11.52 (firmware)
Command interpretor v11.52 (firmware)
Electrode material :
Initial state :
Electrolyte :
Comments :
Cable : special
Electrode surface area : 0.001 cm²
Characteristic mass : 0.001 g
Equivalent Weight : 0.000 g/eq.
Density : 0.000 g/cm3
Volume (V) : 0.001 cm³
Record EIS quality indicators
Cycle Definition : Charge/Discharge alternance
Ei (V)              0.000
vs.                 Eoc
dE/dt               20.000
dE/dt unit          mV/s
E1 (V)              1.000
vs.                 Ref
Step percent        50
N                   10
E range min (V)     -1.000
E range max (V)     1.000
I Range             Auto
I Range min         Unset
I Range max         Unset
I Range init        Unset
Bandwidth           8
E2 (V)              0.000
vs.                 Ref
nc cycles           2
Reverse Scan        1
Ef (V)              0.000
vs.                 Eoc

mode	ox/red	error	control changes	counter inc.	time/s	control/V	Ewe/V	<I>/mA	cycle number	(Q-Qo)/C	I Range	step time/s	P/W
2	1	0	0	0	0.000000000000000E+000	0.46309	0.462802	0.000378472	1	0.0000000E+000	43	0.000000000000000E+000	1.75158e-07
2	1	0	1	0	0.5186	0.47346	0.473346	0.00245135	1	7.46873e-07	42	0.5048	1.16033e-06
2	1	0	1	0	1.0183	0.483455	0.483418	0.00439137	1	2.45614e-06	42	1.0045	2.12287e-06
2	1	0	1	0	1.5181	0.49345	0.493114	0.00640424	1	5.15052e-06	42	1.5043	3.15802e-06
2	1	0	1	0	2.0179	0.503445	0.503462	0.00856777	1	8.88728e-06	42	2.0041	4.31355e-06
2	1	0	1	0	2.5326	0.51374	0.513176	0.0109264	1	1.39205e-05	42	2.5188	5.60717e-06
2	1	0	1	0	3.0474	0.524035	0.523705	0.013643	1	2.02821e-05	41	3.0336	7.1449e-06
2	1	0	1	0	3.5471	0.534031	0.533858	0.016602	1	2.78796e-05	41	3.5333	8.8631e-06
2	1	0	1	0	4.0469	0.544026	0.543712	0.0199956	1	3.70585e-05	41	4.0331	1.08719e-05
2	1	0	1	0	4.5467	0.554021	0.55366	0.0237713	1	4.80239e-05	41	4.5329	1.31612e-05
2	1	0	1	0	5.0464	0.564016	0.563557	0.0280936	1	6.1012e-05	41	5.0326	1.58323e-05
2	1	0	1	0	5.5462	0.574012	0.574015	0.0329553	1	7.63028e-05	41	5.5324	1.89168e-05
2	1	0	1	0	6.046	0.584009	0.583794	0.0384957	1	9.41909e-05	41	6.0322	2.24736e-05
2	1	0	1	0	6.5457	0.594002	0.593708	0.044723	1	0.000115013	41	6.5319	2.65524e-05
2	1	0	1	0	7.0455	0.603997	0.603516	0.0516814	1	0.000139133	41	7.0317	3.11906e-05
2	1	0	1	0	7.5452	0.613993	0.613837	0.0594136	1	0.000166902	41	7.5314	3.64703e-05
2	1	0	1	0	8.045	0.623988	0.623906	0.0679001	1	0.000198747	41	8.0312	4.23633e-05
2	1	0	1	0	8.5448	0.633983	0.633618	0.0771437	1	0.000235028	41	8.531	4.88796e-05
2	1	0	1	0	9.0445	0.643978	0.643698	0.0870488	1	0.000276059	41	9.0307	5.60332e-05
2	1	0	1	0	9.5443	0.653974	0.653704	0.0973568	1	0.00032219	41	9.5305	6.36425e-05
2	1	0	1	0	10.044	0.663969	0.663474	0.108492	1	0.000373666	41	10.0302	7.19817e-05
2	1	0	1	0	10.5738	0.674564	0.674165	0.120866	1	0.00043444	40	10.56	8.14836e-05
2	1	0	1	0	11.0736	0.684559	0.684193	0.132867	1	0.00049786	40	11.0598	9.0907e-05
2	1	0	1	0	11.5733	0.694554	0.694119	0.145178	1	0.00056731	40	11.5595	0.000100771
2	1	0	1	0	12.0731	0.70455	0.704172	0.1578	1	0.000642972	40	12.0593	0.000111118
2	1	0	1	0	12.5728	0.714545	0.714157	0.170629	1	0.000725023	40	12.559	0.000121856
2	1	0	1	0	13.0726	0.72454	0.724221	0.182879	1	0.000813299	40	13.0588	0.000132445
2	1	0	1	0	13.5724	0.734535	0.734409	0.196058	1	0.000908273	40	13.5586	0.000143987
2	1	0	1	0	14.0721	0.744531	0.744347	0.210511	1	0.00101013	40	14.0583	0.000156694
2	1	0	1	0	14.5719	0.754526	0.754204	0.223839	1	0.00111872	40	14.5581	0.000168821
2	1	0	1	0	15.0716	0.764519	0.76423	0.23683	1	0.0012337	40	15.0578	0.000180992
2	1	0	1	0	15.5714	0.774516	0.774265	0.250611	1	0.00135581	40	15.5576	0.000194039
2	1	0	1	0	16.0712	0.784512	0.784035	0.263563	1	0.00148409	40	16.0574	0.000206643
2	1	0	1	0	16.5709	0.794507	0.79407	0.276818	1	0.00161891	40	16.5571	0.000219813
2	1	0	1	0	17.0707	0.804502	0.804223	0.288839	1	0.00176065	40	17.0569	0.000232291
2	1	0	1	0	17.5705	0.814497	0.81413	0.298749	1	0.00190764	40	17.5567	0.000243221
2	1	0	1	0	18.0702	0.824493	0.824279	0.311484	1	0.00206036	40	18.0564	0.00025675
2	1	0	1	0	18.57	0.834488	0.834191	0.323294	1	0.00221932	40	18.5562	0.000269689
2	1	0	1	0	19.0698	0.844483	0.844239	0.333037	1	0.00238336	40	19.056	0.000281162
2	1	0	1	0	19.5695	0.854478	0.854243	0.341652	1	0.00255232	40	19.5557	0.000291854
2	1	0	1	0	20.0693	0.864474	0.863967	0.350322	1	0.00272531	40	20.0555	0.000302667
2	1	0	1	0	20.569	0.874469	0.874202	0.356039	1	0.00290286	40	20.5552	0.00031125
2	1	0	1	0	21.0688	0.884464	0.884135	0.367052	1	0.00308435	40	21.055	0.000324523
2	1	0	1	0	21.5686	0.894459	0.894265	0.375719	1	0.00326989	40	21.5548	0.000335992
2	1	0	1	0	22.0683	0.904455	0.903936	0.381493	1	0.00345893	40	22.0545	0.000344845
2	1	0	1	0	22.5681	0.91445	0.914135	0.387847	1	0.00365075	40	22.5543	0.000354544
2	1	0	1	0	23.0678	0.924443	0.92433	0.393047	1	0.00384577	40	23.054	0.000363305
2	1	0	1	0	23.5676	0.93444	0.934241	0.398722	1	0.00404356	40	23.5538	0.000372502
2	1	0	1	0	24.0674	0.944435	0.944043	0.402236	1	0.00424406	40	24.0536	0.000379728
2	1	0	1	0	24.5671	0.954431	0.954124	0.408833	1	0.00444683	40	24.5533	0.000390077
2	1	0	1	0	25.0669	0.964426	0.964154	0.411107	1	0.00465141	40	25.0531	0.00039637
2	1	0	1	0	25.5667	0.974421	0.974271	0.417526	1	0.00485839	40	25.5529	0.000406784
2	1	0	1	0	26.0664	0.984416	0.983971	0.419416	1	0.00506735	40	26.0526	0.000412693
2	1	0	1	0	26.5662	0.994412	0.994038	0.425837	1	0.00527867	40	26.5524	0.000423298
2	1	0	1	0	27.0342	0.99621	0.995948	0.423467	1	0.00547758	40	27.0204	0.000421751
2	1	0	1	0	27.5339	0.986216	0.986215	0.4159	1	0.00568679	40	27.5201	0.000410166
2	1	0	1	0	28.0337	0.97622	0.975773	0.414753	1	0.00589453	40	28.0199	0.000404705
2	1	0	1	0	28.5334	0.966225	0.96585	0.409635	1	0.0060997	40	28.5196	0.000395646
2	1	0	1	0	29.0332	0.95623	0.955905	0.399754	1	0.00630174	40	29.0194	0.000382127
2	1	0	1	0	29.533	0.946235	0.945922	0.400685	1	0.00650162	40	29.5192	0.000379016
2	1	0	1	0	30.0327	0.936239	0.935891	0.395101	1	0.00670052	40	30.0189	0.000369771
2	1	0	1	0	30.5325	0.926244	0.926228	0.388059	1	0.00689647	40	30.5187	0.000359432
2	1	0	1	0	31.0322	0.91625	0.915975	0.381102	1	0.00708874	40	31.0184	0.00034908
2	1	0	1	0	31.532	0.906254	0.905967	0.376705	1	0.00727885	40	31.5182	0.000341282
2	1	0	1	0	32.0318	0.896258	0.89593	0.36891	1	0.00746464	40	32.018	0.000330517
2	1	0	1	0	32.5315	0.886263	0.886077	0.362197	1	0.0076475	40	32.5177	0.000320935
2	1	0	1	0	33.0313	0.876268	0.876011	0.351191	1	0.00782552	40	33.0175	0.000307647
2	1	0	1	0	33.5311	0.866273	0.865733	0.343942	1	0.00799943	40	33.5173	0.000297761
2	1	0	1	0	34.0308	0.856277	0.856044	0.334047	1	0.00816861	40	34.017	0.000285959
2	1	0	1	0	34.5306	0.846282	0.846018	0.32445	1	0.00833319	40	34.5168	0.000274491
2	1	0	1	0	35.0304	0.836286	0.836014	0.311336	1	0.00849166	40	35.0166	0.000260282
2	1	0	1	0	35.5301	0.826292	0.826159	0.301986	1	0.00864539	40	35.5163	0.000249489
2	1	0	1	0	36.0299	0.816296	0.816029	0.289948	1	0.00879332	40	36.0161	0.000236606
2	1	0	1	0	36.5296	0.806301	0.805975	0.277624	1	0.00893551	40	36.5158	0.000223758
2	1	0	1	0	37.0294	0.796306	0.796093	0.265469	1	0.00907117	40	37.0156	0.000211338
2	1	0	1	0	37.5292	0.786311	0.785841	0.251883	1	0.00920036	40	37.5154	0.00019794
2	1	0	1	0	38.0289	0.776316	0.775955	0.240045	1	0.00932315	40	38.0151	0.000186264
2	1	0	1	0	38.5287	0.76632	0.765882	0.225223	1	0.00943928	40	38.5149	0.000172494
2	1	0	1	0	39.0284	0.756326	0.755866	0.211263	1	0.00954831	40	39.0146	0.000159686
2	1	0	1	0	39.5282	0.74633	0.745987	0.198812	1	0.00965065	40	39.5144	0.000148311
2	1	0	1	0	40.028	0.736334	0.735838	0.185835	1	0.00974663	40	40.0142	0.000136744
2	1	0	1	0	40.5277	0.726339	0.7261	0.172255	1	0.00983604	40	40.5139	0.000125074
2	1	0	1	0	41.0275	0.716344	0.715994	0.160214	1	0.00991898	40	41.0137	0.000114712
2	1	0	1	0	41.5273	0.706349	0.70603	0.14731	1	0.00999565	40	41.5135	0.000104005
2	1	0	1	0	42.027	0.696353	0.69602	0.135547	1	0.0100661	40	42.0132	9.43431e-05
2	1	0	1	0	42.5268	0.686358	0.686128	0.123554	1	0.0101308	40	42.513	8.47737e-05
2	1	0	1	0	43.0266	0.676362	0.676102	0.112248	1	0.0101897	40	43.0128	7.58909e-05
2	1	0	1	0	43.5263	0.666368	0.666293	0.10164	1	0.010243	40	43.5125	6.77223e-05
2	1	0	1	0	44.0261	0.656373	0.656188	0.0913073	1	0.0102912	40	44.0123	5.99148e-05
2	1	0	1	0	44.5258	0.646377	0.646256	0.0814977	1	0.0103343	40	44.512	5.26683e-05
2	1	0	1	0	45.0256	0.636382	0.636058	0.0722456	1	0.0103726	40	45.0118	4.59524e-05
2	1	0	1	0	45.5254	0.626387	0.626025	0.063438	1	0.0104065	40	45.5116	3.97138e-05
2	1	0	1	0	46.0251	0.616392	0.616262	0.0556763	1	0.0104362	40	46.0113	3.43112e-05
2	1	0	1	0	46.5249	0.606396	0.605877	0.0486131	1	0.0104621	40	46.5111	2.94536e-05
2	1	0	1	0	47.0546	0.595801	0.595656	0.0415577	1	0.0104859	41	47.0408	2.47541e-05
2	1	0	1	0	47.5544	0.585806	0.585466	0.0357823	1	0.0105051	41	47.5406	2.09493e-05
2	1	0	1	0	48.0542	0.575811	0.575406	0.0306297	1	0.0105216	41	48.0404	1.76245e-05
2	1	0	1	0	48.5539	0.565816	0.565657	0.0260816	1	0.0105357	41	48.5401	1.47532e-05
2	1	0	1	0	49.0537	0.55582	0.555435	0.0220362	1	0.0105476	41	49.0399	1.22397e-05
2	1	0	1	0	49.5534	0.545826	0.545512	0.0184695	1	0.0105576	41	49.5396	1.00754e-05
2	1	0	1	0	50.0532	0.53583	0.535327	0.0153186	1	0.010566	41	50.0394	8.20045e-06
2	1	0	1	0	50.553	0.525835	0.525589	0.0124861	1	0.0105729	41	50.5392	6.56258e-06
2	1	0	1	0	51.0527	0.515839	0.515249	0.00993385	1	0.0105784	41	51.0389	5.11841e-06
2	1	0	1	0	51.5525	0.505844	0.505605	0.0076235	1	0.0105827	41	51.5387	3.85448e-06
2	1	0	1	0	52.0523	0.495849	0.495475	0.00549672	1	0.0105859	41	52.0385	2.72349e-06
2	1	0	1	0	52.582	0.485254	0.485033	0.00328948	1	0.0105882	42	52.5682	1.5955e-06
2	1	0	1	0	53.0818	0.475259	0.474892	0.00139687	1	0.0105894	42	53.068	6.63362e-07
2	0	0	1	0	53.6115	0.464664	0.464422	-0.000561094	1	0.0105896	43	0.1249	-2.60585e-07
2	0	0	1	0	54.1413	0.454069	0.453678	-0.0025209	1	0.0105888	42	0.6547	-1.14368e-06
2	0	0	1	0	54.641	0.444073	0.443893	-0.00442851	1	0.0105871	42	1.1544	-1.96578e-06
2	0	0	1	0	55.1408	0.434078	0.433836	-0.00643831	1	0.0105843	42	1.6542	-2.79317e-06
2	0	0	1	0	55.6406	0.424083	0.423585	-0.0086186	1	0.0105806	42	2.154	-3.65071e-06
2	0	0	1	0	56.1553	0.413788	0.413768	-0.0110616	1	0.0105755	42	2.6687	-4.57693e-06
2	0	0	1	0	56.6701	0.403493	0.403338	-0.0137747	1	0.0105691	41	3.1835	-5.55587e-06
2	0	0	1	0	57.1698	0.393497	0.393192	-0.0167774	1	0.0105615	41	3.6832	-6.59672e-06
2	0	0	1	0	57.6696	0.383502	0.38322	-0.0202198	1	0.0105522	41	4.183	-7.74862e-06
2	0	0	1	0	58.1694	0.373506	0.373432	-0.0241527	1	0.0105411	41	4.6828	-9.01939e-06
2	0	0	1	0	58.6691	0.363512	0.363058	-0.0286123	1	0.0105279	41	5.1825	-1.03879e-05
2	0	0	1	0	59.1689	0.353517	0.353253	-0.0337746	1	0.0105123	41	5.6823	-1.1931e-05
2	0	0	1	0	59.6686	0.343521	0.343397	-0.0395495	1	0.010494	41	6.182	-1.35812e-05
2	0	0	1	0	60.1684	0.333526	0.333467	-0.0461554	1	0.0104726	41	6.6818	-1.53913e-05
2	0	0	1	0	60.6682	0.323531	0.32301	-0.0535736	1	0.0104477	41	7.1816	-1.73048e-05
2	0	0	1	0	61.1679	0.313536	0.313465	-0.0619113	1	0.0104188	41	7.6813	-1.94071e-05
2	0	0	1	0	61.6677	0.30354	0.303278	-0.0712268	1	0.0103856	41	8.1811	-2.16016e-05
2	0	0	1	0	62.1674	0.293546	0.293023	-0.081532	1	0.0103474	41	8.6808	-2.38908e-05
2	0	0	1	0	62.6672	0.28355	0.283363	-0.0927619	1	0.0103039	41	9.1806	-2.62853e-05
2	0	0	1	0	63.167	0.273555	0.27323	-0.104914	1	0.0102545	41	9.6804	-2.86655e-05
2	0	0	1	0	63.6967	0.26296	0.262651	-0.118687	1	0.0101953	40	10.2101	-3.11732e-05
2	0	0	1	0	64.1965	0.252964	0.252642	-0.132376	1	0.0101325	40	10.7099	-3.34438e-05
2	0	0	1	0	64.6962	0.24297	0.242806	-0.14657	1	0.0100628	40	11.2096	-3.55881e-05
2	0	0	1	0	65.196	0.232974	0.232695	-0.161861	1	0.00998567	40	11.7094	-3.76643e-05
2	0	0	1	0	65.6958	0.222979	0.22285	-0.176986	1	0.00990091	40	12.2092	-3.94413e-05
2	0	0	1	0	66.1955	0.212983	0.212737	-0.192564	1	0.00980846	40	12.7089	-4.09654e-05
2	0	0	1	0	66.6953	0.202988	0.202484	-0.208117	1	0.00970825	40	13.2087	-4.21403e-05
2	0	0	1	0	67.1951	0.192993	0.192839	-0.22347	1	0.0096003	40	13.7085	-4.30937e-05
2	0	0	1	0	67.6948	0.182998	0.182723	-0.237569	1	0.00948517	40	14.2082	-4.34092e-05
2	0	0	1	0	68.1946	0.173002	0.172679	-0.251195	1	0.00936309	40	14.708	-4.33759e-05
2	0	0	1	0	68.6944	0.163005	0.162685	-0.265826	1	0.00923396	40	15.2078	-4.3246e-05
2	0	0	1	0	69.1941	0.153012	0.152767	-0.278284	1	0.00909785	40	15.7075	-4.25127e-05
2	0	0	1	0	69.6939	0.143017	0.142804	-0.289656	1	0.00895592	40	16.2073	-4.13641e-05
2	0	0	1	0	70.1936	0.133021	0.132777	-0.302034	1	0.00880837	40	16.707	-4.0103e-05
2	0	0	1	0	70.6934	0.123026	0.122648	-0.313752	1	0.00865472	40	17.2068	-3.8481e-05
2	0	0	1	0	71.1932	0.113031	0.11282	-0.321715	1	0.00849527	40	17.7066	-3.62958e-05
2	0	0	1	0	71.6929	0.103036	0.10285	-0.330878	1	0.00833272	40	18.2063	-3.4031e-05
2	0	0	1	0	72.1927	0.0930404	0.0929739	-0.338792	1	0.00816503	40	18.7061	-3.14988e-05
2	0	0	1	0	72.6924	0.0830452	0.0828694	-0.347434	1	0.00799348	40	19.2058	-2.87916e-05
2	0	0	1	0	73.1922	0.0730499	0.0727738	-0.356359	1	0.00781771	40	19.7056	-2.59336e-05
2	0	0	1	0	73.692	0.0630547	0.0629716	-0.361187	1	0.0076387	40	20.2054	-2.27445e-05
2	0	0	1	0	74.1917	0.0530594	0.0527648	-0.366968	1	0.00745733	40	20.7051	-1.9363e-05
2	0	0	1	0	74.6915	0.0430642	0.0428747	-0.371398	1	0.00727256	40	21.2049	-1.59236e-05
2	0	0	1	0	75.1913	0.0330689	0.0328405	-0.375651	1	0.00708582	40	21.7047	-1.23366e-05
2	0	0	1	0	75.691	0.0230737	0.0227924	-0.379746	1	0.00689717	40	22.2044	-8.65532e-06
2	0	0	1	0	76.1908	0.0130785	0.012713	-0.381405	1	0.00670687	40	22.7042	-4.84882e-06
2	0	0	1	0	76.6905	0.0030832	0.00292475	-0.38906	1	0.00651379	40	23.2039	-1.1379e-06
2	0	0	1	1	77.1585	0.00628168	0.00585454	-0.384788	1	0.00633245	40	23.6719	-2.25276e-06
2	0	0	1	1	77.6582	0.0162769	0.016057	-0.379834	1	0.00614127	40	24.1716	-6.09901e-06
2	0	0	1	1	78.158	0.0262722	0.0260707	-0.374532	1	0.00595235	40	24.6714	-9.76432e-06
2	0	0	1	1	78.6578	0.0362674	0.035965	-0.369993	1	0.00576541	40	25.1712	-1.33068e-05
2	0	0	1	1	79.1575	0.0462627	0.0460362	-0.36511	1	0.00558091	40	25.6709	-1.68083e-05
2	0	0	1	1	79.6573	0.0562579	0.0559595	-0.360194	1	0.00540031	40	26.1707	-2.01563e-05
2	0	0	1	1	80.157	0.0662518	0.0661603	-0.35527	1	0.0052217	40	26.6704	-2.35048e-05
2	0	0	1	1	80.6568	0.0762484	0.0762523	-0.34774	1	0.00504581	40	27.1702	-2.6516e-05
2	0	0	1	1	81.1566	0.0862437	0.0858928	-0.336458	1	0.0048746	40	27.67	-2.88993e-05
2	0	0	1	1	81.6563	0.0962389	0.096053	-0.331997	1	0.00470702	40	28.1697	-3.18893e-05
2	0	0	1	1	82.1561	0.106234	0.105949	-0.3238	1	0.00454337	40	28.6695	-3.43062e-05
2	0	0	1	1	82.6559	0.116229	0.115816	-0.313824	1	0.00438392	40	29.1693	-3.63459e-05
2	0	0	1	1	83.1556	0.126225	0.125742	-0.304184	1	0.00422917	40	29.669	-3.82488e-05
2	0	0	1	1	83.6554	0.13622	0.135853	-0.293462	1	0.00407991	40	30.1688	-3.98676e-05
2	0	0	1	1	84.1552	0.146216	0.145711	-0.279897	1	0.00393644	40	30.6686	-4.07841e-05
2	0	0	1	1	84.6549	0.15621	0.155913	-0.269548	1	0.00379879	40	31.1683	-4.2026e-05
2	0	0	1	1	85.1547	0.166206	0.165795	-0.256629	1	0.00366724	40	31.6681	-4.25478e-05
2	0	0	1	1	85.6544	0.176201	0.176014	-0.242982	1	0.00354228	40	32.1678	-4.27682e-05
2	0	0	1	1	86.1542	0.186196	0.185875	-0.229036	1	0.0034245	40	32.6676	-4.25722e-05
2	0	0	1	1	86.654	0.196191	0.195917	-0.214426	1	0.00331392	40	33.1674	-4.20096e-05
2	0	0	1	1	87.1537	0.206187	0.20595	-0.199403	1	0.0032107	40	33.6671	-4.10671e-05
2	0	0	1	1	87.6535	0.216182	0.216414	-0.185021	1	0.00311482	40	34.1669	-4.0041e-05
2	0	0	1	1	88.1532	0.226176	0.225915	-0.169751	1	0.00302644	40	34.6666	-3.83493e-05
2	0	0	1	1	88.653	0.236172	0.236027	-0.154811	1	0.00294533	40	35.1664	-3.65396e-05
2	0	0	1	1	89.1528	0.246168	0.246005	-0.14037	1	0.00287159	40	35.6662	-3.45318e-05
2	0	0	1	1	89.6525	0.256163	0.255829	-0.126587	1	0.00280498	40	36.1659	-3.23845e-05
2	0	0	1	1	90.1523	0.266158	0.265626	-0.113012	1	0.00274516	40	36.6657	-3.00188e-05
2	0	0	1	1	90.6521	0.276153	0.275729	-0.100475	1	0.00269197	40	37.1655	-2.77038e-05
2	0	0	1	1	91.1518	0.286149	0.285912	-0.0888649	1	0.00264478	40	37.6652	-2.54076e-05
2	0	0	1	1	91.6516	0.296144	0.295864	-0.0779287	1	0.00260318	40	38.165	-2.30563e-05
2	0	0	1	1	92.1514	0.30614	0.305749	-0.0679882	1	0.00256679	40	38.6648	-2.07873e-05
2	0	0	1	1	92.6511	0.316134	0.315723	-0.0591109	1	0.00253511	40	39.1645	-1.86627e-05
2	0	0	1	1	93.1509	0.32613	0.326058	-0.0511537	1	0.00250767	40	39.6643	-1.66791e-05
2	0	0	1	1	93.6656	0.336425	0.336349	-0.0436701	1	0.00248339	40	40.179	-1.46884e-05
2	0	0	1	1	94.1804	0.34672	0.346577	-0.0369814	1	0.0024627	41	40.6938	-1.28169e-05
2	0	0	1	1	94.6802	0.356716	0.356562	-0.0312855	1	0.00244569	41	41.1936	-1.11552e-05
2	0	0	1	1	95.1799	0.36671	0.366562	-0.0262853	1	0.00243136	41	41.6933	-9.63518e-06
2	0	0	1	1	95.6797	0.376706	0.376468	-0.0218642	1	0.00241938	41	42.1931	-8.23115e-06
2	0	0	1	1	96.1794	0.386701	0.386252	-0.017974	1	0.00240947	41	42.6928	-6.94249e-06
2	0	0	1	1	96.6792	0.396696	0.396554	-0.0145828	1	0.00240138	41	43.1926	-5.78289e-06
2	0	0	1	1	97.179	0.406691	0.406807	-0.0115711	1	0.00239489	41	43.6924	-4.7072e-06
2	0	0	1	1	97.6787	0.416686	0.416508	-0.00887959	1	0.00238983	41	44.1921	-3.69842e-06
2	0	0	1	1	98.1785	0.426682	0.426451	-0.00644274	1	0.00238605	41	44.6919	-2.74751e-06
2	0	0	1	1	98.6932	0.436977	0.436971	-0.00398107	1	0.00238337	41	45.2066	-1.73961e-06
2	0	0	1	1	99.208	0.447272	0.446768	-0.00194193	1	0.00238182	42	45.7214	-8.67593e-07
2	1	0	1	1	99.7377	0.457867	0.457615	0.00016184	1	0.00238135	43	0.0249	7.40606e-08
2	1	0	1	1	100.237	0.467862	0.46759	0.00212419	2	0.00238192	42	0.5247	9.9325e-07
2	1	0	1	1	100.737	0.477857	0.47761	0.00410743	2	0.00238348	42	1.0245	1.96175e-06
2	1	0	1	1	101.237	0.487853	0.487831	0.00616717	2	0.00238604	42	1.5242	3.00853e-06
2	1	0	1	1	101.737	0.497848	0.49755	0.00835091	2	0.00238967	42	2.024	4.155e-06
2	1	0	1	1	102.237	0.507843	0.507613	0.0107016	2	0.00239442	42	2.5238	5.43228e-06
2	1	0	1	1	102.766	0.518438	0.518205	0.0133716	2	0.00240081	41	3.0535	6.92923e-06
2	1	0	1	1	103.266	0.528433	0.528136	0.0162329	2	0.00240824	41	3.5533	8.57317e-06
2	1	0	1	1	103.766	0.538429	0.5382	0.0194578	2	0.0024172	41	4.053	1.04722e-05
2	1	0	1	1	104.266	0.548424	0.547999	0.0230776	2	0.00242787	41	4.5528	1.26465e-05
2	1	0	1	1	104.765	0.558419	0.558069	0.0272586	2	0.00244047	41	5.0526	1.52122e-05
2	1	0	1	1	105.265	0.568414	0.568227	0.0318464	2	0.00245527	41	5.5523	1.8096e-05
2	1	0	1	1	105.765	0.57841	0.577877	0.0371147	2	0.00247254	41	6.0521	2.14477e-05
2	1	0	1	1	106.265	0.588405	0.588012	0.0430443	2	0.00249258	41	6.5518	2.53106e-05
2	1	0	1	1	106.764	0.5984	0.598093	0.0496559	2	0.00251577	41	7.0516	2.96988e-05
2	1	0	1	1	107.264	0.608395	0.608294	0.0570595	2	0.00254246	41	7.5514	3.47089e-05
2	1	0	1	1	107.764	0.618391	0.618093	0.0651913	2	0.00257302	41	8.0511	4.02943e-05
2	1	0	1	1	108.264	0.628386	0.628092	0.0740707	2	0.00260783	41	8.5509	4.65232e-05
2	1	0	1	1	108.763	0.63838	0.638087	0.0837921	2	0.0026473	41	9.0506	5.34667e-05
2	1	0	1	1	109.263	0.648376	0.648139	0.0940781	2	0.00269178	41	9.5504	6.09757e-05
2	1	0	1	1	109.763	0.658372	0.657889	0.104801	2	0.00274148	41	10.0502	6.89474e-05
2	1	0	1	1	110.293	0.668967	0.668516	0.116875	2	0.00280023	40	10.5799	7.81326e-05
2	1	0	1	1	110.792	0.678962	0.678511	0.128729	2	0.0028616	40	11.0797	8.73439e-05
2	1	0	1	1	111.292	0.688956	0.688482	0.140649	2	0.00292891	40	11.5794	9.68346e-05
2	1	0	1	1	111.792	0.698952	0.698637	0.153278	2	0.00300236	40	12.0792	0.000107086
2	1	0	1	1	112.292	0.708947	0.708557	0.165896	2	0.00308209	40	12.579	0.000117547
2	1	0	1	1	112.791	0.718943	0.718434	0.178254	2	0.00316824	40	13.0787	0.000128064
2	1	0	1	1	113.291	0.728938	0.728536	0.191747	2	0.00326069	40	13.5785	0.000139695
2	1	0	1	1	113.791	0.738933	0.738454	0.205126	2	0.00335999	40	14.0783	0.000151476
2	1	0	1	1	114.291	0.748928	0.748707	0.218589	2	0.00346575	40	14.578	0.000163659
2	1	0	1	1	114.791	0.758924	0.758454	0.23125	2	0.00357844	40	15.0778	0.000175393
2	1	0	1	1	115.29	0.76892	0.76878	0.244161	2	0.00369758	40	15.5776	0.000187706
2	1	0	1	1	115.79	0.778914	0.778615	0.258728	2	0.00382344	40	16.0773	0.00020145
2	1	0	1	1	116.29	0.788909	0.788569	0.271527	2	0.00395613	40	16.5771	0.000214118
2	1	0	1	1	116.79	0.798905	0.79854	0.285168	2	0.00409479	40	17.0768	0.000227718
2	1	0	1	1	117.289	0.8089	0.808597	0.294219	2	0.00423982	40	17.5766	0.000237905
2	1	0	1	1	117.789	0.818895	0.818455	0.305973	2	0.00438981	40	18.0764	0.000250425
2	1	0	1	1	118.289	0.82889	0.828827	0.318643	2	0.00454568	40	18.5761	0.0002641
2	1	0	1	1	118.789	0.838886	0.838484	0.328924	2	0.00470758	40	19.0759	0.000275797
2	1	0	1	1	119.288	0.84888	0.848556	0.338118	2	0.00487431	40	19.5756	0.000286912
2	1	0	1	1	119.788	0.858876	0.858693	0.34701	2	0.00504568	40	20.0754	0.000297975
2	1	0	1	1	120.288	0.868871	0.868566	0.355681	2	0.0052214	40	20.5752	0.000308932
2	1	0	1	1	120.788	0.878867	0.878594	0.36248	2	0.00540072	40	21.0749	0.000318473
2	1	0	1	1	121.287	0.888862	0.888573	0.373029	2	0.00558482	40	21.5747	0.000331464
2	1	0	1	1	121.787	0.898857	0.898575	0.378139	2	0.00577169	40	22.0745	0.000339786
2	1	0	1	1	122.287	0.908852	0.908538	0.387057	2	0.00596273	40	22.5742	0.000351655
2	1	0	1	1	122.787	0.918848	0.91833	0.391013	2	0.00615646	40	23.074	0.000359079
2	1	0	1	1	123.287	0.928844	0.928442	0.396686	2	0.00635322	40	23.5738	0.0003683
2	1	0	1	1	123.786	0.938838	0.938433	0.402565	2	0.00655284	40	24.0735	0.00037778
2	1	0	1	1	124.286	0.948833	0.94848	0.408516	2	0.00675455	40	24.5733	0.000387469
2	1	0	1	1	124.786	0.958829	0.95852	0.406913	2	0.00695779	40	25.073	0.000390034
2	1	0	1	1	125.286	0.968824	0.968503	0.416199	2	0.00716364	40	25.5728	0.00040309
2	1	0	1	1	125.785	0.978819	0.978235	0.41704	2	0.00737184	40	26.0726	0.000407963
2	1	0	1	1	126.285	0.988814	0.988558	0.422068	2	0.00758073	40	26.5723	0.000417239
2	1	0	1	1	126.785	0.99881	0.998435	0.427266	2	0.00779238	40	27.0721	0.000426597
2	1	0	1	1	127.258	0.991713	0.991013	0.420007	2	0.0079929	40	27.545	0.000416232
2	1	0	1	1	127.758	0.981718	0.98146	0.415468	2	0.0082029	40	28.0448	0.000407765
2	1	0	1	1	128.257	0.971722	0.971447	0.409516	2	0.008409	40	28.5446	0.000397823
2	1	0	1	1	128.757	0.961727	0.961213	0.404616	2	0.00861187	40	29.0443	0.000388922
2	1	0	1	1	129.257	0.951732	0.951495	0.401607	2	0.00881332	40	29.5441	0.000382127
2	1	0	1	1	129.757	0.941737	0.941281	0.399176	2	0.00901325	40	30.0439	0.000375737
2	1	0	1	1	130.256	0.931742	0.931335	0.391296	2	0.00921109	40	30.5436	0.000364428
2	1	0	1	1	130.756	0.921746	0.921431	0.385474	2	0.0094058	40	31.0434	0.000355187
2	1	0	1	1	131.256	0.911751	0.911229	0.376871	2	0.00959645	40	31.5431	0.000343416
2	1	0	1	1	131.756	0.901756	0.901232	0.370842	2	0.00978392	40	32.0429	0.000334214
2	1	0	1	1	132.255	0.89176	0.89146	0.36528	2	0.00996756	40	32.5427	0.000325632
2	1	0	1	1	132.755	0.881765	0.881625	0.359716	2	0.0101481	40	33.0424	0.000317134
2	1	0	1	1	133.255	0.87177	0.871257	0.347949	2	0.010325	40	33.5422	0.000303153
2	1	0	1	1	133.755	0.861775	0.861539	0.33895	2	0.0104972	40	34.042	0.000292018
2	1	0	1	1	134.254	0.85178	0.851513	0.329703	2	0.0106643	40	34.5417	0.000280747
2	1	0	1	1	134.754	0.841784	0.841417	0.319872	2	0.0108267	40	35.0415	0.000269146
2	1	0	1	1	135.254	0.831789	0.831508	0.308487	2	0.0109837	40	35.5412	0.000256509
2	1	0	1	1	135.754	0.821794	0.821469	0.29795	2	0.0111352	40	36.041	0.000244757
2	1	0	1	1	136.254	0.811799	0.811422	0.284685	2	0.0112808	40	36.5408	0.000231
2	1	0	1	1	136.753	0.801803	0.801531	0.27343	2	0.01142	40	37.0405	0.000219163
2	1	0	1	1	137.253	0.791808	0.791565	0.259845	2	0.0115534	40	37.5403	0.000205684
2	1	0	1	1	137.753	0.781813	0.781282	0.247043	2	0.0116799	40	38.0401	0.00019301
2	1	0	1	1	138.253	0.771818	0.771471	0.232105	2	0.0117996	40	38.5398	0.000179063
2	1	0	1	1	138.752	0.761822	0.761572	0.21979	2	0.0119127	40	39.0396	0.000167386
2	1	0	1	1	139.252	0.751827	0.751577	0.205653	2	0.012019	40	39.5393	0.000154564
2	1	0	1	1	139.752	0.741832	0.741582	0.192895	2	0.0121185	40	40.0391	0.000143047
2	1	0	1	1	140.252	0.731837	0.731379	0.179255	2	0.0122114	40	40.5389	0.000131103
2	1	0	1	1	140.751	0.721841	0.721458	0.166939	2	0.0122978	40	41.0386	0.000120439
2	1	0	1	1	141.251	0.711846	0.711387	0.153723	2	0.0123778	40	41.5384	0.000109357
2	1	0	1	1	141.751	0.701851	0.701512	0.141782	2	0.0124516	40	42.0382	9.94619e-05
2	1	0	1	1	142.251	0.691856	0.691388	0.130207	2	0.0125194	40	42.5379	9.00233e-05
2	1	0	1	1	142.75	0.68186	0.681493	0.118774	2	0.0125816	40	43.0377	8.09438e-05
2	1	0	1	1	143.25	0.671865	0.671279	0.107777	2	0.0126381	40	43.5374	7.23482e-05
2	1	0	1	1	143.75	0.66187	0.661504	0.0970626	2	0.0126892	40	44.0372	6.42073e-05
2	1	0	1	1	144.25	0.651875	0.651522	0.0871588	2	0.0127352	40	44.537	5.67859e-05
2	1	0	1	1	144.749	0.641879	0.641464	0.0775052	2	0.0127762	40	45.0367	4.97168e-05
2	1	0	1	1	145.249	0.631884	0.631672	0.0683119	2	0.0128125	40	45.5365	4.31507e-05
2	1	0	1	1	145.749	0.621891	0.621567	0.060029	2	0.0128446	40	46.0362	3.7312e-05
2	1	0	1	1	146.249	0.611894	0.611558	0.0524556	2	0.0128726	40	46.536	3.20796e-05
2	1	0	1	1	146.749	0.601898	0.60142	0.0456356	2	0.012897	40	47.0358	2.74462e-05
2	1	0	1	1	147.278	0.591303	0.591155	0.0390229	2	0.0129193	41	47.5655	2.30686e-05
2	1	0	1	1	147.778	0.581308	0.580866	0.0335447	2	0.0129373	41	48.0653	1.94849e-05
2	1	0	1	1	148.278	0.571314	0.570651	0.0286783	2	0.0129527	41	48.565	1.63653e-05
2	1	0	1	1	148.778	0.561318	0.561121	0.0243459	2	0.0129659	41	49.0648	1.3661e-05
2	1	0	1	1	149.277	0.551322	0.551037	0.0205065	2	0.012977	41	49.5646	1.12998e-05
2	1	0	1	1	149.777	0.541327	0.541131	0.0170656	2	0.0129863	41	50.0643	9.23475e-06
2	1	0	1	1	150.277	0.531332	0.531025	0.0140756	2	0.012994	41	50.5641	7.47451e-06
2	1	0	1	1	150.777	0.521337	0.520884	0.0113835	2	0.0130003	41	51.0639	5.9295e-06
2	1	0	1	1	151.276	0.511342	0.511268	0.00889165	2	0.0130053	41	51.5636	4.54602e-06
2	1	0	1	1	151.776	0.501346	0.501076	0.00669483	2	0.0130091	41	52.0634	3.35462e-06
2	1	0	1	1	152.276	0.49135	0.491042	0.00462474	2	0.0130119	41	52.5632	2.27094e-06
2	1	0	1	1	152.806	0.480756	0.480237	0.00244479	2	0.0130137	42	53.0929	1.17408e-06
2	1	0	1	1	153.305	0.470761	0.470478	0.000570069	2	0.0130145	42	53.5927	2.68205e-07
2	0	0	1	1	153.865	0.459566	0.459479	-0.00151745	2	0.0130142	42	0.3648	-6.97238e-07
2	0	0	1	1	154.365	0.449571	0.449395	-0.00340486	2	0.013013	42	0.8646	-1.53013e-06
2	0	0	1	1	154.865	0.439576	0.439032	-0.00536157	2	0.0130108	42	1.3643	-2.3539e-06
2	0	0	1	1	155.364	0.42958	0.429255	-0.0074495	2	0.0130076	42	1.8641	-3.19774e-06
2	0	0	1	1	155.864	0.419586	0.41923	-0.00972639	2	0.0130033	42	2.3638	-4.07759e-06
2	0	0	1	1	156.394	0.40899	0.408569	-0.0123229	2	0.0129975	41	2.8936	-5.03474e-06
2	0	0	1	1	156.894	0.398995	0.3986	-0.015177	2	0.0129906	41	3.3934	-6.04953e-06
2	0	0	1	1	157.393	0.389	0.38858	-0.0183599	2	0.0129822	41	3.8931	-7.13427e-06
2	0	0	1	1	157.893	0.379004	0.378303	-0.0220542	2	0.012972	41	4.3929	-8.34318e-06
2	0	0	1	1	158.393	0.369009	0.368859	-0.0262254	2	0.01296	41	4.8926	-9.67348e-06
2	0	0	1	1	158.893	0.359014	0.358362	-0.0309873	2	0.0129457	41	5.3924	-1.11047e-05
2	0	0	1	1	159.393	0.349019	0.348652	-0.0364337	2	0.0129288	41	5.8922	-1.27027e-05
2	0	0	1	1	159.892	0.339023	0.338859	-0.0426475	2	0.0129091	41	6.3919	-1.44515e-05
2	0	0	1	1	160.392	0.329028	0.328897	-0.0496338	2	0.012886	41	6.8917	-1.63244e-05
2	0	0	1	1	160.892	0.319033	0.318625	-0.057477	2	0.0128593	41	7.3915	-1.83136e-05
2	0	0	1	1	161.392	0.309038	0.308586	-0.0662296	2	0.0128284	41	7.8912	-2.04376e-05
2	0	0	1	1	161.891	0.299042	0.298743	-0.0759965	2	0.0127928	41	8.391	-2.27034e-05
2	0	0	1	1	162.391	0.289047	0.288562	-0.0866963	2	0.0127522	41	8.8907	-2.50173e-05
2	0	0	1	1	162.891	0.279052	0.278969	-0.0983726	2	0.012706	41	9.3905	-2.74429e-05
2	0	0	1	1	163.421	0.268458	0.268053	-0.111615	2	0.0126503	40	9.9202	-2.99187e-05
2	0	0	1	1	163.92	0.258462	0.258317	-0.125014	2	0.0125912	40	10.42	-3.22933e-05
2	0	0	1	1	164.42	0.248467	0.248148	-0.139121	2	0.0125252	40	10.9198	-3.45226e-05
2	0	0	1	1	164.92	0.238471	0.238117	-0.1537	2	0.012452	40	11.4195	-3.65986e-05
2	0	0	1	1	165.42	0.228476	0.228319	-0.168793	2	0.0123715	40	11.9193	-3.85387e-05
2	0	0	1	1	165.919	0.218481	0.218104	-0.18448	2	0.0122832	40	12.4191	-4.02358e-05
2	0	0	1	1	166.419	0.208486	0.208114	-0.199914	2	0.0121871	40	12.9188	-4.1605e-05
2	0	0	1	1	166.919	0.19849	0.198207	-0.214444	2	0.0120833	40	13.4186	-4.25043e-05
2	0	0	1	1	167.419	0.188495	0.188171	-0.228911	2	0.0119724	40	13.9184	-4.30745e-05
2	0	0	1	1	167.918	0.1785	0.178447	-0.244543	2	0.0118539	40	14.4181	-4.36378e-05
2	0	0	1	1	168.418	0.168505	0.168102	-0.257897	2	0.0117281	40	14.9179	-4.33531e-05
2	0	0	1	1	168.918	0.158509	0.158148	-0.271634	2	0.0115955	40	15.4176	-4.29584e-05
2	0	0	1	1	169.418	0.148514	0.148438	-0.284666	2	0.0114566	40	15.9174	-4.22553e-05
2	0	0	1	1	169.918	0.138519	0.138194	-0.29573	2	0.0113118	40	16.4172	-4.08682e-05
2	0	0	1	1	170.417	0.128524	0.128254	-0.306963	2	0.011161	40	16.9169	-3.93692e-05
2	0	0	1	1	170.917	0.118528	0.11798	-0.318327	2	0.0110049	40	17.4167	-3.75562e-05
2	0	0	1	1	171.417	0.108534	0.108246	-0.327466	2	0.0108432	40	17.9164	-3.54469e-05
2	0	0	1	1	171.917	0.0985378	0.0981637	-0.334696	2	0.0106783	40	18.4162	-3.2855e-05
2	0	0	1	1	172.416	0.0885426	0.0882406	-0.344643	2	0.0105086	40	18.916	-3.04115e-05
2	0	0	1	1	172.916	0.0785473	0.0783246	-0.348229	2	0.010335	40	19.4157	-2.72749e-05
2	0	0	1	1	173.416	0.0685521	0.0683934	-0.355365	2	0.0101584	40	19.9155	-2.43047e-05
2	0	0	1	1	173.916	0.0585568	0.0583953	-0.36256	2	0.00997905	40	20.4153	-2.11718e-05
2	0	0	1	1	174.415	0.0485616	0.0482299	-0.369686	2	0.00979646	40	20.915	-1.78299e-05
2	0	0	1	1	174.915	0.0385663	0.0384269	-0.372157	2	0.00961096	40	21.4148	-1.43008e-05
2	0	0	1	1	175.415	0.0285702	0.0286061	-0.378648	2	0.00942337	40	21.9146	-1.08317e-05
2	0	0	1	1	175.915	0.0185758	0.0182799	-0.383568	2	0.00923291	40	22.4143	-7.01159e-06
2	0	0	1	1	176.414	0.00858059	0.00819788	-0.388859	2	0.00904033	40	22.9141	-3.18782e-06
2	0	0	1	0	176.882	0.000784296	0.000594989	-0.388736	2	0.00885856	40	23.382	-2.31294e-07
2	0	0	1	0	177.382	0.0107795	0.0104436	-0.381427	2	0.00866688	40	23.8818	-3.98346e-06
2	0	0	1	0	177.882	0.0207748	0.0206488	-0.379721	2	0.00847715	40	24.3815	-7.84078e-06
2	0	0	1	0	178.382	0.03077	0.0306194	-0.376655	2	0.00828897	40	24.8813	-1.1533e-05
2	0	0	1	0	178.881	0.0407653	0.0405038	-0.371411	2	0.00810322	40	25.3811	-1.50435e-05
2	0	0	1	0	179.381	0.0507605	0.0506819	-0.365055	2	0.00791923	40	25.8808	-1.85017e-05
2	0	0	1	0	179.881	0.0607558	0.060514	-0.356824	2	0.00773882	40	26.3806	-2.15929e-05
2	0	0	1	0	180.381	0.0707528	0.0705178	-0.350085	2	0.00756175	40	26.8804	-2.46872e-05
2	0	0	1	0	180.88	0.0807463	0.0804423	-0.346242	2	0.00738754	40	27.3801	-2.78525e-05
2	0	0	1	0	181.38	0.0907415	0.0905236	-0.336478	2	0.00721703	40	27.8799	-3.04592e-05
2	0	0	1	0	181.88	0.100737	0.100635	-0.325348	2	0.00705097	40	28.3796	-3.27413e-05
2	0	0	1	0	182.38	0.110732	0.110331	-0.320039	2	0.00688904	40	28.8794	-3.53101e-05
2	0	0	1	0	182.88	0.120727	0.120472	-0.310141	2	0.00673156	40	29.3792	-3.73632e-05
2	0	0	1	0	183.379	0.130722	0.130454	-0.297916	2	0.00657976	40	29.8789	-3.88643e-05
2	0	0	1	0	183.879	0.140718	0.140517	-0.289116	2	0.00643296	40	30.3787	-4.06257e-05
2	0	0	1	0	184.379	0.150713	0.150388	-0.276144	2	0.00629218	40	30.8784	-4.15287e-05
2	0	0	1	0	184.879	0.160708	0.16038	-0.263671	2	0.00615687	40	31.3782	-4.22876e-05
2	0	0	1	0	185.378	0.170703	0.170599	-0.250654	2	0.00602857	40	31.878	-4.27612e-05
2	0	0	1	0	185.878	0.180699	0.180411	-0.235835	2	0.0059074	40	32.3777	-4.25471e-05
2	0	0	1	0	186.378	0.190694	0.190452	-0.222307	2	0.00579321	40	32.8775	-4.23386e-05
2	0	0	1	0	186.878	0.200689	0.200418	-0.207879	2	0.00568568	40	33.3773	-4.16625e-05
2	0	0	1	0	187.377	0.210684	0.210626	-0.193289	2	0.00558534	40	33.877	-4.07116e-05
2	0	0	1	0	187.877	0.22068	0.220236	-0.177539	2	0.00549267	40	34.3768	-3.91006e-05
2	0	0	1	0	188.377	0.230675	0.230389	-0.162318	2	0.00540788	40	34.8765	-3.73962e-05
2	0	0	1	0	188.877	0.24067	0.240174	-0.148373	2	0.00533023	40	35.3763	-3.56354e-05
2	0	0	1	0	189.376	0.250665	0.250419	-0.133926	2	0.00525977	40	35.8761	-3.35377e-05
2	0	0	1	0	189.876	0.260661	0.260589	-0.120906	2	0.00519624	40	36.3758	-3.15068e-05
2	0	0	1	0	190.376	0.270656	0.270454	-0.107601	2	0.00513934	40	36.8756	-2.9101e-05
2	0	0	1	0	190.876	0.280651	0.280384	-0.0952978	2	0.00508878	40	37.3754	-2.672e-05
2	0	0	1	0	191.375	0.290646	0.290546	-0.0840021	2	0.00504407	40	37.8751	-2.44065e-05
2	0	0	1	0	191.875	0.300642	0.300228	-0.0735347	2	0.0050048	40	38.3749	-2.20772e-05
2	0	0	1	0	192.375	0.310637	0.310446	-0.0641599	2	0.00497052	40	38.8746	-1.99182e-05
2	0	0	1	0	192.875	0.320632	0.320399	-0.0555122	2	0.00494074	40	39.3744	-1.77861e-05
2	0	0	1	0	193.375	0.330627	0.330389	-0.0477624	2	0.00491501	40	39.8742	-1.57802e-05
2	0	0	1	0	193.904	0.341222	0.340886	-0.0404794	2	0.00489171	41	40.4039	-1.37989e-05
2	0	0	1	0	194.404	0.351218	0.350625	-0.0343666	2	0.00487307	41	40.9037	-1.20498e-05
2	0	0	1	0	194.904	0.361213	0.361173	-0.028969	2	0.00485729	41	41.4034	-1.04628e-05
2	0	0	1	0	195.404	0.371208	0.371038	-0.0242591	2	0.00484404	41	41.9032	-9.00103e-06
2	0	0	1	0	195.903	0.381203	0.381312	-0.0201169	2	0.004833	41	42.403	-7.6708e-06
2	0	0	1	0	196.403	0.391199	0.390911	-0.0164456	2	0.00482392	41	42.9027	-6.42878e-06
2	0	0	1	0	196.903	0.401194	0.401313	-0.0131892	2	0.00481656	41	43.4025	-5.29298e-06
2	0	0	1	0	197.403	0.411188	0.410898	-0.0103149	2	0.00481073	41	43.9022	-4.23837e-06
2	0	0	1	0	197.902	0.421184	0.420945	-0.00777697	2	0.00480625	41	44.402	-3.27367e-06
2	0	0	1	0	198.402	0.43118	0.430936	-0.00540842	2	0.004803	41	44.9018	-2.33068e-06
2	0	0	1	0	198.932	0.441775	0.441906	-0.00307283	2	0.00480078	42	45.4315	-1.3579e-06
2	0	0	1	0	199.432	0.45177	0.451819	-0.00104173	2	0.00479975	42	45.9313	-4.70671e-07
2	1	0	1	0	199.956	0.462265	0.461964	0.00103314	3	0.00479975	42	0.2448	4.77275e-07
2	1	0	1	0	200.456	0.47226	0.472149	0.00301163	3	0.00480076	42	0.7446	1.42194e-06
2	1	0	1	0	200.956	0.482255	0.482076	0.00501514	3	0.00480277	42	1.2444	2.41768e-06
2	1	0	1	0	201.456	0.492251	0.491726	0.00712813	3	0.0048058	42	1.7441	3.50509e-06
2	1	0	1	0	201.955	0.502246	0.501879	0.00937765	3	0.00480992	42	2.2439	4.70644e-06
2	1	0	1	0	202.485	0.512841	0.512557	0.0119111	3	0.00481557	41	2.7736	6.10512e-06
2	1	0	1	0	202.985	0.522836	0.522459	0.014633	3	0.00482223	41	3.2734	7.64513e-06
2	1	0	1	0	203.485	0.532831	0.532466	0.0176541	3	0.00483033	41	3.7732	9.40023e-06
2	1	0	1	0	203.984	0.542826	0.542477	0.0210281	3	0.00484002	41	4.2729	1.14073e-05
2	1	0	1	0	204.484	0.552822	0.552768	0.0248318	3	0.00485151	41	4.7727	1.37262e-05
2	1	0	1	0	204.984	0.562817	0.562572	0.0291691	3	0.00486504	41	5.2724	1.64097e-05
2	1	0	1	0	205.484	0.572812	0.57249	0.0340779	3	0.00488089	41	5.7722	1.95092e-05
2	1	0	1	0	205.984	0.582807	0.582373	0.039641	3	0.00489933	41	6.272	2.30858e-05
2	1	0	1	0	206.483	0.592803	0.59239	0.04582	3	0.00492071	41	6.7717	2.71433e-05
2	1	0	1	0	206.983	0.602798	0.602763	0.0528091	3	0.00494538	41	7.2715	3.18313e-05
2	1	0	1	0	207.483	0.612793	0.612552	0.0604934	3	0.00497372	41	7.7713	3.70553e-05
2	1	0	1	0	207.983	0.622788	0.622617	0.0689491	3	0.00500608	41	8.271	4.29288e-05
2	1	0	1	0	208.482	0.632784	0.632526	0.0781517	3	0.00504288	41	8.7708	4.9433e-05
2	1	0	1	0	208.982	0.642781	0.64287	0.088078	3	0.00508446	41	9.2706	5.66227e-05
2	1	0	1	0	209.482	0.652774	0.652401	0.0984421	3	0.00513108	41	9.7703	6.42238e-05
2	1	0	1	0	209.997	0.663069	0.663031	0.109885	3	0.00518472	41	10.2851	7.2857e-05
2	1	0	1	0	210.511	0.673364	0.673338	0.121571	3	0.00524436	40	10.7998	8.18585e-05
2	1	0	1	0	211.011	0.68336	0.683096	0.133626	3	0.00530823	40	11.2996	9.12791e-05
2	1	0	1	0	211.511	0.693357	0.693268	0.14539	3	0.00537807	40	11.7994	0.000100794
2	1	0	1	0	212.011	0.70335	0.703119	0.157968	3	0.00545403	40	12.2991	0.00011107
2	1	0	1	0	212.51	0.713345	0.71315	0.170801	3	0.00553631	40	12.7989	0.000121807
2	1	0	1	0	213.01	0.723341	0.722853	0.183624	3	0.005625	40	13.2986	0.000132733
2	1	0	1	0	213.51	0.733336	0.733178	0.196799	3	0.00572019	40	13.7984	0.000144289
2	1	0	1	0	214.01	0.743331	0.742872	0.210248	3	0.00582204	40	14.2982	0.000156187
2	1	0	1	0	214.509	0.753326	0.753042	0.223915	3	0.0059307	40	14.7979	0.000168617
2	1	0	1	0	215.009	0.763322	0.763052	0.237138	3	0.00604587	40	15.2977	0.000180948
2	1	0	1	0	215.509	0.773317	0.773079	0.249701	3	0.00616767	40	15.7974	0.000193038
2	1	0	1	0	216.009	0.783312	0.782937	0.263394	3	0.00629589	40	16.2972	0.000206221
2	1	0	1	0	216.509	0.793307	0.793067	0.276316	3	0.0064307	40	16.797	0.000219137
2	1	0	1	0	217.008	0.803303	0.802984	0.288377	3	0.00657196	40	17.2967	0.000231562
2	1	0	1	0	217.508	0.813298	0.812744	0.301421	3	0.00671943	40	17.7965	0.000244979
2	1	0	1	0	218.008	0.823293	0.823061	0.31156	3	0.00687201	40	18.2963	0.000256433
2	1	0	1	0	218.508	0.833288	0.832902	0.321961	3	0.00703085	40	18.796	0.000268161
2	1	0	1	0	219.007	0.843284	0.842907	0.333181	3	0.00719433	40	19.2958	0.00028084
2	1	0	1	0	219.507	0.853279	0.853148	0.341098	3	0.00736269	40	19.7955	0.000291007
2	1	0	1	0	220.007	0.863274	0.863106	0.350639	3	0.0075356	40	20.2953	0.000302639
2	1	0	1	0	220.507	0.873269	0.872911	0.3597	3	0.00771282	40	20.7951	0.000313986
2	1	0	1	0	221.006	0.883265	0.882783	0.366713	3	0.00789434	40	21.2948	0.000323728
2	1	0	1	0	221.506	0.89326	0.892931	0.37415	3	0.00807973	40	21.7946	0.00033409
2	1	0	1	0	222.006	0.903255	0.903129	0.380327	3	0.00826787	40	22.2944	0.000343484
2	1	0	1	0	222.506	0.91325	0.912898	0.385631	3	0.00846	40	22.7941	0.000352041
2	1	0	1	0	223.005	0.923246	0.922929	0.392887	3	0.00865384	40	23.2939	0.000362607
2	1	0	1	0	223.505	0.933241	0.932873	0.395333	3	0.00885126	40	23.7936	0.000368796
2	1	0	1	0	224.005	0.943236	0.942885	0.399229	3	0.00905048	40	24.2934	0.000376427
2	1	0	1	0	224.505	0.953231	0.952744	0.408103	3	0.00925181	40	24.7932	0.000388818
2	1	0	1	0	225.004	0.963226	0.962643	0.41669	3	0.00945673	40	25.2929	0.000401123
2	1	0	1	0	225.504	0.973222	0.972745	0.416424	3	0.00966418	40	25.7927	0.000405074
2	1	0	1	0	226.004	0.983215	0.982946	0.420647	3	0.00987287	40	26.2924	0.000413473
2	1	0	1	0	226.504	0.993212	0.992876	0.420787	3	0.0100826	40	26.7922	0.00041779
2	1	0	1	0	226.982	0.99721	0.997117	0.420041	3	0.0102843	40	27.2702	0.00041883
2	1	0	1	0	227.481	0.987215	0.986833	0.420264	3	0.0104943	40	27.7699	0.000414731
2	1	0	1	0	227.981	0.97722	0.976996	0.417174	3	0.0107027	40	28.2697	0.000407578
2	1	0	1	0	228.481	0.967225	0.966732	0.409854	3	0.0109096	40	28.7695	0.000396219
2	1	0	1	0	228.981	0.957229	0.956983	0.405843	3	0.0111131	40	29.2692	0.000388385
2	1	0	1	0	229.481	0.947234	0.947011	0.400778	3	0.011314	40	29.769	0.000379541
2	1	0	1	0	229.98	0.937238	0.936923	0.395887	3	0.0115126	40	30.2688	0.000370916
2	1	0	1	0	230.48	0.927244	0.926941	0.38804	3	0.0117088	40	30.7685	0.00035969
2	1	0	1	0	230.98	0.917248	0.916967	0.383097	3	0.0119025	40	31.2683	0.000351287
2	1	0	1	0	231.48	0.907253	0.906959	0.373956	3	0.0120917	40	31.768	0.000339163
2	1	0	1	0	231.979	0.897258	0.896624	0.368246	3	0.0122768	40	32.2678	0.000330178
2	1	0	1	0	232.479	0.887263	0.886898	0.361544	3	0.0124597	40	32.7676	0.000320653
2	1	0	1	0	232.979	0.877267	0.876923	0.351165	3	0.0126379	40	33.2673	0.000307945
2	1	0	1	0	233.479	0.867272	0.867142	0.343366	3	0.0128116	40	33.7671	0.000297747
2	1	0	1	0	233.978	0.857278	0.856904	0.334533	3	0.0129808	40	34.2668	0.000286662
2	1	0	1	0	234.478	0.847282	0.847008	0.323604	3	0.0131453	40	34.7666	0.000274096
2	1	0	1	0	234.978	0.837286	0.837174	0.3135	3	0.0133045	40	35.2664	0.000262454
2	1	0	1	0	235.478	0.827291	0.826919	0.302315	3	0.0134587	40	35.7661	0.00024999
2	1	0	1	0	235.977	0.817296	0.816871	0.28894	3	0.0136066	40	36.2659	0.000236027
2	1	0	1	0	236.477	0.807301	0.80704	0.279194	3	0.013749	40	36.7657	0.00022532
2	1	0	1	0	236.977	0.797305	0.796997	0.266802	3	0.0138853	40	37.2654	0.00021264
2	1	0	1	0	237.477	0.78731	0.786856	0.253198	3	0.0140152	40	37.7652	0.000199231
2	1	0	1	0	237.977	0.777314	0.777172	0.237857	3	0.0141379	40	38.265	0.000184855
2	1	0	1	0	238.476	0.76732	0.767086	0.226553	3	0.014254	40	38.7647	0.000173786
2	1	0	1	0	238.976	0.757324	0.756878	0.212799	3	0.0143636	40	39.2645	0.000161063
2	1	0	1	0	239.476	0.747329	0.747136	0.199156	3	0.0144663	40	39.7642	0.000148796
2	1	0	1	0	239.976	0.737334	0.73702	0.185723	3	0.0145625	40	40.264	0.000136882
2	1	0	1	0	240.475	0.727339	0.727189	0.173064	3	0.0146522	40	40.7638	0.00012585
2	1	0	1	0	240.975	0.717344	0.716929	0.160272	3	0.0147354	40	41.2635	0.000114903
2	1	0	1	0	241.475	0.707348	0.707218	0.148119	3	0.0148124	40	41.7633	0.000104753
2	1	0	1	0	241.975	0.697354	0.69694	0.135404	3	0.0148832	40	42.263	9.43682e-05
2	1	0	1	0	242.474	0.687358	0.687009	0.12428	3	0.0149481	40	42.7628	8.53816e-05
2	1	0	1	0	242.974	0.677363	0.677203	0.113047	3	0.0150073	40	43.2626	7.65561e-05
2	1	0	1	0	243.474	0.667367	0.667005	0.102374	3	0.015061	40	43.7623	6.82839e-05
2	1	0	1	0	243.974	0.657372	0.657101	0.0918138	3	0.0151095	40	44.2621	6.03309e-05
2	1	0	1	0	244.473	0.647377	0.646923	0.0821724	3	0.0151529	40	44.7619	5.31592e-05
2	1	0	1	0	244.973	0.637382	0.637248	0.0727741	3	0.0151915	40	45.2616	4.63751e-05
2	1	0	1	0	245.473	0.627386	0.62702	0.0641504	3	0.0152257	40	45.7614	4.02236e-05
2	1	0	1	0	245.973	0.61739	0.617296	0.0561502	3	0.0152557	40	46.2612	3.46613e-05
2	1	0	1	0	246.472	0.607396	0.607083	0.0490114	3	0.0152819	40	46.7609	2.9754e-05
2	1	0	1	0	247.002	0.596801	0.596736	0.0420821	3	0.015306	41	47.2907	2.51119e-05
2	1	0	1	0	247.502	0.586806	0.586501	0.0362271	3	0.0153254	41	47.7904	2.12472e-05
2	1	0	1	0	248.002	0.57681	0.576595	0.0310908	3	0.0153421	41	48.2902	1.79268e-05
2	1	0	1	0	248.501	0.566815	0.566557	0.0265001	3	0.0153564	41	48.7899	1.50138e-05
2	1	0	1	0	249.001	0.55682	0.556571	0.0224332	3	0.0153686	41	49.2897	1.24857e-05
2	1	0	1	0	249.501	0.546825	0.54661	0.0188065	3	0.0153788	41	49.7895	1.02798e-05
2	1	0	1	0	250.001	0.536829	0.536427	0.0156148	3	0.0153873	41	50.2892	8.3762e-06
2	1	0	1	0	250.501	0.526834	0.526714	0.01276	3	0.0153943	41	50.789	6.72088e-06
2	1	0	1	0	251	0.516839	0.516834	0.0101752	3	0.0154	41	51.2888	5.25886e-06
2	1	0	1	0	251.5	0.506844	0.506392	0.00786574	3	0.0154044	41	51.7885	3.98315e-06
2	1	0	1	0	252	0.496848	0.496533	0.00573133	3	0.0154077	41	52.2883	2.8458e-06
2	1	0	1	0	252.53	0.486253	0.486249	0.00347841	3	0.0154101	42	52.818	1.69137e-06
2	1	0	1	0	253.029	0.476258	0.4759	0.001581	3	0.0154114	42	53.3178	7.52396e-07
2	0	0	1	0	253.559	0.465663	0.465446	-0.00039536	3	0.0154117	43	0.0749	-1.84019e-07
2	0	0	1	0	254.089	0.455068	0.454874	-0.00236457	3	0.015411	42	0.6047	-1.07558e-06
2	0	0	1	0	254.589	0.445074	0.444962	-0.00427346	3	0.0154093	42	1.1044	-1.90153e-06
2	0	0	1	0	255.088	0.435078	0.434632	-0.0062791	3	0.0154067	42	1.6042	-2.72909e-06
2	0	0	1	0	255.588	0.425082	0.424832	-0.00843767	3	0.015403	42	2.104	-3.58459e-06
2	0	0	1	0	256.088	0.415087	0.415052	-0.0108041	3	0.0153982	42	2.6037	-4.48428e-06
2	0	0	1	0	256.618	0.404492	0.404124	-0.0135113	3	0.0153918	41	3.1335	-5.46025e-06
2	0	0	1	0	257.117	0.394498	0.394086	-0.0165252	3	0.0153842	41	3.6332	-6.51236e-06
2	0	0	1	0	257.617	0.384502	0.384144	-0.0199104	3	0.0153751	41	4.133	-7.64845e-06
2	0	0	1	0	258.117	0.374507	0.374539	-0.0238028	3	0.0153642	41	4.6328	-8.91507e-06
2	0	0	1	0	258.617	0.364511	0.364186	-0.0281965	3	0.0153512	41	5.1325	-1.02688e-05
2	0	0	1	0	259.116	0.354516	0.354253	-0.0332726	3	0.0153358	41	5.6323	-1.17869e-05
2	0	0	1	0	259.616	0.344521	0.344244	-0.0390142	3	0.0153177	41	6.1321	-1.34304e-05
2	0	0	1	0	260.116	0.334526	0.334508	-0.0455316	3	0.0152966	41	6.6318	-1.52307e-05
2	0	0	1	0	260.616	0.32453	0.324115	-0.0528535	3	0.015272	41	7.1316	-1.71306e-05
2	0	0	1	0	261.116	0.314534	0.313961	-0.0610759	3	0.0152436	41	7.6314	-1.91754e-05
2	0	0	1	0	261.615	0.30454	0.30432	-0.0702818	3	0.0152107	41	8.1311	-2.13882e-05
2	0	0	1	0	262.115	0.294545	0.294499	-0.080404	3	0.0151731	41	8.6309	-2.36789e-05
2	0	0	1	0	262.615	0.284549	0.284276	-0.0915073	3	0.0151301	41	9.1306	-2.60133e-05
2	0	0	1	0	263.115	0.274554	0.273993	-0.103424	3	0.0150814	41	9.6304	-2.83374e-05
2	0	0	1	0	263.644	0.263957	0.263705	-0.117222	3	0.015023	40	10.1602	-3.09121e-05
2	0	0	1	0	264.144	0.253964	0.25351	-0.131072	3	0.0149609	40	10.6599	-3.32281e-05
2	0	0	1	0	264.644	0.243969	0.243556	-0.145163	3	0.0148918	40	11.1597	-3.53553e-05
2	0	0	1	0	265.144	0.233973	0.233648	-0.160025	3	0.0148156	40	11.6594	-3.73897e-05
2	0	0	1	0	265.643	0.223978	0.223683	-0.175579	3	0.0147318	40	12.1592	-3.92742e-05
2	0	0	1	0	266.143	0.213983	0.213783	-0.190407	3	0.0146402	40	12.659	-4.07057e-05
2	0	0	1	0	266.643	0.203988	0.203488	-0.205255	3	0.0145415	40	13.1587	-4.17669e-05
2	0	0	1	0	267.143	0.193992	0.193603	-0.221585	3	0.0144347	40	13.6585	-4.28996e-05
2	0	0	1	0	267.642	0.183997	0.18349	-0.236376	3	0.0143201	40	14.1582	-4.33725e-05
2	0	0	1	0	268.142	0.174002	0.173832	-0.250692	3	0.0141981	40	14.658	-4.35782e-05
2	0	0	1	0	268.642	0.164007	0.163876	-0.26347	3	0.0140695	40	15.1578	-4.31763e-05
2	0	0	1	0	269.142	0.154011	0.153824	-0.275143	3	0.0139347	40	15.6575	-4.23235e-05
2	0	0	1	0	269.641	0.144016	0.143859	-0.290265	3	0.013793	40	16.1573	-4.17572e-05
2	0	0	1	0	270.141	0.134021	0.133874	-0.298372	3	0.0136457	40	16.6571	-3.99442e-05
2	0	0	1	0	270.641	0.124026	0.123873	-0.310829	3	0.013493	40	17.1568	-3.85033e-05
2	0	0	1	0	271.141	0.11403	0.113693	-0.320725	3	0.0133346	40	17.6566	-3.64642e-05
2	0	0	1	0	271.64	0.104035	0.103792	-0.331487	3	0.0131712	40	18.1563	-3.44057e-05
2	0	0	1	0	272.14	0.0940399	0.0939764	-0.339961	3	0.0130039	40	18.6561	-3.19483e-05
2	0	0	1	0	272.64	0.0840447	0.0838693	-0.347171	3	0.0128321	40	19.1559	-2.9117e-05
2	0	0	1	0	273.14	0.0740495	0.0737476	-0.354572	3	0.0126573	40	19.6556	-2.61488e-05
2	0	0	1	0	273.64	0.0640542	0.0637235	-0.362361	3	0.0124777	40	20.1554	-2.30909e-05
2	0	0	1	0	274.139	0.054059	0.0539236	-0.365693	3	0.0122961	40	20.6552	-1.97195e-05
2	0	0	1	0	274.639	0.0440637	0.0437253	-0.370165	3	0.0121117	40	21.1549	-1.61856e-05
2	0	0	1	0	275.139	0.0340685	0.0337405	-0.373312	3	0.0119253	40	21.6547	-1.25957e-05
2	0	0	1	0	275.639	0.0240732	0.023802	-0.381239	3	0.0117365	40	22.1544	-9.07425e-06
2	0	0	1	0	276.138	0.014078	0.0138998	-0.383214	3	0.0115453	40	22.6542	-5.32659e-06
2	0	0	1	0	276.638	0.00408273	0.00384117	-0.387346	3	0.0113526	40	23.154	-1.48786e-06
2	0	0	1	1	277.106	0.00528216	0.00505612	-0.383469	3	0.0111716	40	23.6219	-1.93886e-06
2	0	0	1	1	277.606	0.0152774	0.0148838	-0.38048	3	0.0109805	40	24.1217	-5.66298e-06
2	0	0	1	1	278.106	0.0252727	0.0249114	-0.375249	3	0.0107911	40	24.6214	-9.34796e-06
2	0	0	1	1	278.605	0.0352679	0.0351486	-0.373668	3	0.0106034	40	25.1212	-1.31339e-05
2	0	0	1	1	279.105	0.045264	0.0450657	-0.368856	3	0.0104184	40	25.621	-1.66228e-05
2	0	0	1	1	279.605	0.0552584	0.0548646	-0.359469	3	0.0102364	40	26.1207	-1.97221e-05
2	0	0	1	1	280.105	0.0652536	0.0648927	-0.356264	3	0.0100572	40	26.6205	-2.3119e-05
2	0	0	1	1	280.604	0.0752489	0.0750998	-0.348393	3	0.0098818	40	27.1202	-2.61642e-05
2	0	0	1	1	281.104	0.0852441	0.0850547	-0.341305	3	0.00970914	40	27.62	-2.90296e-05
2	0	0	1	1	281.604	0.0952394	0.0950046	-0.335604	3	0.0095395	40	28.1198	-3.18839e-05
2	0	0	1	1	282.104	0.105235	0.104791	-0.325189	3	0.00937492	40	28.6195	-3.4077e-05
2	0	0	1	1	282.603	0.11523	0.114873	-0.315803	3	0.00921485	40	29.1193	-3.62772e-05
2	0	0	1	1	283.103	0.125224	0.125056	-0.306047	3	0.00905981	40	29.619	-3.82729e-05
2	0	0	1	1	283.603	0.13522	0.134946	-0.294497	3	0.00890964	40	30.1188	-3.97412e-05
2	0	0	1	1	284.103	0.145216	0.144927	-0.283999	3	0.00876537	40	30.6186	-4.11592e-05
2	0	0	1	1	284.602	0.155211	0.154909	-0.2714	3	0.00862703	40	31.1183	-4.20425e-05
2	0	0	1	1	285.102	0.165206	0.165077	-0.258008	3	0.00849471	40	31.6181	-4.2591e-05
2	0	0	1	1	285.602	0.175201	0.174775	-0.244115	3	0.00836964	40	32.1179	-4.26652e-05
2	0	0	1	1	286.102	0.185197	0.184858	-0.230376	3	0.0082511	40	32.6176	-4.25868e-05
2	0	0	1	1	286.602	0.195192	0.194844	-0.214653	3	0.00813998	40	33.1174	-4.18239e-05
2	0	0	1	1	287.101	0.205188	0.204814	-0.200259	3	0.00803628	40	33.6172	-4.10158e-05
2	0	0	1	1	287.601	0.215182	0.214673	-0.184881	3	0.00794016	40	34.1169	-3.9689e-05
2	0	0	1	1	288.101	0.225178	0.224768	-0.17053	3	0.00785119	40	34.6167	-3.83297e-05
2	0	0	1	1	288.601	0.235173	0.234837	-0.156175	3	0.00776963	40	35.1164	-3.66757e-05
2	0	0	1	1	289.1	0.245168	0.24512	-0.141279	3	0.0076954	40	35.6162	-3.46303e-05
2	0	0	1	1	289.6	0.255163	0.254907	-0.12739	3	0.0076283	40	36.116	-3.24726e-05
2	0	0	1	1	290.1	0.265159	0.264941	-0.113986	3	0.00756801	40	36.6157	-3.01995e-05
2	0	0	1	1	290.6	0.275154	0.274965	-0.101381	3	0.00751426	40	37.1155	-2.78763e-05
2	0	0	1	1	291.099	0.285148	0.284775	-0.0899025	3	0.00746658	40	37.6152	-2.5602e-05
2	0	0	1	1	291.599	0.295144	0.295027	-0.0789779	3	0.00742451	40	38.115	-2.33006e-05
2	0	0	1	1	292.099	0.30514	0.304844	-0.069005	3	0.00738765	40	38.6148	-2.10358e-05
2	0	0	1	1	292.599	0.315135	0.314821	-0.0600102	3	0.00735553	40	39.1145	-1.88925e-05
2	0	0	1	1	293.098	0.32513	0.324592	-0.0515413	3	0.00732774	40	39.6143	-1.67299e-05
2	0	0	1	1	293.628	0.335725	0.335729	-0.0439181	3	0.00730248	41	40.144	-1.47446e-05
2	0	0	1	1	294.128	0.34572	0.345629	-0.037504	3	0.00728219	41	40.6438	-1.29625e-05
2	0	0	1	1	294.628	0.355716	0.355354	-0.0317945	3	0.00726494	41	41.1436	-1.12983e-05
2	0	0	1	1	295.127	0.365711	0.365364	-0.0266932	3	0.00725038	41	41.6433	-9.75273e-06
2	0	0	1	1	295.627	0.375706	0.375507	-0.0222305	3	0.0072382	41	42.1431	-8.34769e-06
2	0	0	1	1	296.127	0.385701	0.385248	-0.0183274	3	0.00722812	41	42.6429	-7.0606e-06
2	0	0	1	1	296.627	0.395696	0.395368	-0.0148311	3	0.00721987	41	43.1426	-5.86373e-06
2	0	0	1	1	297.127	0.405692	0.405477	-0.0118168	3	0.00721325	41	43.6424	-4.79145e-06
2	0	0	1	1	297.626	0.415689	0.415318	-0.0090736	3	0.00720807	41	44.1422	-3.76843e-06
2	0	0	1	1	298.126	0.425682	0.425415	-0.00664251	3	0.00720418	41	44.6419	-2.82583e-06
2	0	0	1	1	298.656	0.436277	0.436083	-0.00420737	3	0.00720133	42	45.1717	-1.83477e-06
2	0	0	1	1	299.156	0.446272	0.446113	-0.0021346	3	0.00719975	42	45.6714	-9.52273e-07
2	0	0	1	1	299.685	0.456867	0.456447	3.21059e-07	3	0.00719918	43	46.2012	1.46546e-10
2	1	0	0	1	299.938	0.46194	0.461004	0.000985166	3	0.0071993	43	0.2276	4.54166e-07