File: Python/Data/RDE/240223-OCV-EIS-Fe2Fe3_5mM-HCl1M-0RPM-Ag_AgCl_BLF8-GC-RDE-1minRestVSEoc-3ppf-14p1mVAmplitude_04_PEIS_C15.mpt
EC-Lab ASCII FILE
Nb header lines : 67

Potentio Electrochemical Impedance Spectroscopy

Run on channel : 15 (SN 19485)
User :
Electrode connection : standard
Potential control : Ewe
Ewe ctrl range : min = -1.00 V, max = 1.00 V
Ewe,I filtering : 50 kHz
Safety Limits :
	Do not start on E overload
Channel : Floating
Acquisition started on : 02/23/2024 16:29:27.631
Loaded Setting File :  NONE
Saved on :
	File : 240223-OCV-EIS-Fe2Fe3_5mM-HCl1M-0RPM-Ag_AgCl_BLF8-GC-RDE-1minRestVSEoc-3ppf-14p1mVAmplitude_04_PEIS_C15.mpr
	Directory : C:\Data\mathias\RDE-RPM-variation\
	Host : 192.168.0.1
Device : VMP-300 (SN 0826)
Address : USB
EC-Lab for windows v11.52 (software)
Internet server v11.52 (firmware)
Command interpretor v11.52 (firmware)
Electrode material :
Initial state :
Electrolyte :
Comments :
Cable : special
Reference electrode : SCE Saturated Calomel Electrode (0.241 V)
Electrode surface area : 0.001 cm²
Characteristic mass : 0.001 g
Equivalent Weight : 0.000 g/eq.
Density : 0.000 g/cm3
Volume (V) : 0.001 cm³
Record EIS quality indicators
Cycle Definition : Charge/Discharge alternance
Mode                Single sine
E (V)               0.0000
vs.                 Eoc
tE (h:m:s)          0:01:0.0000
record              0
dI                  0.000
unit dI             mA
dt (s)              0.000
fi                  1.000
unit fi             MHz
ff                  100.000
unit ff             mHz
Nd                  10
Points              per decade
spacing             Logarithmic
Va (mV)             14.1
pw                  0.10
Na                  3
corr                0
E range min (V)     -1.000
E range max (V)     1.000
I Range             Auto
Bandwidth           8
nc cycles           0
goto Ns'            0
nr cycles           0
inc. cycle          1

freq/Hz	Re(Z)/Ohm	-Im(Z)/Ohm	|Z|/Ohm	Phase(Z)/deg	time/s	<Ewe>/V	<I>/mA	Cs/µF	Cp/µF	cycle number	I Range	|Ewe|/V	|I|/A	Ns	(Q-Qo)/mA.h	THD Ewe/%	NSD Ewe/%	NSR Ewe/%	|Ewe h2|/V	|Ewe h3|/V	|Ewe h4|/V	|Ewe h5|/V	|Ewe h6|/V	|Ewe h7|/V	THD I/%	NSD I/%	NSR I/%	|I h2|/A	|I h3|/A	|I h4|/A	|I h5|/A	|I h6|/A	|I h7|/A	Re(Y)/Ohm-1	Im(Y)/Ohm-1	|Y|/Ohm-1	Phase(Y)/deg	Re(C)/nF	Im(C)/nF	|C|/nF	Phase(C)/deg	Re(M)	Im(M)	|M|	Phase(M)/deg	Re(Permittivity)	Im(Permittivity)	|Permittivity|	Phase(Permittivity)/deg	Re(Resistivity)/Ohm.cm	Im(Resistivity)/Ohm.cm	|Resistivity|/Ohm.cm	Phase(Resistivity)/deg	Re(Conductivity)/mS/cm	Im(Conductivity)/mS/cm	|Conductivity|/mS/cm	Phase(Conductivity)/deg	Tan(Delta)	Loss Angle(Delta)/deg	dq/mA.h
1.00002e+06	3.5156	4.06902	5.37739	-49.1732	605.465	0.459385	-0.0106655	0.0391131	0.0223954	1	38	0.011116	0.00206718	0	-6.9191e-06	-1	-1	-1	0	0	0	0	0	0	-1	-1	-1	0	0	0	0	0	0	0.121578	0.140717	0.185964	49.1732	22.3954	19.3494	29.5965	-40.8268	0.0000000E+000	0.0000000E+000	0.0000000E+000	40.8268	0.0000000E+000	0.0000000E+000	0.0000000E+000	-40.8268	0.0000000E+000	0.0000000E+000	0.0000000E+000	-49.1732	0.0000000E+000	0.0000000E+000	0.0000000E+000	49.1732	0.863992	40.8268	-6.9191e-06
794333	3.55852	3.2011	4.78645	-41.9733	606.477	0.459407	-0.00143207	0.0625919	0.0279956	1	38	0.0138904	0.00290202	0	-4.57892e-06	-1	-1	-1	0	0	0	0	0	0	-1	-1	-1	0	0	0	0	0	0	0.155325	0.139724	0.208923	41.9733	27.9956	31.1214	41.8605	-48.0267	0.0000000E+000	0.0000000E+000	0.0000000E+000	48.0267	0.0000000E+000	0.0000000E+000	0.0000000E+000	-48.0267	0.0000000E+000	0.0000000E+000	0.0000000E+000	-41.9733	0.0000000E+000	0.0000000E+000	0.0000000E+000	41.9733	1.11165	48.0267	2.34017e-06
630957	3.5321	2.52516	4.34191	-35.5616	607.623	0.459393	-0.00197013	0.0998923	0.0337869	1	38	0.0144787	0.00333464	0	-2.63118e-06	-1	-1	-1	0	0	0	0	0	0	-1	-1	-1	0	0	0	0	0	0	0.187358	0.133945	0.230314	35.5616	33.7869	47.2599	58.0952	-54.4384	0.0000000E+000	0.0000000E+000	0.0000000E+000	54.4384	0.0000000E+000	0.0000000E+000	0.0000000E+000	-54.4384	0.0000000E+000	0.0000000E+000	0.0000000E+000	-35.5616	0.0000000E+000	0.0000000E+000	0.0000000E+000	35.5616	1.39877	54.4384	1.94775e-06
501206	3.499	2.01323	4.03684	-29.9149	608.77	0.459395	-0.00170573	0.157729	0.0392296	1	38	0.0145342	0.00360039	0	2.36814e-06	-1	-1	-1	0	0	0	0	0	0	-1	-1	-1	0	0	0	0	0	0	0.214714	0.123541	0.247719	29.9149	39.2296	68.1812	78.6615	-60.0851	0.0000000E+000	0.0000000E+000	0.0000000E+000	60.0851	0.0000000E+000	0.0000000E+000	0.0000000E+000	-60.0851	0.0000000E+000	0.0000000E+000	0.0000000E+000	-29.9149	0.0000000E+000	0.0000000E+000	0.0000000E+000	29.9149	1.738	60.0851	4.99932e-06
398103	3.46358	1.62736	3.82684	-25.1665	609.917	0.459402	-0.00167407	0.245663	0.0444251	1	38	0.0145731	0.00380813	0	4.87036e-06	-1	-1	-1	0	0	0	0	0	0	-1	-1	-1	0	0	0	0	0	0	0.236508	0.111123	0.261312	25.1665	44.4251	94.5517	104.468	-64.8335	0.0000000E+000	0.0000000E+000	0.0000000E+000	64.8335	0.0000000E+000	0.0000000E+000	0.0000000E+000	-64.8335	0.0000000E+000	0.0000000E+000	0.0000000E+000	-25.1665	0.0000000E+000	0.0000000E+000	0.0000000E+000	25.1665	2.12834	64.8335	2.50222e-06
316230	3.4302	1.35177	3.68695	-21.5084	611.064	0.459392	-0.00143016	0.372317	0.0500481	1	38	0.014532	0.00394147	0	1.92041e-06	-1	-1	-1	0	0	0	0	0	0	-1	-1	-1	0	0	0	0	0	0	0.25234	0.0994421	0.271227	21.5084	50.0481	127	136.506	-68.4916	0.0000000E+000	0.0000000E+000	0.0000000E+000	68.4916	0.0000000E+000	0.0000000E+000	0.0000000E+000	-68.4916	0.0000000E+000	0.0000000E+000	0.0000000E+000	-21.5084	0.0000000E+000	0.0000000E+000	0.0000000E+000	21.5084	2.53756	68.4916	-2.94995e-06
251188	3.40766	1.17295	3.60388	-18.9939	612.211	0.45939	-0.00176531	0.540186	0.0572214	1	38	0.0145494	0.00403714	0	9.26988e-06	-1	-1	-1	0	0	0	0	0	0	-1	-1	-1	0	0	0	0	0	0	0.262371	0.0903102	0.277478	18.9939	57.2214	166.241	175.813	-71.0061	0.0000000E+000	0.0000000E+000	0.0000000E+000	71.0061	0.0000000E+000	0.0000000E+000	0.0000000E+000	-71.0061	0.0000000E+000	0.0000000E+000	0.0000000E+000	-18.9939	0.0000000E+000	0.0000000E+000	0.0000000E+000	18.9939	2.90522	71.0061	7.34947e-06
199544	3.3929	1.0581	3.55406	-17.3204	613.358	0.459402	-0.00280799	0.753803	0.0668124	1	38	0.0145717	0.00410001	0	6.65199e-06	-1	-1	-1	0	0	0	0	0	0	-1	-1	-1	0	0	0	0	0	0	0.268609	0.0837673	0.281368	17.3204	66.8124	214.242	224.418	-72.6796	0.0000000E+000	0.0000000E+000	0.0000000E+000	72.6796	0.0000000E+000	0.0000000E+000	0.0000000E+000	-72.6796	0.0000000E+000	0.0000000E+000	0.0000000E+000	-17.3204	0.0000000E+000	0.0000000E+000	0.0000000E+000	17.3204	3.20661	72.6796	-2.6179e-06
158486	3.38873	1.001	3.53348	-16.4566	614.505	0.459399	-0.00183233	1.00322	0.0805111	1	38	0.014589	0.00412878	0	1.26515e-05	-1	-1	-1	0	0	0	0	0	0	-1	-1	-1	0	0	0	0	0	0	0.271413	0.0801728	0.283007	16.4566	80.5111	272.559	284.201	-73.5434	0.0000000E+000	0.0000000E+000	0.0000000E+000	73.5434	0.0000000E+000	0.0000000E+000	0.0000000E+000	-73.5434	0.0000000E+000	0.0000000E+000	0.0000000E+000	-16.4566	0.0000000E+000	0.0000000E+000	0.0000000E+000	16.4566	3.38535	73.5434	5.99956e-06
125909	3.38723	1.00745	3.53388	-16.5639	615.653	0.459396	-0.0018975	1.25469	0.101973	1	38	0.0145715	0.00412336	0	1.87032e-05	-1	-1	-1	0	0	0	0	0	0	-1	-1	-1	0	0	0	0	0	0	0.271232	0.0806719	0.282975	16.5639	101.973	342.85	357.693	-73.4361	0.0000000E+000	0.0000000E+000	0.0000000E+000	73.4361	0.0000000E+000	0.0000000E+000	0.0000000E+000	-73.4361	0.0000000E+000	0.0000000E+000	0.0000000E+000	-16.5639	0.0000000E+000	0.0000000E+000	0.0000000E+000	16.5639	3.36217	73.4361	6.05165e-06
100004	3.40112	1.05706	3.5616	-17.2652	616.8	0.459402	-0.00273164	1.50558	0.132622	1	38	0.0145883	0.00409598	0	2.09662e-05	0.44333	0.2241	8.72496	1.2341e-05	3.50282e-05	3.92043e-05	1.97978e-05	1.66096e-05	1.70454e-05	0.0676676	0.034943	0.691735	1.96492e-06	1.44632e-06	5.58262e-07	5.80272e-07	6.7651e-07	5.78846e-07	0.268121	0.0833317	0.280772	17.2652	132.622	426.712	446.846	-72.7348	0.0000000E+000	0.0000000E+000	0.0000000E+000	72.7348	0.0000000E+000	0.0000000E+000	0.0000000E+000	-72.7348	0.0000000E+000	0.0000000E+000	0.0000000E+000	-17.2652	0.0000000E+000	0.0000000E+000	0.0000000E+000	17.2652	3.21752	72.7348	2.26299e-06
79433.3	3.41598	1.15092	3.60465	-18.6198	617.948	0.459377	-0.00191053	1.7409	0.177474	1	38	0.0145751	0.00404343	0	2.02936e-05	0.393343	0.199375	8.96095	1.80815e-05	1.69932e-05	1.22315e-05	2.4323e-05	2.97037e-05	2.74487e-05	0.0602594	0.0237084	0.705758	1.37293e-06	1.65904e-06	4.26899e-07	3.75428e-07	6.46385e-07	5.64909e-07	0.262899	0.0885764	0.277419	18.6198	177.474	526.752	555.846	-71.3802	0.0000000E+000	0.0000000E+000	0.0000000E+000	71.3802	0.0000000E+000	0.0000000E+000	0.0000000E+000	-71.3802	0.0000000E+000	0.0000000E+000	0.0000000E+000	-18.6198	0.0000000E+000	0.0000000E+000	0.0000000E+000	18.6198	2.96805	71.3802	-6.72585e-07
63093.8	3.45025	1.31139	3.69107	-20.811	619.094	0.459397	-0.00241327	1.92354	0.242807	1	38	0.0146148	0.00395951	0	2.04229e-05	0.445774	0.263071	8.81359	3.31811e-05	2.09795e-05	2.78965e-05	3.01124e-05	1.65597e-05	2.26264e-05	0.0546992	0.0330541	0.721198	1.09846e-06	1.23456e-06	7.95488e-07	8.01532e-07	5.41358e-07	2.25389e-07	0.253248	0.0962558	0.270924	20.811	242.807	638.822	683.409	-69.189	0.0000000E+000	0.0000000E+000	0.0000000E+000	69.189	0.0000000E+000	0.0000000E+000	0.0000000E+000	-69.189	0.0000000E+000	0.0000000E+000	0.0000000E+000	-20.811	0.0000000E+000	0.0000000E+000	0.0000000E+000	20.811	2.63099	69.189	1.29314e-07
50122.5	3.48001	1.52703	3.8003	-23.6919	620.24	0.459405	-0.00211162	2.07941	0.335737	1	38	0.01459	0.00383916	0	1.53619e-05	0.549284	0.252376	8.88615	3.27722e-05	3.44094e-05	2.57641e-05	2.37331e-05	4.14196e-05	2.07837e-05	0.0556709	0.0319935	0.748349	6.85968e-07	1.14239e-06	5.8016e-07	6.57504e-07	1.04864e-06	5.87327e-07	0.24096	0.105733	0.263137	23.6919	335.737	765.124	835.544	-66.3081	0.0000000E+000	0.0000000E+000	0.0000000E+000	66.3081	0.0000000E+000	0.0000000E+000	0.0000000E+000	-66.3081	0.0000000E+000	0.0000000E+000	0.0000000E+000	-23.6919	0.0000000E+000	0.0000000E+000	0.0000000E+000	23.6919	2.27894	66.3081	-5.061e-06
39814.1	3.53385	1.81238	3.9715	-27.1517	621.388	0.459385	-0.00169083	2.20563	0.459329	1	38	0.0146667	0.00369298	0	1.10426e-05	0.493417	0.265434	8.84211	2.69267e-05	4.70209e-05	2.40429e-05	2.57823e-05	1.61099e-05	2.1089e-05	0.0621196	0.0604389	0.768602	1.31734e-06	1.14111e-06	7.38778e-07	8.66947e-07	5.62697e-07	6.00972e-07	0.224047	0.114905	0.251794	27.1517	459.329	895.616	1006.53	-62.8483	0.0000000E+000	0.0000000E+000	0.0000000E+000	62.8483	0.0000000E+000	0.0000000E+000	0.0000000E+000	-62.8483	0.0000000E+000	0.0000000E+000	0.0000000E+000	-27.1517	0.0000000E+000	0.0000000E+000	0.0000000E+000	27.1517	1.94983	62.8483	-4.3193e-06
31621.1	3.58297	2.17238	4.1901	-31.2288	622.536	0.459386	-0.00187703	2.31689	0.622775	1	38	0.0146488	0.00349606	0	1.00245e-05	0.536903	0.201538	8.6179	3.5712e-05	3.37396e-05	3.33598e-05	1.62052e-05	2.89627e-05	2.72406e-05	0.0584164	0.0455603	0.822446	7.48078e-07	1.10712e-06	8.87508e-07	5.27269e-07	7.78522e-07	5.05197e-07	0.204077	0.123734	0.238658	31.2288	622.775	1027.16	1201.21	-58.7712	0.0000000E+000	0.0000000E+000	0.0000000E+000	58.7712	0.0000000E+000	0.0000000E+000	0.0000000E+000	-58.7712	0.0000000E+000	0.0000000E+000	0.0000000E+000	-31.2288	0.0000000E+000	0.0000000E+000	0.0000000E+000	31.2288	1.64933	58.7712	-1.0181e-06
25116.9	3.65603	2.6419	4.51067	-35.8525	623.683	0.459389	-0.00220847	2.39848	0.822788	1	38	0.0147454	0.003269	0	6.8035e-06	0.478457	0.208122	8.74485	3.15695e-05	3.06048e-05	1.87206e-05	2.29923e-05	2.26122e-05	3.0185e-05	0.0475052	0.0697618	0.884634	5.45296e-07	1.01121e-06	5.76048e-07	2.37866e-07	3.87866e-07	5.65965e-07	0.179691	0.129848	0.221696	35.8525	822.788	1138.62	1404.79	-54.1475	0.0000000E+000	0.0000000E+000	0.0000000E+000	54.1475	0.0000000E+000	0.0000000E+000	0.0000000E+000	-54.1475	0.0000000E+000	0.0000000E+000	0.0000000E+000	-35.8525	0.0000000E+000	0.0000000E+000	0.0000000E+000	35.8525	1.38386	54.1475	-3.22101e-06
19948.8	3.73758	3.21059	4.92722	-40.6627	624.829	0.459396	-0.000812041	2.48495	1.05508	1	38	0.0147841	0.0030005	0	7.09961e-06	0.444601	0.287651	8.59778	2.76145e-05	1.64922e-05	2.42532e-05	2.4401e-05	2.63381e-05	2.5129e-05	0.0758106	0.045144	0.95464	1.19283e-06	6.38624e-07	1.36911e-06	2.10682e-07	5.02431e-07	6.28055e-07	0.153953	0.132246	0.202954	40.6627	1055.08	1228.26	1619.21	-49.3373	0.0000000E+000	0.0000000E+000	0.0000000E+000	49.3373	0.0000000E+000	0.0000000E+000	0.0000000E+000	-49.3373	0.0000000E+000	0.0000000E+000	0.0000000E+000	-40.6627	0.0000000E+000	0.0000000E+000	0.0000000E+000	40.6627	1.16414	49.3373	2.96105e-07
15847.7	3.86105	3.93472	5.51269	-45.5414	625.976	0.459397	-0.00090514	2.55235	1.30029	1	38	0.0148196	0.00268827	0	5.09258e-06	0.521988	0.361594	8.73164	3.99296e-05	2.19256e-05	2.76558e-05	2.61442e-05	3.1177e-05	3.02368e-05	0.108011	0.0406402	1.07528	2.31999e-06	1.0502e-06	5.48372e-07	4.55141e-07	6.94251e-07	7.34684e-07	0.127051	0.129475	0.1814	45.5414	1300.29	1275.95	1821.76	-44.4586	0.0000000E+000	0.0000000E+000	0.0000000E+000	44.4586	0.0000000E+000	0.0000000E+000	0.0000000E+000	-44.4586	0.0000000E+000	0.0000000E+000	0.0000000E+000	-45.5414	0.0000000E+000	0.0000000E+000	0.0000000E+000	45.5414	0.981278	44.4586	-2.00702e-06
12590.9	3.99934	4.83343	6.27349	-50.3945	627.123	0.459378	-0.00104107	2.61521	1.55238	1	38	0.0147731	0.00235484	0	5.18046e-07	0.527143	0.229485	8.79822	3.52194e-05	3.11952e-05	3.37615e-05	2.95014e-05	1.82033e-05	1.70143e-05	0.123627	0.039986	1.20805	2.50526e-06	9.067e-07	6.13091e-07	2.12823e-07	4.23698e-07	5.63704e-07	0.101618	0.122811	0.159401	50.3945	1552.38	1284.49	2014.9	-39.6055	0.0000000E+000	0.0000000E+000	0.0000000E+000	39.6055	0.0000000E+000	0.0000000E+000	0.0000000E+000	-39.6055	0.0000000E+000	0.0000000E+000	0.0000000E+000	-50.3945	0.0000000E+000	0.0000000E+000	0.0000000E+000	50.3945	0.827432	39.6055	-4.57454e-06
10002.2	4.18858	5.93827	7.26686	-54.8026	628.27	0.45939	-0.00129617	2.67956	1.78933	1	38	0.0146273	0.00201288	0	-7.90955e-07	0.564736	0.166608	8.60986	4.08906e-05	2.64641e-05	1.67059e-05	3.88451e-05	2.792e-05	2.67753e-05	0.209218	0.0400255	1.44548	3.83771e-06	7.62895e-07	4.3876e-07	7.81426e-07	7.36272e-07	5.6422e-07	0.0793182	0.112452	0.137611	54.8026	1789.33	1262.11	2189.66	-35.1974	0.0000000E+000	0.0000000E+000	0.0000000E+000	35.1974	0.0000000E+000	0.0000000E+000	0.0000000E+000	-35.1974	0.0000000E+000	0.0000000E+000	0.0000000E+000	-54.8026	0.0000000E+000	0.0000000E+000	0.0000000E+000	54.8026	0.705353	35.1974	-1.309e-06
7944	4.43889	7.29339	8.53799	-58.6746	629.446	0.459251	-0.00145071	2.74696	2.00447	1	38	0.0145532	0.00170453	0	-2.63805e-07	0.553076	0.245697	8.81526	4.00055e-05	2.80523e-05	1.71167e-05	3.97869e-05	2.78144e-05	2.1603e-05	0.320039	0.0480117	1.66701	5.30303e-06	7.41182e-07	3.932e-07	4.56631e-07	2.99421e-07	6.67915e-07	0.0608924	0.10005	0.117124	58.6746	2004.47	1219.96	2346.53	-31.3254	0.0000000E+000	0.0000000E+000	0.0000000E+000	31.3254	0.0000000E+000	0.0000000E+000	0.0000000E+000	-31.3254	0.0000000E+000	0.0000000E+000	0.0000000E+000	-58.6746	0.0000000E+000	0.0000000E+000	0.0000000E+000	58.6746	0.608618	31.3254	5.2715e-07
6307.74	4.75581	8.97841	10.1602	-62.0901	630.498	0.459259	-0.00187524	2.81026	2.19453	1	38	0.0143537	0.00141274	0	-6.61839e-07	0.536211	0.270756	9.17682	4.1549e-05	4.80866e-05	2.23049e-05	1.6807e-05	1.09943e-05	1.60645e-05	0.473311	0.0674501	2.05403	6.26571e-06	1.84106e-06	6.88671e-07	5.99305e-07	2.12811e-07	8.25951e-07	0.0460702	0.0869752	0.0984233	62.0901	2194.53	1162.43	2483.39	-27.9099	0.0000000E+000	0.0000000E+000	0.0000000E+000	27.9099	0.0000000E+000	0.0000000E+000	0.0000000E+000	-27.9099	0.0000000E+000	0.0000000E+000	0.0000000E+000	-62.0901	0.0000000E+000	0.0000000E+000	0.0000000E+000	62.0901	0.529694	27.9099	-3.98034e-07
5011.6	5.16525	11.0229	12.1731	-64.8926	631.617	0.459288	-0.00216198	2.88103	2.36231	1	38	0.0136121	0.00111822	0	-1.76409e-06	0.526696	0.271693	9.38078	3.34845e-05	2.54389e-05	2.61461e-05	3.39125e-05	1.17453e-05	2.5211e-05	0.635364	0.0797915	2.59704	6.74975e-06	1.65691e-06	9.07059e-07	3.92374e-07	5.31802e-07	6.08405e-07	0.034857	0.0743865	0.0821484	64.8926	2362.31	1106.96	2608.81	-25.1074	0.0000000E+000	0.0000000E+000	0.0000000E+000	25.1074	0.0000000E+000	0.0000000E+000	0.0000000E+000	-25.1074	0.0000000E+000	0.0000000E+000	0.0000000E+000	-64.8926	0.0000000E+000	0.0000000E+000	0.0000000E+000	64.8926	0.468593	25.1074	-1.10225e-06
3981.28	5.67197	13.5318	14.6725	-67.2586	632.723	0.459264	-0.00170395	2.95421	2.51274	1	38	0.0129517	0.00088272	0	-1.90785e-06	0.596168	0.228105	9.86808	2.86846e-05	2.50143e-05	2.33917e-05	3.38724e-05	2.64679e-05	3.78403e-05	0.669795	0.163622	3.32021	5.28217e-06	2.34346e-06	6.8618e-07	7.07496e-07	3.50537e-07	3.84396e-07	0.0263468	0.0628565	0.0681549	67.2586	2512.74	1053.24	2724.55	-22.7414	0.0000000E+000	0.0000000E+000	0.0000000E+000	22.7414	0.0000000E+000	0.0000000E+000	0.0000000E+000	-22.7414	0.0000000E+000	0.0000000E+000	0.0000000E+000	-67.2586	0.0000000E+000	0.0000000E+000	0.0000000E+000	67.2586	0.419159	22.7414	-1.4376e-07
3163.04	6.35294	16.5848	17.7599	-69.0403	634.05	0.459274	-0.00209497	3.03393	2.64571	1	38	0.0139705	0.000786629	0	-2.50783e-06	0.659162	0.327083	9.2901	7.27248e-05	3.91527e-05	2.0175e-05	7.85449e-06	1.82981e-05	2.41279e-05	0.745569	0.114873	3.67381	5.06056e-06	2.53341e-06	5.09442e-07	1.0536e-06	6.79369e-07	3.43531e-07	0.0201415	0.0525808	0.0563065	69.0403	2645.71	1013.46	2833.18	-20.9597	0.0000000E+000	0.0000000E+000	0.0000000E+000	20.9597	0.0000000E+000	0.0000000E+000	0.0000000E+000	-20.9597	0.0000000E+000	0.0000000E+000	0.0000000E+000	-69.0403	0.0000000E+000	0.0000000E+000	0.0000000E+000	69.0403	0.383058	20.9597	-5.99982e-07
2512.41	7.20062	20.2833	21.5235	-70.455	635.156	0.459268	-0.00197208	3.12314	2.77359	1	38	0.0135991	0.000631827	0	-2.67323e-06	0.534272	0.285462	9.37706	1.92e-05	2.28755e-05	1.95516e-05	2.61691e-05	2.07817e-05	4.67062e-05	0.90631	0.172361	4.50943	4.4805e-06	2.96509e-06	6.74204e-07	1.53814e-06	5.24779e-07	7.28583e-07	0.0155434	0.0437838	0.0464609	70.455	2773.59	984.633	2943.18	-19.545	0.0000000E+000	0.0000000E+000	0.0000000E+000	19.545	0.0000000E+000	0.0000000E+000	0.0000000E+000	-19.545	0.0000000E+000	0.0000000E+000	0.0000000E+000	-70.455	0.0000000E+000	0.0000000E+000	0.0000000E+000	70.455	0.355003	19.545	-1.65404e-07
1995.64	8.30764	24.758	26.1146	-71.4506	636.261	0.459266	-0.00180823	3.22124	2.89525	1	38	0.0133348	0.000510625	0	-3.63652e-06	0.675334	0.220198	9.91567	2.56964e-05	3.82065e-05	2.99081e-05	4.3296e-05	3.02943e-05	3.99983e-05	0.869683	0.215254	5.6607	3.30893e-06	2.56082e-06	3.55336e-07	1.26128e-06	2.9953e-07	4.39282e-07	0.0121818	0.0363034	0.0382927	71.4506	2895.25	971.513	3053.9	-18.5494	0.0000000E+000	0.0000000E+000	0.0000000E+000	18.5494	0.0000000E+000	0.0000000E+000	0.0000000E+000	-18.5494	0.0000000E+000	0.0000000E+000	0.0000000E+000	-71.4506	0.0000000E+000	0.0000000E+000	0.0000000E+000	71.4506	0.335555	18.5494	-9.63283e-07
1584.49	9.6573	30.2892	31.7915	-72.3158	637.368	0.459253	-0.00160529	3.31621	3.0102	1	38	0.0131947	0.000415039	0	-3.75223e-06	0.450349	0.219402	9.8337	2.98393e-05	2.09216e-05	1.21197e-05	1.8497e-05	2.42115e-05	2.73532e-05	1.02899	0.159206	6.87796	3.35306e-06	1.64295e-06	2.86875e-07	1.7902e-06	6.37941e-07	4.69616e-07	0.00955505	0.0299685	0.0314549	72.3158	3010.2	959.761	3159.5	-17.6842	0.0000000E+000	0.0000000E+000	0.0000000E+000	17.6842	0.0000000E+000	0.0000000E+000	0.0000000E+000	-17.6842	0.0000000E+000	0.0000000E+000	0.0000000E+000	-72.3158	0.0000000E+000	0.0000000E+000	0.0000000E+000	72.3158	0.318836	17.6842	-1.1571e-07
1258.79	11.4278	36.9114	38.6399	-72.7974	638.727	0.459304	-0.000480505	3.42536	3.12575	1	39	0.0147181	0.000380904	0	-4.50587e-06	0.57516	0.301981	8.45074	3.94974e-05	4.10363e-05	3.00378e-05	1.56508e-05	2.45522e-05	3.81752e-05	1.32202	0.136676	3.41863	4.43508e-06	2.299e-06	1.15182e-07	5.39853e-07	1.87933e-07	1.68311e-07	0.00765402	0.0247222	0.02588	72.7974	3125.75	967.735	3272.13	-17.2026	0.0000000E+000	0.0000000E+000	0.0000000E+000	17.2026	0.0000000E+000	0.0000000E+000	0.0000000E+000	-17.2026	0.0000000E+000	0.0000000E+000	0.0000000E+000	-72.7974	0.0000000E+000	0.0000000E+000	0.0000000E+000	72.7974	0.309601	17.2025	-7.53642e-07
999.682	13.7515	44.9788	47.034	-72.9999	639.834	0.459223	-3.33853e-05	3.53957	3.237	1	39	0.014053	0.000298784	0	-4.68774e-06	0.478422	0.24937	9.02712	1.52006e-05	3.87928e-05	3.4642e-05	1.63257e-05	2.10691e-05	2.56231e-05	1.16711	0.119257	4.4445	2.8315e-06	1.82397e-06	1.88629e-07	7.99896e-07	2.78994e-07	1.89561e-07	0.00621623	0.0203322	0.0212612	72.9999	3237	989.658	3384.9	-17.0001	0.0000000E+000	0.0000000E+000	0.0000000E+000	17.0001	0.0000000E+000	0.0000000E+000	0.0000000E+000	-17.0001	0.0000000E+000	0.0000000E+000	0.0000000E+000	-72.9999	0.0000000E+000	0.0000000E+000	0.0000000E+000	72.9999	0.305733	17.0002	-1.81875e-07
794.239	16.3487	54.6057	57.0005	-73.3325	640.94	0.459234	-0.000162733	3.6697	3.36782	1	39	0.0136194	0.000238935	0	-4.78929e-06	0.631021	0.424077	9.18645	2.4363e-05	4.79198e-05	4.01374e-05	3.19855e-05	2.13057e-05	2.11185e-05	1.08796	0.229048	5.49022	1.98569e-06	1.067e-06	2.37472e-07	1.19029e-06	1.69941e-07	3.32768e-07	0.00503183	0.0168066	0.0175437	73.3325	3367.82	1008.31	3515.52	-16.6675	0.0000000E+000	0.0000000E+000	0.0000000E+000	16.6675	0.0000000E+000	0.0000000E+000	0.0000000E+000	-16.6675	0.0000000E+000	0.0000000E+000	0.0000000E+000	-73.3325	0.0000000E+000	0.0000000E+000	0.0000000E+000	73.3325	0.299396	16.6675	-1.01549e-07
631.01	19.7085	66.1386	69.0126	-73.4066	642.045	0.459276	-0.000158074	3.81355	3.50253	1	39	0.0133502	0.000193446	0	-4.71848e-06	0.572537	0.227549	9.32878	1.87175e-05	4.56669e-05	2.28432e-05	3.0517e-05	3.49615e-05	1.07697e-05	1.08419	0.19871	6.74312	1.62903e-06	7.47126e-07	1.9903e-07	9.91599e-07	3.16339e-07	1.12712e-07	0.00413806	0.0138867	0.0144901	73.4066	3502.53	1043.71	3654.73	-16.5934	0.0000000E+000	0.0000000E+000	0.0000000E+000	16.5934	0.0000000E+000	0.0000000E+000	0.0000000E+000	-16.5934	0.0000000E+000	0.0000000E+000	0.0000000E+000	-73.4066	0.0000000E+000	0.0000000E+000	0.0000000E+000	73.4066	0.297988	16.5934	7.08162e-08
501.122	24.409	80.4051	84.0285	-73.113	643.15	0.459257	0.000440387	3.94996	3.61666	1	39	0.0132016	0.000157109	0	-4.63939e-06	0.471182	0.257178	9.75719	2.70287e-05	3.49919e-05	1.76547e-05	2.71134e-05	2.29349e-05	1.41031e-05	1.06042	0.242262	8.41106	1.2072e-06	6.75381e-07	2.5636e-07	8.06555e-07	1.64434e-07	2.24616e-07	0.00345698	0.0113876	0.0119007	73.113	3616.66	1097.93	3779.64	-16.887	0.0000000E+000	0.0000000E+000	0.0000000E+000	16.887	0.0000000E+000	0.0000000E+000	0.0000000E+000	-16.887	0.0000000E+000	0.0000000E+000	0.0000000E+000	-73.113	0.0000000E+000	0.0000000E+000	0.0000000E+000	73.113	0.303575	16.887	7.9086e-08
398.089	29.8042	97.0279	101.502	-72.9246	644.258	0.459279	-0.000113719	4.12044	3.76518	1	39	0.0130764	0.000128829	0	-4.61677e-06	0.48889	0.349375	9.69434	2.49343e-05	1.77593e-05	2.92613e-05	2.40169e-05	1.37405e-05	3.64778e-05	1.12396	0.390376	10.3977	1.02266e-06	6.60105e-07	3.6125e-07	4.92122e-07	2.83349e-07	2.72736e-07	0.00289285	0.00941772	0.009852	72.9246	3765.18	1156.55	3938.8	-17.0754	0.0000000E+000	0.0000000E+000	0.0000000E+000	17.0754	0.0000000E+000	0.0000000E+000	0.0000000E+000	-17.0754	0.0000000E+000	0.0000000E+000	0.0000000E+000	-72.9246	0.0000000E+000	0.0000000E+000	0.0000000E+000	72.9246	0.307171	17.0754	2.26193e-08
316.316	36.3297	117.358	122.853	-72.7994	645.362	0.459302	-0.000317059	4.28732	3.9124	1	39	0.01302	0.00010598	0	-4.67967e-06	0.555804	0.233515	10.1512	1.56349e-05	2.31326e-05	3.44599e-05	3.62127e-05	2.26259e-05	3.24387e-05	1.06616	0.320122	12.7944	7.3314e-07	6.12353e-07	3.36813e-07	2.95382e-07	1.77279e-07	3.09449e-07	0.00240709	0.00777578	0.00813983	72.7994	3912.4	1211.13	4095.57	-17.2006	0.0000000E+000	0.0000000E+000	0.0000000E+000	17.2006	0.0000000E+000	0.0000000E+000	0.0000000E+000	-17.2006	0.0000000E+000	0.0000000E+000	0.0000000E+000	-72.7994	0.0000000E+000	0.0000000E+000	0.0000000E+000	72.7994	0.309562	17.2006	-6.28944e-08
251.206	45.2516	141.4	148.465	-72.2541	646.467	0.459278	0.000133792	4.48063	4.06438	1	39	0.012975	8.73946e-05	0	-4.55803e-06	0.494784	0.303386	10.0963	2.09143e-05	1.7432e-05	1.99533e-05	2.05611e-05	2.96536e-05	3.03918e-05	1.09915	0.344958	15.5073	4.56666e-07	3.37565e-07	1.88344e-07	6.15105e-07	2.93525e-07	2.14009e-07	0.00205299	0.00641511	0.0067356	72.2541	4064.38	1300.7	4267.43	-17.7459	0.0000000E+000	0.0000000E+000	0.0000000E+000	17.7459	0.0000000E+000	0.0000000E+000	0.0000000E+000	-17.7459	0.0000000E+000	0.0000000E+000	0.0000000E+000	-72.2541	0.0000000E+000	0.0000000E+000	0.0000000E+000	72.2541	0.320025	17.7459	1.21638e-07
199.553	55.9945	170.186	179.161	-71.7878	647.575	0.459304	-0.000119126	4.68637	4.22861	1	39	0.0129377	7.22126e-05	0	-4.55675e-06	0.505688	0.223967	9.71584	1.83479e-05	2.48671e-05	2.57371e-05	3.84618e-05	2.534e-05	1.59665e-05	1.24981	0.458092	18.2873	4.48616e-07	4.5565e-07	2.40385e-07	3.4351e-07	3.15983e-07	1.96385e-07	0.00174445	0.00530196	0.00558157	71.7878	4228.61	1391.29	4451.61	-18.2122	0.0000000E+000	0.0000000E+000	0.0000000E+000	18.2122	0.0000000E+000	0.0000000E+000	0.0000000E+000	-18.2122	0.0000000E+000	0.0000000E+000	0.0000000E+000	-71.7878	0.0000000E+000	0.0000000E+000	0.0000000E+000	71.7878	0.329019	18.2122	1.28053e-09
158.529	69.5771	203.9	215.444	-71.1587	648.686	0.45927	0.000239841	4.92374	4.41022	1	39	0.012905	5.98997e-05	0	-4.51929e-06	0.448494	0.270699	9.75667	1.62112e-05	2.56698e-05	1.26088e-05	2.1137e-05	2.91411e-05	2.75968e-05	1.43266	0.439762	21.9015	5.5839e-07	3.61616e-07	2.14237e-07	2.41058e-07	3.16109e-07	2.1593e-07	0.00149899	0.00439287	0.00464158	71.1587	4410.22	1504.91	4659.91	-18.8413	0.0000000E+000	0.0000000E+000	0.0000000E+000	18.8413	0.0000000E+000	0.0000000E+000	0.0000000E+000	-18.8413	0.0000000E+000	0.0000000E+000	0.0000000E+000	-71.1587	0.0000000E+000	0.0000000E+000	0.0000000E+000	71.1587	0.341232	18.8413	3.74541e-08
125.927	86.5854	244.57	259.445	-70.5045	650.042	0.459222	1.38008e-05	5.16771	4.59214	1	40	0.0131785	5.07949e-05	0	-4.50132e-06	0.786553	0.428	15.0131	5.90993e-05	2.41137e-05	4.9649e-05	2.3244e-05	3.78558e-05	3.69982e-05	0.96765	0.163202	5.14812	3.50656e-07	2.30466e-07	6.15637e-08	2.32199e-07	3.72675e-08	5.11248e-08	0.00128633	0.0036334	0.00385438	70.5045	4592.14	1625.76	4871.43	-19.4955	0.0000000E+000	0.0000000E+000	0.0000000E+000	19.4955	0.0000000E+000	0.0000000E+000	0.0000000E+000	-19.4955	0.0000000E+000	0.0000000E+000	0.0000000E+000	-70.5045	0.0000000E+000	0.0000000E+000	0.0000000E+000	70.5045	0.354031	19.4955	1.79758e-08
99.9682	107.338	293.329	312.351	-69.9009	651.123	0.459264	-4.83571e-05	5.42754	4.7866	1	40	0.0130867	4.18973e-05	0	-4.51475e-06	0.71887	0.344868	15.3682	2.39012e-05	2.89427e-05	4.12064e-05	2.66497e-05	4.31617e-05	4.19777e-05	0.986949	0.133592	6.33724	3.02123e-07	1.82327e-07	5.63688e-08	1.75637e-07	8.9159e-08	4.87056e-08	0.00110019	0.00300655	0.00320152	69.9009	4786.6	1751.56	5097.01	-20.0991	0.0000000E+000	0.0000000E+000	0.0000000E+000	20.0991	0.0000000E+000	0.0000000E+000	0.0000000E+000	-20.0991	0.0000000E+000	0.0000000E+000	0.0000000E+000	-69.9009	0.0000000E+000	0.0000000E+000	0.0000000E+000	69.9009	0.36593	20.0991	-1.34306e-08
79.4157	134.534	349.542	374.538	-68.9489	652.193	0.459277	-1.94113e-05	5.73343	4.99367	1	40	0.012999	3.47067e-05	0	-4.48826e-06	0.900309	0.432839	15.5438	6.38754e-05	5.53067e-05	3.61001e-05	4.5747e-05	2.58673e-05	3.40044e-05	0.855636	0.213641	7.67197	2.229e-07	1.35968e-07	4.69711e-08	1.12683e-07	3.63169e-08	2.78676e-08	0.000959049	0.00249176	0.00266995	68.9489	4993.68	1922	5350.78	-21.0511	0.0000000E+000	0.0000000E+000	0.0000000E+000	21.0511	0.0000000E+000	0.0000000E+000	0.0000000E+000	-21.0511	0.0000000E+000	0.0000000E+000	0.0000000E+000	-68.9489	0.0000000E+000	0.0000000E+000	0.0000000E+000	68.9489	0.384888	21.0511	2.64894e-08
63.0823	167.923	417.394	449.907	-68.0844	653.276	0.459309	-8.45496e-05	6.04459	5.20253	1	40	0.0129817	2.88542e-05	0	-4.50715e-06	0.979179	0.375613	15.3459	4.7118e-05	2.90483e-05	5.23569e-05	4.03273e-05	5.85242e-05	5.55599e-05	1.21788	0.167268	9.01769	2.72e-07	1.05639e-07	8.02609e-08	1.24476e-07	8.42732e-08	5.73678e-08	0.000829594	0.00206206	0.00222268	68.0844	5202.53	2093.04	5607.77	-21.9156	0.0000000E+000	0.0000000E+000	0.0000000E+000	21.9156	0.0000000E+000	0.0000000E+000	0.0000000E+000	-21.9156	0.0000000E+000	0.0000000E+000	0.0000000E+000	-68.0844	0.0000000E+000	0.0000000E+000	0.0000000E+000	68.0844	0.402313	21.9156	-1.8891e-08
50.1122	209.717	493.441	536.157	-66.9741	654.341	0.459278	-4.96057e-05	6.43638	5.45163	1	40	0.0129249	2.41065e-05	0	-4.51858e-06	0.822475	0.437541	15.8858	5.26856e-05	4.19189e-05	4.25789e-05	1.89071e-05	3.62148e-05	4.23218e-05	0.899132	0.295004	11.3435	1.41138e-07	9.79821e-08	5.94443e-08	6.26166e-08	4.52176e-08	5.7442e-08	0.000729539	0.00171653	0.00186512	66.9741	5451.63	2317	5923.58	-23.0259	0.0000000E+000	0.0000000E+000	0.0000000E+000	23.0259	0.0000000E+000	0.0000000E+000	0.0000000E+000	-23.0259	0.0000000E+000	0.0000000E+000	0.0000000E+000	-66.9741	0.0000000E+000	0.0000000E+000	0.0000000E+000	66.9741	0.425009	23.0259	-1.14296e-08
39.8089	265.767	583.471	641.148	-65.5111	655.41	0.459269	-3.2376e-05	6.85205	5.67469	1	40	0.0129092	2.01345e-05	0	-4.52088e-06	0.847427	0.461312	15.4508	3.86411e-05	3.91914e-05	4.30595e-05	4.26601e-05	3.59089e-05	5.22738e-05	1.23613	0.422781	12.8293	1.86682e-07	1.1548e-07	6.0785e-08	5.02299e-08	5.09613e-08	5.09123e-08	0.000646524	0.00141939	0.0015597	65.5111	5674.69	2584.79	6235.65	-24.4889	0.0000000E+000	0.0000000E+000	0.0000000E+000	24.4889	0.0000000E+000	0.0000000E+000	0.0000000E+000	-24.4889	0.0000000E+000	0.0000000E+000	0.0000000E+000	-65.5111	0.0000000E+000	0.0000000E+000	0.0000000E+000	65.5111	0.455493	24.489	-2.30139e-09
31.6296	331.601	685.152	761.178	-64.1739	656.451	0.459287	-5.34989e-05	7.34412	5.95033	1	40	0.0128854	1.69282e-05	0	-4.52639e-06	0.821238	0.635303	15.7821	2.76691e-05	3.60959e-05	2.59769e-05	4.10351e-05	4.90461e-05	4.62357e-05	1.17775	0.52286	15.8231	1.22952e-07	7.96828e-08	5.17614e-08	6.76609e-08	5.10439e-08	7.16803e-08	0.000572325	0.00118254	0.00131375	64.1739	5950.33	2879.85	6610.59	-25.8261	0.0000000E+000	0.0000000E+000	0.0000000E+000	25.8261	0.0000000E+000	0.0000000E+000	0.0000000E+000	-25.8261	0.0000000E+000	0.0000000E+000	0.0000000E+000	-64.1739	0.0000000E+000	0.0000000E+000	0.0000000E+000	64.1739	0.483981	25.8261	-5.51399e-09
25.1206	419.811	802.454	905.634	-62.3833	657.519	0.459286	-7.45846e-05	7.89532	6.19876	1	40	0.0129003	1.42445e-05	0	-4.56799e-06	0.83428	0.43409	15.9598	3.29731e-05	6.02942e-05	4.50064e-05	2.9942e-05	2.68556e-05	3.66602e-05	1.35192	0.559852	18.8857	1.20116e-07	8.75648e-08	6.02754e-08	5.4474e-08	3.51861e-08	6.56022e-08	0.000511856	0.000978396	0.0011042	62.3833	6198.76	3242.93	6995.8	-27.6167	0.0000000E+000	0.0000000E+000	0.0000000E+000	27.6167	0.0000000E+000	0.0000000E+000	0.0000000E+000	-27.6167	0.0000000E+000	0.0000000E+000	0.0000000E+000	-62.3833	0.0000000E+000	0.0000000E+000	0.0000000E+000	62.3833	0.523158	27.6167	-4.15913e-08
19.9553	530.635	931.058	1071.65	-60.32	658.588	0.459328	-8.81264e-05	8.56613	6.4659	1	40	0.0128835	1.20221e-05	0	-4.57901e-06	0.82013	0.312059	15.6151	5.23885e-05	3.77611e-05	3.6184e-05	3.16714e-05	5.45099e-05	3.16686e-05	1.63111	0.33648	22.1144	1.43134e-07	6.70446e-08	4.47426e-08	4.99193e-08	7.9563e-08	3.42106e-08	0.000462048	0.000810714	0.000933137	60.32	6465.9	3685.09	7442.29	-29.68	0.0000000E+000	0.0000000E+000	0.0000000E+000	29.68	0.0000000E+000	0.0000000E+000	0.0000000E+000	-29.68	0.0000000E+000	0.0000000E+000	0.0000000E+000	-60.32	0.0000000E+000	0.0000000E+000	0.0000000E+000	60.32	0.569927	29.68	-1.10247e-08
15.8469	666.698	1066.03	1257.34	-57.978	659.629	0.459327	-0.000103624	9.42123	6.77236	1	40	0.0128719	1.02374e-05	0	-4.60194e-06	1.03565	0.414378	16.0753	6.12876e-05	5.26385e-05	3.99184e-05	3.22667e-05	5.78382e-05	4.75913e-05	1.8639	0.788244	26.6178	7.67617e-08	6.02467e-08	6.24353e-08	6.70571e-08	9.229e-08	5.828e-08	0.000421719	0.000674316	0.00079533	57.978	6772.36	4235.46	7987.74	-32.022	0.0000000E+000	0.0000000E+000	0.0000000E+000	32.022	0.0000000E+000	0.0000000E+000	0.0000000E+000	-32.022	0.0000000E+000	0.0000000E+000	0.0000000E+000	-57.978	0.0000000E+000	0.0000000E+000	0.0000000E+000	57.978	0.625403	32.022	-2.29267e-08
12.5873	838.163	1207.29	1469.71	-55.2295	661.091	0.45927	-4.73629e-05	10.4731	7.06696	1	41	0.0128808	8.7642e-06	0	-4.55692e-06	0.775001	0.532807	13.829	4.32844e-05	3.18007e-05	4.12559e-05	3.27557e-05	3.56552e-05	3.37706e-05	0.905147	0.131481	4.07665	6.3328e-08	3.62988e-08	1.23885e-08	2.3721e-08	7.94603e-09	7.03242e-09	0.000388028	0.000558914	0.000680405	55.2295	7066.96	4906.26	8603.1	-34.7705	0.0000000E+000	0.0000000E+000	0.0000000E+000	34.7705	0.0000000E+000	0.0000000E+000	0.0000000E+000	-34.7705	0.0000000E+000	0.0000000E+000	0.0000000E+000	-55.2295	0.0000000E+000	0.0000000E+000	0.0000000E+000	55.2295	0.694254	34.7705	4.5019e-08
9.99682	1044.47	1353.11	1709.33	-52.3355	662.151	0.459291	-5.44024e-05	11.7659	7.3729	1	41	0.0128882	7.53992e-06	0	-4.60711e-06	1.11363	0.491786	19.3008	2.90969e-05	3.40959e-05	3.42244e-05	5.79087e-05	5.95029e-05	7.37881e-05	0.904481	0.153425	6.41424	5.71509e-08	2.89479e-08	5.19703e-09	1.09865e-08	8.98559e-09	1.4152e-08	0.00035747	0.000463106	0.000585023	52.3355	7372.9	5691.13	9313.89	-37.6645	0.0000000E+000	0.0000000E+000	0.0000000E+000	37.6645	0.0000000E+000	0.0000000E+000	0.0000000E+000	-37.6645	0.0000000E+000	0.0000000E+000	0.0000000E+000	-52.3355	0.0000000E+000	0.0000000E+000	0.0000000E+000	52.3355	0.771898	37.6645	-5.01952e-08
7.93956	1282.26	1491.33	1966.79	-49.3109	663.36	0.459307	-6.23207e-05	13.4416	7.72829	1	41	0.0128875	6.55256e-06	0	-4.63069e-06	0.82233	0.463265	13.9199	2.71745e-05	5.04652e-05	1.45017e-05	4.14196e-05	5.59255e-05	4.97458e-05	0.871003	0.179368	5.45272	4.81908e-08	1.77717e-08	3.27895e-09	1.51042e-08	1.53807e-08	8.72756e-09	0.000331482	0.000385531	0.000508444	49.3109	7728.29	6644.83	10192.2	-40.6891	0.0000000E+000	0.0000000E+000	0.0000000E+000	40.6891	0.0000000E+000	0.0000000E+000	0.0000000E+000	-40.6891	0.0000000E+000	0.0000000E+000	0.0000000E+000	-49.3109	0.0000000E+000	0.0000000E+000	0.0000000E+000	49.3109	0.859806	40.6891	-2.35778e-08
6.31058	1569.23	1603.48	2243.58	-45.6184	664.744	0.459277	-5.77778e-05	15.7285	8.034	1	41	0.0128967	5.74827e-06	0	-4.59704e-06	0.788459	0.532359	14.0858	3.76386e-05	4.3361e-05	3.46674e-05	3.59275e-05	3.56607e-05	2.81077e-05	0.88031	0.241113	6.3373	4.24232e-08	1.98386e-08	9.1816e-09	1.28464e-08	7.17358e-09	6.96785e-09	0.000311749	0.000318553	0.000445717	45.6184	8034	7862.42	11241.1	-44.3816	0.0000000E+000	0.0000000E+000	0.0000000E+000	44.3816	0.0000000E+000	0.0000000E+000	0.0000000E+000	-44.3816	0.0000000E+000	0.0000000E+000	0.0000000E+000	-45.6184	0.0000000E+000	0.0000000E+000	0.0000000E+000	45.6184	0.978643	44.3816	3.36514e-08
5.01283	1879.88	1684.03	2523.86	-41.8545	666.362	0.459265	-5.18299e-05	18.8533	8.39372	1	41	0.0128826	5.10432e-06	0	-4.62521e-06	0.605742	0.359472	11.4575	2.53443e-05	2.26916e-05	3.14356e-05	1.23539e-05	4.14084e-05	4.1212e-05	0.863246	0.223759	5.80723	3.39032e-08	2.21554e-08	6.24091e-09	1.23588e-08	6.93884e-09	6.39618e-09	0.00029512	0.000264373	0.000396218	41.8545	8393.72	9369.9	12579.7	-48.1455	0.0000000E+000	0.0000000E+000	0.0000000E+000	48.1455	0.0000000E+000	0.0000000E+000	0.0000000E+000	-48.1455	0.0000000E+000	0.0000000E+000	0.0000000E+000	-41.8545	0.0000000E+000	0.0000000E+000	0.0000000E+000	41.8545	1.1163	48.1455	-2.81715e-08
3.9819	2203.87	1730.19	2801.9	-38.1344	668.283	0.4593	-5.75874e-05	23.1012	8.80886	1	41	0.0128853	4.5988e-06	0	-4.71237e-06	0.561628	0.220401	9.83539	1.82374e-05	4.45285e-05	2.49059e-05	2.82995e-05	2.3798e-05	1.54819e-05	0.907941	0.120757	5.66872	3.41352e-08	2.12369e-08	4.50392e-09	6.90226e-09	4.78453e-09	3.75029e-09	0.000280726	0.000220389	0.000356901	38.1344	8808.86	11220.5	14265.2	-51.8656	0.0000000E+000	0.0000000E+000	0.0000000E+000	51.8656	0.0000000E+000	0.0000000E+000	0.0000000E+000	-51.8656	0.0000000E+000	0.0000000E+000	0.0000000E+000	-38.1344	0.0000000E+000	0.0000000E+000	0.0000000E+000	38.1344	1.27377	51.8656	-8.71591e-08
3.16296	2538.51	1719.97	3066.32	-34.1198	670.593	0.459274	-5.03799e-05	29.2553	9.20478	1	41	0.0128718	4.1978e-06	0	-4.67937e-06	0.365509	0.211527	8.72016	1.49386e-05	1.41918e-05	2.11175e-05	1.67398e-05	2.09847e-05	1.98034e-05	0.916902	0.160598	5.47601	3.18477e-08	1.65111e-08	4.5744e-09	1.07716e-08	4.46556e-09	4.43342e-09	0.000269987	0.000182931	0.000326124	34.1198	9204.79	13585.3	16410	-55.8802	0.0000000E+000	0.0000000E+000	0.0000000E+000	55.8802	0.0000000E+000	0.0000000E+000	0.0000000E+000	-55.8802	0.0000000E+000	0.0000000E+000	0.0000000E+000	-34.1198	0.0000000E+000	0.0000000E+000	0.0000000E+000	34.1198	1.4759	55.8802	3.30022e-08
2.51085	2865.09	1671.78	3317.16	-30.2635	673.396	0.459305	-5.33185e-05	37.9159	9.6304	1	41	0.0128796	3.88271e-06	0	-4.72295e-06	0.394517	0.281704	7.37887	1.28429e-05	3.01908e-05	2.14949e-05	9.33886e-06	1.7616e-05	1.60751e-05	0.836271	0.193076	5.11176	2.91883e-08	8.95069e-09	4.11974e-09	7.77768e-09	4.79441e-09	2.63398e-09	0.000260378	0.00015193	0.000301462	30.2635	9630.4	16504.6	19108.8	-59.7365	0.0000000E+000	0.0000000E+000	0.0000000E+000	59.7365	0.0000000E+000	0.0000000E+000	0.0000000E+000	-59.7365	0.0000000E+000	0.0000000E+000	0.0000000E+000	-30.2635	0.0000000E+000	0.0000000E+000	0.0000000E+000	30.2635	1.7138	59.7365	-4.35787e-08
1.99553	3165.11	1583.22	3539	-26.5747	676.82	0.459282	-4.93946e-05	50.3755	10.0819	1	41	0.0128772	3.63864e-06	0	-4.7911e-06	0.324118	0.175434	6.52011	1.7865e-05	1.08801e-05	1.68418e-05	1.08065e-05	1.80192e-05	1.35909e-05	0.810242	0.101968	4.88471	2.38508e-08	1.38606e-08	2.41202e-09	7.77994e-09	3.76999e-09	3.23211e-09	0.000252713	0.00012641	0.000282566	26.5747	10081.9	20155.3	22536.2	-63.4253	0.0000000E+000	0.0000000E+000	0.0000000E+000	63.4253	0.0000000E+000	0.0000000E+000	0.0000000E+000	-63.4253	0.0000000E+000	0.0000000E+000	0.0000000E+000	-26.5747	0.0000000E+000	0.0000000E+000	0.0000000E+000	26.5747	1.99916	63.4253	-6.81515e-08
1.58533	3425.94	1469.66	3727.86	-23.2183	682.344	0.459283	-5.33039e-05	68.3102	10.6169	1	42	0.0128721	3.45295e-06	0	-4.99812e-06	0.298585	0.216884	6.1054	1.09091e-05	1.61074e-05	1.84729e-05	1.472e-05	9.08464e-06	1.51274e-05	0.787578	0.0398244	1.05932	2.39826e-08	1.18429e-08	5.61846e-10	4.78985e-09	5.46247e-10	4.04777e-10	0.000246524	0.000105754	0.00026825	23.2183	10616.9	24749.2	26930.3	-66.7817	0.0000000E+000	0.0000000E+000	0.0000000E+000	66.7817	0.0000000E+000	0.0000000E+000	0.0000000E+000	-66.7817	0.0000000E+000	0.0000000E+000	0.0000000E+000	-23.2183	0.0000000E+000	0.0000000E+000	0.0000000E+000	23.2183	2.33112	66.7817	-2.07026e-07
1.25825	3653.71	1345.34	3893.53	-20.2143	687.555	0.459295	-5.25837e-05	94.02	11.2253	1	42	0.0128694	3.30532e-06	0	-4.94969e-06	0.293537	0.127351	5.57759	8.85523e-06	1.17575e-05	1.05726e-05	1.41247e-05	1.55317e-05	2.41123e-05	0.758677	0.0331593	1.0625	2.21269e-08	1.0994e-08	4.15408e-10	4.17575e-09	4.39367e-10	5.32679e-10	0.000241017	8.87452e-05	0.000256836	20.2143	11225.3	30485.9	32486.9	-69.7857	0.0000000E+000	0.0000000E+000	0.0000000E+000	69.7857	0.0000000E+000	0.0000000E+000	0.0000000E+000	-69.7857	0.0000000E+000	0.0000000E+000	0.0000000E+000	-20.2143	0.0000000E+000	0.0000000E+000	0.0000000E+000	20.2143	2.71583	69.7857	4.84348e-08
1.00006	3845.61	1214.14	4032.72	-17.522	694.014	0.459299	-5.17632e-05	131.076	11.8814	1	42	0.0128616	3.18931e-06	0	-5.19062e-06	0.2566	0.10656	4.7776	1.30447e-05	1.85207e-05	1.43888e-05	8.39009e-06	7.97535e-06	8.30979e-06	0.77847	0.0390717	1.01966	2.22524e-08	1.04018e-08	4.12216e-10	3.51382e-09	1.46032e-10	4.79148e-10	0.000236466	7.46574e-05	0.000247971	17.522	11881.4	37632.4	39463.4	-72.478	0.0000000E+000	0.0000000E+000	0.0000000E+000	72.478	0.0000000E+000	0.0000000E+000	0.0000000E+000	-72.478	0.0000000E+000	0.0000000E+000	0.0000000E+000	-17.522	0.0000000E+000	0.0000000E+000	0.0000000E+000	17.522	3.16735	72.478	-2.40926e-07
0.79456	4010.14	1092.74	4156.36	-15.2427	702.031	0.459282	-5.62704e-05	183.306	12.6702	1	42	0.0128697	3.09639e-06	0	-5.03629e-06	0.269158	0.14233	4.18288	1.02823e-05	1.05356e-05	1.18135e-05	1.70914e-05	9.96674e-06	1.81083e-05	0.762345	0.0349433	0.990858	2.11067e-08	9.9282e-09	7.14239e-10	3.44363e-09	4.65847e-10	5.28665e-10	0.000232131	6.32544e-05	0.000240595	15.2427	12670.2	46497.3	48192.6	-74.7573	0.0000000E+000	0.0000000E+000	0.0000000E+000	74.7573	0.0000000E+000	0.0000000E+000	0.0000000E+000	-74.7573	0.0000000E+000	0.0000000E+000	0.0000000E+000	-15.2427	0.0000000E+000	0.0000000E+000	0.0000000E+000	15.2427	3.66981	74.7573	1.54321e-07
0.630906	4147.4	977.703	4261.09	-13.2647	712.028	0.459301	-5.39347e-05	258.017	13.5838	1	42	0.0128691	3.02014e-06	0	-5.45337e-06	0.186434	0.0995072	3.80718	4.91625e-06	7.69672e-06	8.98612e-06	1.29504e-05	1.01827e-05	8.29281e-06	0.766688	0.055251	1.09002	2.08707e-08	9.55899e-09	5.42949e-10	2.87691e-09	3.1855e-10	6.18272e-10	0.000228421	5.38476e-05	0.000234682	13.2647	13583.8	57622.4	59201.9	-76.7353	0.0000000E+000	0.0000000E+000	0.0000000E+000	76.7353	0.0000000E+000	0.0000000E+000	0.0000000E+000	-76.7353	0.0000000E+000	0.0000000E+000	0.0000000E+000	-13.2647	0.0000000E+000	0.0000000E+000	0.0000000E+000	13.2647	4.24198	76.7353	-4.17078e-07
0.500946	4262.48	876.613	4351.69	-11.6213	724.535	0.459286	-5.32589e-05	362.428	14.7069	1	42	0.0128653	2.95639e-06	0	-5.77049e-06	0.207678	0.0924643	3.34613	1.36559e-05	5.11878e-06	8.38292e-06	1.40857e-05	6.14858e-06	1.15964e-05	0.745094	0.0589021	1.11201	1.99983e-08	8.89575e-09	4.90789e-10	2.36726e-09	2.93065e-10	3.56526e-10	0.000225085	4.62905e-05	0.000229796	11.6213	14706.9	71511.5	73008.2	-78.3787	0.0000000E+000	0.0000000E+000	0.0000000E+000	78.3787	0.0000000E+000	0.0000000E+000	0.0000000E+000	-78.3787	0.0000000E+000	0.0000000E+000	0.0000000E+000	-11.6213	0.0000000E+000	0.0000000E+000	0.0000000E+000	11.6213	4.86245	78.3787	-3.17121e-07
0.398211	4360.47	784.189	4430.43	-10.1951	740.185	0.459298	-5.22846e-05	509.666	15.9675	1	42	0.0128605	2.90276e-06	0	-5.60939e-06	0.204169	0.102234	2.90677	9.41601e-06	1.54912e-05	4.75623e-06	1.16682e-05	8.31076e-06	8.94259e-06	0.761855	0.0475532	1.11007	2.01524e-08	8.71175e-09	2.4507e-10	2.57892e-09	2.96352e-10	3.36517e-10	0.000222148	3.99512e-05	0.000225712	10.1951	15967.5	88787	90211.3	-79.8049	0.0000000E+000	0.0000000E+000	0.0000000E+000	79.8049	0.0000000E+000	0.0000000E+000	0.0000000E+000	-79.8049	0.0000000E+000	0.0000000E+000	0.0000000E+000	-10.1951	0.0000000E+000	0.0000000E+000	0.0000000E+000	10.1951	5.56049	79.8049	1.61099e-07
0.316193	4451.71	707.425	4507.57	-9.02942	759.811	0.45929	-5.09861e-05	711.52	17.5252	1	42	0.0128702	2.85524e-06	0	-5.66282e-06	0.17409	0.0850755	2.61594	6.72044e-06	1.10241e-05	7.89552e-06	1.18543e-05	5.11765e-06	5.88876e-06	0.780612	0.0542979	1.12635	2.0526e-08	8.37711e-09	4.6722e-10	2.15935e-09	4.57541e-10	1.96522e-10	0.0002191	3.48173e-05	0.000221849	9.02942	17525.2	110283	111667	-80.9706	0.0000000E+000	0.0000000E+000	0.0000000E+000	80.9706	0.0000000E+000	0.0000000E+000	0.0000000E+000	-80.9706	0.0000000E+000	0.0000000E+000	0.0000000E+000	-9.02942	0.0000000E+000	0.0000000E+000	0.0000000E+000	9.02942	6.29284	80.9706	-5.34303e-08
0.251222	4526.36	639.588	4571.33	-8.04281	784.43	0.459292	-4.85042e-05	990.519	19.3901	1	42	0.0128641	2.81409e-06	0	-6.34877e-06	0.146941	0.0634664	2.31867	5.47057e-06	1.06741e-05	6.56587e-06	9.33875e-06	6.11118e-06	3.61107e-06	0.782269	0.0322641	1.13709	2.01364e-08	8.51303e-09	2.15458e-10	2.54851e-09	2.36781e-10	1.37397e-10	0.000216603	3.06067e-05	0.000218755	8.04281	19390.1	137223	138586	-81.9572	0.0000000E+000	0.0000000E+000	0.0000000E+000	81.9572	0.0000000E+000	0.0000000E+000	0.0000000E+000	-81.9572	0.0000000E+000	0.0000000E+000	0.0000000E+000	-8.04281	0.0000000E+000	0.0000000E+000	0.0000000E+000	8.04281	7.077	81.9572	-6.85945e-07
0.199573	4592.84	580.21	4629.34	-7.19999	815.338	0.459287	-5.12872e-05	1374.46	21.5906	1	42	0.0128615	2.77827e-06	0	-7.36213e-06	0.143822	0.0691061	2.06464	2.75062e-06	1.00282e-05	4.39093e-06	1.07884e-05	2.832e-06	7.39312e-06	0.793145	0.0364278	1.15251	2.03311e-08	8.18071e-09	2.15736e-10	2.25069e-09	2.25479e-10	9.44722e-11	0.00021431	2.70736e-05	0.000216013	7.19999	21590.6	170907	172265	-82.8	0.0000000E+000	0.0000000E+000	0.0000000E+000	82.8	0.0000000E+000	0.0000000E+000	0.0000000E+000	-82.8	0.0000000E+000	0.0000000E+000	0.0000000E+000	-7.19999	0.0000000E+000	0.0000000E+000	0.0000000E+000	7.19999	7.91582	82.8	-1.01337e-06
0.158419	4654.81	532.873	4685.21	-6.53068	854.195	0.459287	-5.23396e-05	1885.34	24.3882	1	42	0.0128639	2.74564e-06	0	-8.10345e-06	0.141072	0.0472054	1.90256	5.13249e-06	7.55629e-06	8.39422e-06	7.67409e-06	6.50403e-06	5.56178e-06	0.795377	0.056579	1.18704	2.00079e-08	8.40656e-09	3.03571e-10	2.36551e-09	2.5524e-10	2.29202e-10	0.000212053	2.42754e-05	0.000213438	6.53068	24388.2	213038	214430	-83.4693	0.0000000E+000	0.0000000E+000	0.0000000E+000	83.4693	0.0000000E+000	0.0000000E+000	0.0000000E+000	-83.4693	0.0000000E+000	0.0000000E+000	0.0000000E+000	-6.53068	0.0000000E+000	0.0000000E+000	0.0000000E+000	6.53068	8.7353	83.4693	-7.4131e-07
0.125939	4709.26	498.366	4735.56	-6.04094	902.992	0.459296	-4.8978e-05	2535.79	28.0845	1	42	0.0128654	2.71676e-06	0	-8.28172e-06	0.136309	0.0616982	1.66003	5.36909e-06	8.45203e-06	4.80648e-06	9.96794e-06	5.51448e-06	6.0169e-06	0.809102	0.0490921	1.2478	2.04659e-08	7.70338e-09	3.05411e-10	2.14282e-09	3.45629e-10	2.35886e-10	0.000209996	2.22232e-05	0.000211168	6.04094	28084.5	265382	266864	-83.9591	0.0000000E+000	0.0000000E+000	0.0000000E+000	83.9591	0.0000000E+000	0.0000000E+000	0.0000000E+000	-83.9591	0.0000000E+000	0.0000000E+000	0.0000000E+000	-6.04094	0.0000000E+000	0.0000000E+000	0.0000000E+000	6.04094	9.44941	83.9591	-1.78274e-07
0.0999518	4759.24	467.784	4782.18	-5.61355	964.394	0.459298	-4.67439e-05	3403.96	32.5704	1	42	0.0128656	2.69033e-06	0	-8.12571e-06	0.105094	0.0423187	1.55334	3.9747e-06	8.26592e-06	5.14635e-06	6.92282e-06	1.96257e-06	1.90428e-06	0.787487	0.0385874	1.32105	1.9629e-08	7.64185e-09	1.74091e-10	2.23567e-09	1.45743e-10	2.4602e-10	0.000208107	2.04547e-05	0.00020911	5.61355	32570.4	331372	332969	-84.3865	0.0000000E+000	0.0000000E+000	0.0000000E+000	84.3865	0.0000000E+000	0.0000000E+000	0.0000000E+000	-84.3865	0.0000000E+000	0.0000000E+000	0.0000000E+000	-5.61355	0.0000000E+000	0.0000000E+000	0.0000000E+000	5.61355	10.174	84.3865	1.56006e-07