File: Python/Data/RDE/240219-CV-EIS-Fe2Fe3_5mM-HCl1M-226RPM-Ag_AgCl_BLF8-GC-RDE_03_PEIS_C15.mpt
EC-Lab ASCII FILE
Nb header lines : 66

Potentio Electrochemical Impedance Spectroscopy

Run on channel : 15 (SN 19485)
User :
Electrode connection : standard
Potential control : Ewe
Ewe ctrl range : min = -1.00 V, max = 1.00 V
Ewe,I filtering : <None>
Safety Limits :
	Do not start on E overload
Channel : Floating
Acquisition started on : 02/19/2024 15:22:59.145
Loaded Setting File :  NONE
Saved on :
	File : 240219-CV-EIS-Fe2Fe3_5mM-HCl1M-226RPM-Ag_AgCl_BLF8-GC-RDE_03_PEIS_C15.mpr
	Directory : C:\Data\mathias\RDE-RPM-variation\
	Host : 192.168.0.1
Device : VMP-300 (SN 0826)
Address : USB
EC-Lab for windows v11.52 (software)
Internet server v11.52 (firmware)
Command interpretor v11.52 (firmware)
Electrode material :
Initial state :
Electrolyte :
Comments :
Cable : special
Electrode surface area : 0.001 cm²
Characteristic mass : 0.001 g
Equivalent Weight : 0.000 g/eq.
Density : 0.000 g/cm3
Volume (V) : 0.001 cm³
Record EIS quality indicators
Cycle Definition : Charge/Discharge alternance
Mode                Single sine
E (V)               0.0000
vs.                 Ref
tE (h:m:s)          0:00:0.0000
record              0
dI                  0.000
unit dI             mA
dt (s)              0.000
fi                  400.000
unit fi             kHz
ff                  100.000
unit ff             mHz
Nd                  10
Points              per decade
spacing             Logarithmic
Va (mV)             7.0
pw                  0.10
Na                  3
corr                0
E range min (V)     -1.000
E range max (V)     1.000
I Range             Auto
Bandwidth           8
nc cycles           2
goto Ns'            0
nr cycles           0
inc. cycle          1

freq/Hz	Re(Z)/Ohm	-Im(Z)/Ohm	|Z|/Ohm	Phase(Z)/deg	time/s	<Ewe>/V	<I>/mA	Cs/µF	Cp/µF	cycle number	I Range	|Ewe|/V	|I|/A	Ns	(Q-Qo)/mA.h	THD Ewe/%	NSD Ewe/%	NSR Ewe/%	|Ewe h2|/V	|Ewe h3|/V	|Ewe h4|/V	|Ewe h5|/V	|Ewe h6|/V	|Ewe h7|/V	THD I/%	NSD I/%	NSR I/%	|I h2|/A	|I h3|/A	|I h4|/A	|I h5|/A	|I h6|/A	|I h7|/A	Re(Y)/Ohm-1	Im(Y)/Ohm-1	|Y|/Ohm-1	Phase(Y)/deg	Re(C)/nF	Im(C)/nF	|C|/nF	Phase(C)/deg	Re(M)	Im(M)	|M|	Phase(M)/deg	Re(Permittivity)	Im(Permittivity)	|Permittivity|	Phase(Permittivity)/deg	Re(Resistivity)/Ohm.cm	Im(Resistivity)/Ohm.cm	|Resistivity|/Ohm.cm	Phase(Resistivity)/deg	Re(Conductivity)/mS/cm	Im(Conductivity)/mS/cm	|Conductivity|/mS/cm	Phase(Conductivity)/deg	Tan(Delta)	Loss Angle(Delta)/deg	dq/mA.h
399996	3.77494	1.29007	3.9893	-18.8677	362.417	-0.000161807	-0.187719	0.308425	0.0322542	1	38	0.00647521	0.00162315	0	-0.000127577	-1	-1	-1	0	0	0	0	0	0	-1	-1	-1	0	0	0	0	0	0	0.237202	0.0810629	0.250671	18.8677	32.2542	94.3805	99.7397	-71.1323	0.0000000E+000	0.0000000E+000	0.0000000E+000	71.1323	0.0000000E+000	0.0000000E+000	0.0000000E+000	-71.1323	0.0000000E+000	0.0000000E+000	0.0000000E+000	-18.8677	0.0000000E+000	0.0000000E+000	0.0000000E+000	18.8677	2.92614	71.1323	-0.000127577
200434	3.62099	0.787012	3.70553	-12.2623	365.86	-0.000136456	-0.186421	1.00894	0.0455122	1	38	0.00721613	0.00194739	0	-0.000307023	-1	-1	-1	0	0	0	0	0	0	-1	-1	-1	0	0	0	0	0	0	0.26371	0.0573165	0.269867	12.2623	45.5122	209.399	214.288	-77.7377	0.0000000E+000	0.0000000E+000	0.0000000E+000	77.7377	0.0000000E+000	0.0000000E+000	0.0000000E+000	-77.7377	0.0000000E+000	0.0000000E+000	0.0000000E+000	-12.2623	0.0000000E+000	0.0000000E+000	0.0000000E+000	12.2623	4.60094	77.7377	-5.88942e-05
100431	3.60472	0.796134	3.69159	-12.4543	369.302	-0.000155153	-0.186564	1.99053	0.0925792	1	38	0.00722924	0.0019583	0	-0.000486224	0.75728	0.648856	14.0347	3.01681e-05	1.84004e-05	1.64594e-05	1.77977e-05	1.65665e-05	2.29388e-05	0.0936349	0.129548	1.41598	7.65322e-07	7.89073e-07	6.85938e-07	6.56342e-07	5.66176e-07	8.53689e-07	0.264512	0.0584197	0.270886	12.4543	92.5792	419.179	429.28	-77.5457	0.0000000E+000	0.0000000E+000	0.0000000E+000	77.5457	0.0000000E+000	0.0000000E+000	0.0000000E+000	-77.5457	0.0000000E+000	0.0000000E+000	0.0000000E+000	-12.4543	0.0000000E+000	0.0000000E+000	0.0000000E+000	12.4543	4.52778	77.5457	-6.11321e-05
50326.6	3.68458	1.13703	3.85603	-17.1498	372.742	-0.000125533	-0.183654	2.78132	0.241832	1	38	0.00725344	0.00188107	0	-0.000659628	0.698966	0.66036	13.5833	2.12542e-05	1.77043e-05	7.7568e-06	4.30894e-06	2.36061e-05	3.08095e-05	0.0840321	0.146495	1.49703	7.42363e-07	5.68505e-07	7.48152e-07	4.30661e-07	5.37951e-07	5.28206e-07	0.247804	0.0764701	0.259334	17.1498	241.832	783.664	820.13	-72.8502	0.0000000E+000	0.0000000E+000	0.0000000E+000	72.8502	0.0000000E+000	0.0000000E+000	0.0000000E+000	-72.8502	0.0000000E+000	0.0000000E+000	0.0000000E+000	-17.1498	0.0000000E+000	0.0000000E+000	0.0000000E+000	17.1498	3.24053	72.8502	-5.93543e-05
25219	3.81635	1.94151	4.28182	-26.964	376.181	-0.000108271	-0.185987	3.25052	0.668306	1	38	0.00728281	0.00170087	0	-0.000832344	0.590598	0.64247	13.9597	1.5582e-05	1.57516e-05	1.34422e-05	1.53808e-05	1.81114e-05	1.90163e-05	0.115698	0.179747	1.63078	7.82137e-07	6.27041e-07	9.05769e-07	6.11838e-07	4.94757e-07	8.78389e-07	0.208157	0.105897	0.233545	26.964	668.306	1313.66	1473.89	-63.036	0.0000000E+000	0.0000000E+000	0.0000000E+000	63.036	0.0000000E+000	0.0000000E+000	0.0000000E+000	-63.036	0.0000000E+000	0.0000000E+000	0.0000000E+000	-26.964	0.0000000E+000	0.0000000E+000	0.0000000E+000	26.964	1.96566	63.036	-5.77761e-05
12637.3	4.09003	3.5579	5.42098	-41.0199	379.624	-0.000123594	-0.184142	3.53974	1.52477	1	38	0.00731333	0.00134908	0	-0.0010039	0.721782	0.482166	13.5731	1.68107e-05	2.02223e-05	1.61961e-05	1.4319e-05	1.18695e-05	3.52177e-05	0.152916	0.366136	2.11081	1.26427e-06	7.52912e-07	5.1318e-07	5.94311e-07	4.61784e-07	9.31463e-07	0.139178	0.121071	0.184469	41.0199	1524.77	1752.82	2323.2	-48.9801	0.0000000E+000	0.0000000E+000	0.0000000E+000	48.9801	0.0000000E+000	0.0000000E+000	0.0000000E+000	-48.9801	0.0000000E+000	0.0000000E+000	0.0000000E+000	-41.0199	0.0000000E+000	0.0000000E+000	0.0000000E+000	41.0199	1.14956	48.9801	-5.80745e-05
6332.63	4.64941	6.62672	8.09509	-54.9459	383.183	-0.000263604	-0.182984	3.7926	2.54151	1	38	0.00703629	0.000869206	0	-0.00118165	0.765438	0.444386	14.3278	1.24915e-05	2.60065e-05	2.63778e-05	1.93013e-05	2.3673e-05	1.38495e-05	0.240941	0.419962	3.22825	4.79613e-07	1.15938e-06	6.10454e-07	7.38446e-07	4.89255e-07	9.33709e-07	0.0709504	0.101124	0.123532	54.9459	2541.51	1783.16	3104.66	-35.0541	0.0000000E+000	0.0000000E+000	0.0000000E+000	35.0541	0.0000000E+000	0.0000000E+000	0.0000000E+000	-35.0541	0.0000000E+000	0.0000000E+000	0.0000000E+000	-54.9459	0.0000000E+000	0.0000000E+000	0.0000000E+000	54.9459	0.701616	35.0541	-6.11808e-05
3171.96	5.89964	12.2617	13.6072	-64.3058	386.737	-0.000257024	-0.183689	4.09205	3.32282	1	38	0.00697817	0.000512829	0	-0.00136202	0.964261	0.317021	14.1328	1.8045e-05	2.52363e-05	1.94034e-05	3.11458e-05	3.10732e-05	2.37736e-05	0.423563	0.193152	5.42762	1.06653e-06	1.06859e-06	7.20715e-07	8.67699e-07	6.76064e-07	6.57166e-07	0.0318631	0.0662239	0.0734905	64.3058	3322.82	1598.75	3687.43	-25.6942	0.0000000E+000	0.0000000E+000	0.0000000E+000	25.6942	0.0000000E+000	0.0000000E+000	0.0000000E+000	-25.6942	0.0000000E+000	0.0000000E+000	0.0000000E+000	-64.3058	0.0000000E+000	0.0000000E+000	0.0000000E+000	64.3058	0.481143	25.6942	-6.80503e-05
1589.49	8.62693	22.3128	23.9225	-68.8617	390.054	-0.000235886	-0.177761	4.48754	3.90395	1	38	0.00647526	0.000270677	0	-0.00152627	0.838272	0.451719	15.4552	2.33548e-05	2.20808e-05	2.14647e-05	1.6541e-05	1.99182e-05	2.38775e-05	0.575471	0.214074	10.4633	1.97729e-07	7.34031e-07	4.58817e-07	9.0951e-07	5.44108e-07	5.48084e-07	0.0150745	0.038989	0.0418017	68.8617	3903.95	1509.41	4185.58	-21.1383	0.0000000E+000	0.0000000E+000	0.0000000E+000	21.1383	0.0000000E+000	0.0000000E+000	0.0000000E+000	-21.1383	0.0000000E+000	0.0000000E+000	0.0000000E+000	-68.8617	0.0000000E+000	0.0000000E+000	0.0000000E+000	68.8617	0.386636	21.1383	-5.43314e-05
796.787	14.3613	40.1014	42.5954	-70.2964	393.627	-0.000253613	-0.1784	4.98101	4.4148	1	39	0.00678078	0.00015919	0	-0.00169876	0.750302	0.392498	14.7257	1.58621e-05	2.17034e-05	2.08656e-05	2.75093e-05	1.32969e-05	1.36082e-05	0.48966	0.267874	7.83767	3.62589e-07	4.34344e-07	2.97921e-07	3.14429e-07	1.81228e-07	1.25297e-07	0.00791528	0.0221021	0.0234767	70.2964	4414.8	1581.04	4689.37	-19.7036	0.0000000E+000	0.0000000E+000	0.0000000E+000	19.7036	0.0000000E+000	0.0000000E+000	0.0000000E+000	-19.7036	0.0000000E+000	0.0000000E+000	0.0000000E+000	-70.2964	0.0000000E+000	0.0000000E+000	0.0000000E+000	70.2964	0.358123	19.7036	-5.39871e-05
399.106	25.6611	69.9375	74.4966	-69.8511	396.951	-0.000230554	-0.174799	5.70193	5.02538	1	39	0.00644232	8.6478e-05	0	-0.00185775	1.06149	0.484923	15.6907	2.73083e-05	2.18458e-05	3.52177e-05	2.20736e-05	2.87168e-05	2.12749e-05	0.894464	0.469409	14.3324	2.46006e-07	2.80843e-07	3.40125e-07	4.47706e-07	2.26465e-07	2.05206e-07	0.00462384	0.0126019	0.0134234	69.8511	5025.38	1843.89	5352.98	-20.1489	0.0000000E+000	0.0000000E+000	0.0000000E+000	20.1489	0.0000000E+000	0.0000000E+000	0.0000000E+000	-20.1489	0.0000000E+000	0.0000000E+000	0.0000000E+000	-69.8511	0.0000000E+000	0.0000000E+000	0.0000000E+000	69.8511	0.366915	20.1489	-5.28805e-05
199.936	46.0421	117.682	126.368	-68.6325	400.265	-0.000232568	-0.173389	6.76422	5.86627	1	39	0.00631022	4.99351e-05	0	-0.00201805	0.794826	0.560751	15.8773	1.80418e-05	1.21187e-05	2.50926e-05	1.7727e-05	1.8957e-05	1.95507e-05	1.36404	0.830508	25.5933	2.89235e-07	2.03365e-07	1.78257e-07	1.48647e-07	3.54165e-07	2.27391e-07	0.00288323	0.00736943	0.00791337	68.6325	5866.27	2295.13	6299.27	-21.3675	0.0000000E+000	0.0000000E+000	0.0000000E+000	21.3675	0.0000000E+000	0.0000000E+000	0.0000000E+000	-21.3675	0.0000000E+000	0.0000000E+000	0.0000000E+000	-68.6325	0.0000000E+000	0.0000000E+000	0.0000000E+000	68.6325	0.391241	21.3675	-5.28631e-05
100.224	83.6586	198.349	215.269	-67.1312	403.801	-0.000215884	-0.17447	8.00603	6.7969	1	39	0.00690808	3.20904e-05	0	-0.00218836	0.948832	0.459924	15.3455	2.68792e-05	2.89954e-05	1.57335e-05	3.25757e-05	2.99871e-05	1.77906e-05	2.48008	1.35557	41.1645	2.58921e-07	3.21226e-07	2.63161e-07	4.22292e-07	3.47742e-07	2.05707e-07	0.00180529	0.0042802	0.00464534	67.1312	6796.9	2866.77	7376.73	-22.8688	0.0000000E+000	0.0000000E+000	0.0000000E+000	22.8688	0.0000000E+000	0.0000000E+000	0.0000000E+000	-22.8688	0.0000000E+000	0.0000000E+000	0.0000000E+000	-67.1312	0.0000000E+000	0.0000000E+000	0.0000000E+000	67.1312	0.421776	22.8688	-6.39777e-05
50.2089	154.029	327.737	362.127	-64.8276	407.284	-0.000256931	-0.174907	9.67196	7.92214	1	40	0.00693763	1.9158e-05	0	-0.00235364	1.5225	0.972942	28.2384	3.33644e-05	4.3553e-05	4.57472e-05	1.98674e-05	4.30226e-05	5.64336e-05	0.836688	0.49378	13.5817	8.4644e-08	6.08746e-08	6.82339e-08	5.92935e-08	5.68811e-08	4.78006e-08	0.00117457	0.00249921	0.00276146	64.8276	7922.14	3723.22	8753.43	-25.1724	0.0000000E+000	0.0000000E+000	0.0000000E+000	25.1724	0.0000000E+000	0.0000000E+000	0.0000000E+000	-25.1724	0.0000000E+000	0.0000000E+000	0.0000000E+000	-64.8276	0.0000000E+000	0.0000000E+000	0.0000000E+000	64.8276	0.469976	25.1724	-5.1346e-05
25.1691	277.949	527.294	596.066	-62.2052	410.46	-0.000242447	-0.174129	11.9922	9.38461	1	40	0.00692197	1.16128e-05	0	-0.00250633	1.62821	1.07331	27.7598	3.86687e-05	3.88172e-05	4.38482e-05	4.49348e-05	3.95402e-05	5.43794e-05	1.4094	0.859573	21.9734	8.31174e-08	6.08793e-08	5.61016e-08	5.7894e-08	4.14961e-08	6.174e-08	0.000782305	0.0014841	0.00167767	62.2052	9384.61	4946.85	10608.6	-27.7948	0.0000000E+000	0.0000000E+000	0.0000000E+000	27.7948	0.0000000E+000	0.0000000E+000	0.0000000E+000	-27.7948	0.0000000E+000	0.0000000E+000	0.0000000E+000	-62.2052	0.0000000E+000	0.0000000E+000	0.0000000E+000	62.2052	0.527124	27.7948	-5.11317e-05
12.6144	478.845	810.659	941.52	-59.4303	413.737	-0.000232232	-0.174221	15.5638	11.5381	1	40	0.00688808	7.31592e-06	0	-0.00266345	1.20271	0.844605	19.8187	1.76323e-05	3.96281e-05	3.4889e-05	1.99019e-05	3.87311e-05	2.22467e-05	1.71252	1.06032	25.0008	5.41232e-08	4.99928e-08	4.80757e-08	3.13343e-08	5.41775e-08	3.36392e-08	0.000540176	0.00091449	0.00106211	59.4303	11538.1	6815.38	13400.6	-30.5697	0.0000000E+000	0.0000000E+000	0.0000000E+000	30.5697	0.0000000E+000	0.0000000E+000	0.0000000E+000	-30.5697	0.0000000E+000	0.0000000E+000	0.0000000E+000	-59.4303	0.0000000E+000	0.0000000E+000	0.0000000E+000	59.4303	0.590686	30.5697	-5.57208e-05
6.31569	821.243	1234.33	1482.57	-56.3628	417.385	-0.000241469	-0.17367	20.4159	14.1515	1	40	0.00688939	4.64693e-06	0	-0.00283798	1.0812	0.460906	20.0888	3.65066e-05	2.97664e-05	1.56073e-05	2.56082e-05	2.94703e-05	3.34867e-05	3.11083	4.22302	39.5888	7.69153e-08	6.69169e-08	3.02332e-08	5.11112e-08	4.29518e-08	4.16846e-08	0.00037363	0.000561567	0.000674505	56.3628	14151.5	9415.46	16997.5	-33.6372	0.0000000E+000	0.0000000E+000	0.0000000E+000	33.6372	0.0000000E+000	0.0000000E+000	0.0000000E+000	-33.6372	0.0000000E+000	0.0000000E+000	0.0000000E+000	-56.3628	0.0000000E+000	0.0000000E+000	0.0000000E+000	56.3628	0.665336	33.6372	-6.6122e-05
3.16616	1432.15	2076.33	2522.34	-55.4039	423.231	-0.000213092	-0.172423	24.2098	16.405	1	40	0.00689247	2.73257e-06	0	-0.00311628	0.579283	0.36044	12.452	1.71011e-05	9.17859e-06	1.60505e-05	1.44579e-05	1.30435e-05	1.4915e-05	10.9592	26.2369	43.5019	2.2053e-07	1.30215e-07	1.0824e-07	7.03733e-08	5.69608e-08	5.33046e-08	0.000225103	0.000326354	0.000396457	55.4039	16405	11315.4	19928.9	-34.5961	0.0000000E+000	0.0000000E+000	0.0000000E+000	34.5961	0.0000000E+000	0.0000000E+000	0.0000000E+000	-34.5961	0.0000000E+000	0.0000000E+000	0.0000000E+000	-55.4039	0.0000000E+000	0.0000000E+000	0.0000000E+000	55.4039	0.689753	34.5961	-0.000110089
1.5871	2098.23	2571.71	3319.07	-50.7893	433.662	-0.000239048	-0.174655	38.9937	23.4101	1	40	0.00689509	2.07741e-06	0	-0.00362032	0.523958	0.160648	8.44575	1.09302e-05	1.59193e-05	6.92312e-06	2.11603e-05	8.33617e-06	1.21397e-05	3.07255	25.7704	39.0484	1.30668e-08	3.53204e-08	2.51357e-08	3.0834e-08	1.98175e-08	1.4961e-08	0.000190467	0.000233447	0.000301289	50.7893	23410.1	19100.1	30213.3	-39.2107	0.0000000E+000	0.0000000E+000	0.0000000E+000	39.2107	0.0000000E+000	0.0000000E+000	0.0000000E+000	-39.2107	0.0000000E+000	0.0000000E+000	0.0000000E+000	-50.7893	0.0000000E+000	0.0000000E+000	0.0000000E+000	50.7893	0.81589	39.2107	-0.000203299
0.79456	3581.9	4796.21	5986.12	-53.247	453.338	-0.000230866	-0.174926	41.7633	26.8103	1	40	0.00689616	1.15202e-06	0	-0.00456993	0.284575	0.143497	5.66605	8.27157e-06	1.05726e-05	4.84576e-06	5.41706e-06	7.31502e-06	8.96921e-06	18.5046	61.34	52.5871	1.5458e-07	9.91196e-08	7.92758e-08	5.48961e-08	3.81034e-08	2.92748e-08	9.9959e-05	0.000133847	0.000167053	53.247	26810.3	20022.4	33461.7	-36.753	0.0000000E+000	0.0000000E+000	0.0000000E+000	36.753	0.0000000E+000	0.0000000E+000	0.0000000E+000	-36.753	0.0000000E+000	0.0000000E+000	0.0000000E+000	-53.247	0.0000000E+000	0.0000000E+000	0.0000000E+000	53.247	0.746817	36.753	-0.000386568
0.398211	6447.38	1386.17	6594.71	-12.1338	491.467	-0.000241823	-0.174183	288.33	12.7389	1	40	0.00689624	1.04572e-06	0	-0.00641112	0.177588	0.0816597	3.62092	3.93034e-06	5.50162e-06	2.0061e-06	7.22057e-06	4.41662e-06	4.2479e-06	22.9719	76.0257	39.3063	1.78963e-07	1.19858e-07	3.47909e-08	2.8798e-08	1.86084e-08	9.30345e-09	0.000148249	3.18732e-05	0.000151637	12.1338	12738.9	59251.4	60605.4	-77.8662	0.0000000E+000	0.0000000E+000	0.0000000E+000	77.8662	0.0000000E+000	0.0000000E+000	0.0000000E+000	-77.8662	0.0000000E+000	0.0000000E+000	0.0000000E+000	-12.1338	0.0000000E+000	0.0000000E+000	0.0000000E+000	12.1338	4.65121	77.8662	-0.000756834
0.199573	8464.8	1121.13	8538.72	-7.54467	566.62	-0.000241451	-0.173953	711.316	12.2627	1	40	0.00689527	8.0753e-07	0	-0.0100293	0.244191	0.0733621	2.98354	6.40691e-06	9.73871e-06	5.3233e-06	6.11535e-06	2.08084e-06	6.3499e-06	87.2653	188.118	72.9984	5.29447e-07	3.59576e-07	1.66508e-07	1.14487e-07	4.16147e-08	6.43317e-08	0.0001161	1.53769e-05	0.000117114	7.54467	12262.7	92586.6	93395.2	-82.4553	0.0000000E+000	0.0000000E+000	0.0000000E+000	82.4553	0.0000000E+000	0.0000000E+000	0.0000000E+000	-82.4553	0.0000000E+000	0.0000000E+000	0.0000000E+000	-7.54467	0.0000000E+000	0.0000000E+000	0.0000000E+000	7.54467	7.55026	82.4553	-0.00148573
0.0999518	10329.3	-5875.93	11883.6	29.6338	715.674	-0.000240964	-0.174401	-270.99	-66.2533	1	40	0.00689323	5.80061e-07	0	-0.0172137	0.149077	0.0654011	2.24179	4.35185e-06	4.03353e-06	4.63734e-06	4.20165e-06	3.23639e-06	3.04964e-06	219.377	251.018	194.215	6.15049e-07	2.81947e-07	2.43499e-07	1.24168e-07	2.06228e-07	1.72338e-07	7.31428e-05	-4.16081e-05	8.41493e-05	-29.6338	-66253.3	116467	133992	-119.634	0.0000000E+000	0.0000000E+000	0.0000000E+000	119.634	0.0000000E+000	0.0000000E+000	0.0000000E+000	-119.634	0.0000000E+000	0.0000000E+000	0.0000000E+000	29.6338	0.0000000E+000	0.0000000E+000	0.0000000E+000	-29.6338	1.7579	60.3662	-0.0029635
252347	3.6572	0.91281	3.7694	-14.0142	720.211	-0.000130789	-0.175283	0.690941	0.0405189	2	38	0.00723701	0.00191994	0	-0.0174314	-1	-1	-1	0	0	0	0	0	0	-1	-1	-1	0	0	0	0	0	0	0.257398	0.0642445	0.265294	14.0142	40.5189	162.34	167.32	-75.9857	0.0000000E+000	0.0000000E+000	0.0000000E+000	75.9857	0.0000000E+000	0.0000000E+000	0.0000000E+000	-75.9857	0.0000000E+000	0.0000000E+000	0.0000000E+000	-14.0142	0.0000000E+000	0.0000000E+000	0.0000000E+000	14.0142	4.00654	75.9857	-5.41672e-05
126447	3.5913	0.776037	3.67419	-12.1934	723.652	-0.000162106	-0.173438	1.62191	0.072355	2	38	0.00720735	0.00196161	0	-0.0175954	-1	-1	-1	0	0	0	0	0	0	-1	-1	-1	0	0	0	0	0	0	0.266029	0.0574856	0.272169	12.1934	72.355	334.841	342.569	-77.8066	0.0000000E+000	0.0000000E+000	0.0000000E+000	77.8066	0.0000000E+000	0.0000000E+000	0.0000000E+000	-77.8066	0.0000000E+000	0.0000000E+000	0.0000000E+000	-12.1934	0.0000000E+000	0.0000000E+000	0.0000000E+000	12.1934	4.62775	77.8066	-5.93514e-05
63362.9	3.64688	1.05264	3.79576	-16.1004	727.093	-0.000151387	-0.176992	2.38619	0.183514	2	38	0.00722131	0.00190247	0	-0.0177624	0.667786	0.620229	13.6212	1.94508e-05	1.4927e-05	1.66702e-05	2.71376e-05	1.74273e-05	1.26232e-05	0.0785553	0.11847	1.47488	5.2334e-07	6.92552e-07	4.48584e-07	6.9538e-07	3.13345e-07	5.32346e-07	0.253119	0.0730607	0.263452	16.1004	183.514	635.784	661.739	-73.8996	0.0000000E+000	0.0000000E+000	0.0000000E+000	73.8996	0.0000000E+000	0.0000000E+000	0.0000000E+000	-73.8996	0.0000000E+000	0.0000000E+000	0.0000000E+000	-16.1004	0.0000000E+000	0.0000000E+000	0.0000000E+000	16.1004	3.4645	73.8996	-5.75325e-05
31751	3.75177	1.71761	4.12625	-24.5989	730.535	-0.000168183	-0.176147	2.91836	0.505678	2	38	0.00725525	0.00175831	0	-0.0179235	0.663581	0.625303	13.7398	2.01263e-05	1.66516e-05	1.20295e-05	1.79275e-05	2.27216e-05	1.89457e-05	0.09583	0.129528	1.57938	7.97762e-07	5.89324e-07	4.69547e-07	1.0157e-06	2.58535e-07	4.62372e-07	0.220356	0.100882	0.242351	24.5989	505.678	1104.55	1214.8	-65.4011	0.0000000E+000	0.0000000E+000	0.0000000E+000	65.4011	0.0000000E+000	0.0000000E+000	0.0000000E+000	-65.4011	0.0000000E+000	0.0000000E+000	0.0000000E+000	-24.5989	0.0000000E+000	0.0000000E+000	0.0000000E+000	24.5989	2.1843	65.4011	-5.29719e-05
15912.6	3.96889	3.08881	5.0292	-37.892	733.975	-0.000153475	-0.177264	3.23807	1.22144	2	38	0.00733728	0.00145894	0	-0.01809	0.677995	0.554946	13.6487	1.24462e-05	1.5992e-05	2.65598e-05	2.23273e-05	2.39726e-05	1.30614e-05	0.116877	0.203653	1.94348	1.04352e-06	5.5616e-07	6.99651e-07	5.52598e-07	5.07487e-07	5.1716e-07	0.156917	0.122122	0.198839	37.892	1221.44	1569.46	1988.74	-52.108	0.0000000E+000	0.0000000E+000	0.0000000E+000	52.108	0.0000000E+000	0.0000000E+000	0.0000000E+000	-52.108	0.0000000E+000	0.0000000E+000	0.0000000E+000	-37.892	0.0000000E+000	0.0000000E+000	0.0000000E+000	37.892	1.28493	52.108	-5.77089e-05
7967.67	4.40894	5.75407	7.249	-52.5396	737.446	-0.000286122	-0.175361	3.47147	2.1873	2	38	0.00729165	0.00100588	0	-0.0182569	0.617602	0.442634	13.5183	1.21845e-05	1.12403e-05	1.53868e-05	1.65235e-05	2.18262e-05	2.50977e-05	0.17027	0.301901	2.78663	8.72307e-07	8.97847e-07	4.88043e-07	4.09509e-07	7.29257e-07	4.28523e-07	0.083903	0.109501	0.13795	52.5396	2187.29	1675.97	2755.56	-37.4604	0.0000000E+000	0.0000000E+000	0.0000000E+000	37.4604	0.0000000E+000	0.0000000E+000	0.0000000E+000	-37.4604	0.0000000E+000	0.0000000E+000	0.0000000E+000	-52.5396	0.0000000E+000	0.0000000E+000	0.0000000E+000	52.5396	0.76623	37.4604	-5.52801e-05
3993.72	5.47338	10.6687	11.9908	-62.8407	740.725	-0.000271694	-0.17748	3.73535	2.95705	2	38	0.00708064	0.000590507	0	-0.0184139	0.808903	0.401404	14.211	2.24254e-05	2.35088e-05	2.0431e-05	1.94948e-05	1.51578e-05	2.16797e-05	0.310946	0.241548	4.76953	8.47097e-07	1.25268e-06	5.01314e-07	4.83997e-07	4.38526e-07	4.26635e-07	0.0380681	0.0742021	0.0833974	62.8407	2957.05	1517.06	3323.5	-27.1593	0.0000000E+000	0.0000000E+000	0.0000000E+000	27.1593	0.0000000E+000	0.0000000E+000	0.0000000E+000	-27.1593	0.0000000E+000	0.0000000E+000	0.0000000E+000	-62.8407	0.0000000E+000	0.0000000E+000	0.0000000E+000	62.8407	0.513033	27.1593	-5.38708e-05
2001.92	7.70704	19.4949	20.963	-68.4293	744.042	-0.000277548	-0.177454	4.07806	3.52684	2	38	0.00642508	0.000306495	0	-0.0185753	0.682793	0.523331	15.4652	1.97961e-05	1.75732e-05	1.465e-05	1.62301e-05	1.47657e-05	1.81044e-05	0.564467	0.274252	9.2636	4.04889e-07	7.83293e-07	5.00219e-07	1.0814e-06	5.92391e-07	5.24857e-07	0.017538	0.0443621	0.047703	68.4293	3526.84	1394.29	3792.45	-21.5707	0.0000000E+000	0.0000000E+000	0.0000000E+000	21.5707	0.0000000E+000	0.0000000E+000	0.0000000E+000	-21.5707	0.0000000E+000	0.0000000E+000	0.0000000E+000	-68.4293	0.0000000E+000	0.0000000E+000	0.0000000E+000	68.4293	0.395337	21.5707	-5.39074e-05
1002.75	12.5152	35.0333	37.2016	-70.3414	747.839	-0.000273074	-0.176032	4.5305	4.01776	2	39	0.00751229	0.000201935	0	-0.0187582	0.82928	0.454248	13.7655	2.30121e-05	3.07753e-05	2.5734e-05	2.07863e-05	2.56294e-05	1.56266e-05	0.626222	0.225162	6.40626	6.25572e-07	7.71519e-07	1.78411e-07	4.38533e-07	4.11895e-07	1.99988e-07	0.00904301	0.0253138	0.0268805	70.3414	4017.76	1435.29	4266.43	-19.6586	0.0000000E+000	0.0000000E+000	0.0000000E+000	19.6586	0.0000000E+000	0.0000000E+000	0.0000000E+000	-19.6586	0.0000000E+000	0.0000000E+000	0.0000000E+000	-70.3414	0.0000000E+000	0.0000000E+000	0.0000000E+000	70.3414	0.357236	19.6586	-6.43707e-05
502.588	22.3345	61.3619	65.3002	-69.9995	751.16	-0.000242783	-0.173645	5.16071	4.55699	2	39	0.0069575	0.000106546	0	-0.0189172	0.918587	0.4636	14.3288	2.73809e-05	2.65048e-05	1.19319e-05	3.42275e-05	1.76007e-05	2.31058e-05	0.853679	0.459458	11.4703	3.68966e-07	5.20714e-07	1.36505e-07	5.21232e-07	1.38489e-07	1.10059e-07	0.00523778	0.0143903	0.0153139	69.9995	4556.99	1658.65	4849.46	-20.0005	0.0000000E+000	0.0000000E+000	0.0000000E+000	20.0005	0.0000000E+000	0.0000000E+000	0.0000000E+000	-20.0005	0.0000000E+000	0.0000000E+000	0.0000000E+000	-69.9995	0.0000000E+000	0.0000000E+000	0.0000000E+000	69.9995	0.36398	20.0005	-5.29267e-05
251.853	40.3674	104.47	111.998	-68.8734	754.473	-0.000240527	-0.17301	6.04897	5.26314	2	39	0.00679454	6.06668e-05	0	-0.0190751	0.684416	0.449751	15.1214	1.29212e-05	1.89812e-05	1.58222e-05	1.40958e-05	2.22014e-05	1.99975e-05	1.08322	0.651793	20.8642	2.79768e-07	2.72373e-07	2.08541e-07	2.56838e-07	2.48563e-07	2.16663e-07	0.0032182	0.00832862	0.00892876	68.8734	5263.14	2033.69	5642.39	-21.1266	0.0000000E+000	0.0000000E+000	0.0000000E+000	21.1266	0.0000000E+000	0.0000000E+000	0.0000000E+000	-21.1266	0.0000000E+000	0.0000000E+000	0.0000000E+000	-68.8734	0.0000000E+000	0.0000000E+000	0.0000000E+000	68.8734	0.386402	21.1266	-5.237e-05
126.171	73.8633	177.187	191.966	-67.3704	757.789	-0.000250071	-0.172574	7.11916	6.06517	2	39	0.00676481	3.52396e-05	0	-0.0192342	1.03792	0.438229	14.5911	1.63484e-05	3.05178e-05	2.89719e-05	3.22918e-05	2.09922e-05	2.4337e-05	2.31426	1.04404	34.6004	2.90811e-07	2.42393e-07	3.83525e-07	3.14603e-07	3.12524e-07	3.45268e-07	0.00200438	0.0048082	0.00520925	67.3704	6065.17	2528.37	6571.06	-22.6296	0.0000000E+000	0.0000000E+000	0.0000000E+000	22.6296	0.0000000E+000	0.0000000E+000	0.0000000E+000	-22.6296	0.0000000E+000	0.0000000E+000	0.0000000E+000	-67.3704	0.0000000E+000	0.0000000E+000	0.0000000E+000	67.3704	0.416867	22.6296	-5.25298e-05
63.2394	134.244	290.998	320.47	-65.235	761.311	-0.000221551	-0.173325	8.64855	7.13094	2	40	0.00681696	2.12717e-05	0	-0.0193998	1.60773	0.735948	28.4098	5.07941e-05	1.83796e-05	3.95133e-05	6.0915e-05	2.8841e-05	4.32284e-05	0.789373	0.385376	12.1509	8.0797e-08	3.83276e-08	4.92221e-08	9.66921e-08	4.50772e-08	5.69652e-08	0.00130714	0.00283344	0.00312042	65.235	7130.94	3289.68	7853.17	-24.765	0.0000000E+000	0.0000000E+000	0.0000000E+000	24.765	0.0000000E+000	0.0000000E+000	0.0000000E+000	-24.765	0.0000000E+000	0.0000000E+000	0.0000000E+000	-65.235	0.0000000E+000	0.0000000E+000	0.0000000E+000	65.235	0.461325	24.765	-5.15511e-05
31.6723	248.452	461.002	523.69	-61.6781	764.487	-0.000223956	-0.174531	10.9003	8.44685	2	40	0.00673072	1.28525e-05	0	-0.0195517	1.97506	0.926893	28.874	5.43994e-05	5.63728e-05	3.27766e-05	2.66949e-05	4.86102e-05	6.01018e-05	1.33105	0.73737	20.0022	1.01041e-07	5.91613e-08	4.05891e-08	5.39044e-08	5.10409e-08	6.94526e-08	0.000905927	0.00168095	0.00190953	61.6781	8446.85	4552.33	9595.47	-28.3219	0.0000000E+000	0.0000000E+000	0.0000000E+000	28.3219	0.0000000E+000	0.0000000E+000	0.0000000E+000	-28.3219	0.0000000E+000	0.0000000E+000	0.0000000E+000	-61.6781	0.0000000E+000	0.0000000E+000	0.0000000E+000	61.6781	0.538938	28.3219	-5.01329e-05
15.879	437.527	719.938	842.461	-58.7117	767.66	-0.000219687	-0.173385	13.922	10.167	2	40	0.00675183	8.01441e-06	0	-0.019703	1.60919	0.776536	29.1724	4.53141e-05	2.49974e-05	5.62852e-05	2.98352e-05	4.17238e-05	3.52409e-05	1.8843	1.25005	32.6138	8.52119e-08	4.8802e-08	6.45688e-08	2.99346e-08	4.64764e-08	6.5817e-08	0.00061646	0.00101437	0.001187	58.7117	10167	6178.75	11897.2	-31.2883	0.0000000E+000	0.0000000E+000	0.0000000E+000	31.2883	0.0000000E+000	0.0000000E+000	0.0000000E+000	-31.2883	0.0000000E+000	0.0000000E+000	0.0000000E+000	-58.7117	0.0000000E+000	0.0000000E+000	0.0000000E+000	58.7117	0.607729	31.2883	-4.9749e-05
7.95573	732.163	1086.74	1310.37	-56.0308	771.096	-0.000216835	-0.174098	18.4084	12.6613	2	40	0.00674986	5.15113e-06	0	-0.0198672	1.05622	0.442585	19.0078	2.45805e-05	2.78087e-05	2.61531e-05	2.16747e-05	3.03572e-05	2.58829e-05	2.15953	3.04362	33.3244	5.93459e-08	4.49089e-08	3.06653e-08	3.75053e-08	4.22928e-08	3.68603e-08	0.000426406	0.000632906	0.000763146	56.0308	12661.3	8530.28	15266.8	-33.9692	0.0000000E+000	0.0000000E+000	0.0000000E+000	33.9692	0.0000000E+000	0.0000000E+000	0.0000000E+000	-33.9692	0.0000000E+000	0.0000000E+000	0.0000000E+000	-56.0308	0.0000000E+000	0.0000000E+000	0.0000000E+000	56.0308	0.673727	33.9692	-5.7318e-05
3.98597	1157.79	1680.73	2040.92	-55.4385	776.016	-0.000237493	-0.172188	23.7568	16.1114	2	40	0.0067477	3.30621e-06	0	-0.0201034	0.818274	0.479645	14.8145	1.85929e-05	3.72015e-05	1.27996e-05	1.22782e-05	1.90247e-05	1.47991e-05	5.96765	16.1358	41.7394	1.15024e-07	9.73458e-08	5.61173e-08	6.46715e-08	3.92873e-08	4.19718e-08	0.000277958	0.000403504	0.000489976	55.4385	16111.4	11098.5	19564.1	-34.5615	0.0000000E+000	0.0000000E+000	0.0000000E+000	34.5615	0.0000000E+000	0.0000000E+000	0.0000000E+000	-34.5615	0.0000000E+000	0.0000000E+000	0.0000000E+000	-55.4385	0.0000000E+000	0.0000000E+000	0.0000000E+000	55.4385	0.688862	34.5615	-9.22962e-05
1.99783	1914.71	2363.92	3042.08	-50.9935	784.546	-0.000225813	-0.171615	33.6999	20.3495	2	40	0.00674787	2.21818e-06	0	-0.0205118	0.515755	0.227083	9.68747	1.42776e-05	9.759e-06	1.98674e-05	7.47665e-06	1.51046e-05	8.65529e-06	4.28643	32.9923	40.1555	7.72068e-08	2.61924e-08	2.79787e-08	2.24063e-08	2.13807e-08	1.48806e-08	0.000206901	0.000255442	0.000328723	50.9935	20349.5	16482.6	26187.3	-39.0065	0.0000000E+000	0.0000000E+000	0.0000000E+000	39.0065	0.0000000E+000	0.0000000E+000	0.0000000E+000	-39.0065	0.0000000E+000	0.0000000E+000	0.0000000E+000	-50.9935	0.0000000E+000	0.0000000E+000	0.0000000E+000	50.9935	0.809973	39.0065	-0.000163796
1.00122	3110.86	2542.69	4017.8	-39.2611	800.411	-0.000241695	-0.172896	62.5172	25.0385	2	40	0.00675313	1.6808e-06	0	-0.0212758	0.382006	0.193529	6.74574	1.01382e-05	1.08487e-05	8.25339e-06	1.10489e-05	9.33983e-06	6.78596e-06	10.4225	46.5059	39.8372	1.30874e-07	7.29589e-08	4.6334e-08	5.10076e-08	3.78264e-08	3.08595e-08	0.00019271	0.000157513	0.000248892	39.2611	25038.5	30633.5	39564.3	-50.7389	0.0000000E+000	0.0000000E+000	0.0000000E+000	50.7389	0.0000000E+000	0.0000000E+000	0.0000000E+000	-50.7389	0.0000000E+000	0.0000000E+000	0.0000000E+000	-39.2611	0.0000000E+000	0.0000000E+000	0.0000000E+000	39.2611	1.22346	50.7389	-0.000311008
0.501541	2988.85	3202.85	4380.81	-46.9796	830.907	-0.000228039	-0.17387	99.0779	52.9593	2	40	0.00674334	1.53929e-06	0	-0.0227427	0.293931	0.1398	4.6375	8.58623e-06	8.26418e-06	5.2292e-06	1.02835e-05	3.92093e-06	7.22246e-06	30.317	194.976	46.4371	3.03963e-07	2.5623e-07	1.61618e-07	1.29582e-07	1.09189e-07	8.66407e-08	0.000155738	0.000166889	0.000228269	46.9796	52959.3	49420.7	72436.9	-43.0204	0.0000000E+000	0.0000000E+000	0.0000000E+000	43.0204	0.0000000E+000	0.0000000E+000	0.0000000E+000	-43.0204	0.0000000E+000	0.0000000E+000	0.0000000E+000	-46.9796	0.0000000E+000	0.0000000E+000	0.0000000E+000	46.9796	0.933182	43.0204	-0.000601694
0.251222	5695.31	2031.26	6046.7	-19.629	890.803	-0.00023691	-0.173496	311.887	35.1959	2	40	0.00674303	1.11516e-06	0	-0.0256261	0.190592	0.109195	3.34652	5.08892e-06	4.96878e-06	5.51408e-06	4.05366e-06	5.95982e-06	3.41311e-06	89.8777	93.6193	84.0962	5.35424e-07	1.63234e-07	2.70289e-07	1.11791e-07	3.77425e-08	6.75103e-08	0.000155769	5.55557e-05	0.000165379	19.629	35195.9	98683.3	104772	-70.371	0.0000000E+000	0.0000000E+000	0.0000000E+000	70.371	0.0000000E+000	0.0000000E+000	0.0000000E+000	-70.371	0.0000000E+000	0.0000000E+000	0.0000000E+000	-19.629	0.0000000E+000	0.0000000E+000	0.0000000E+000	19.629	2.80383	70.371	-0.00118501
0.125939	5992.67	7920.26	9931.9	-52.8879	1009.36	-0.000235261	-0.172809	159.559	101.47	2	40	0.00674019	6.7864e-07	0	-0.0313386	0.17776	0.0732267	2.30744	4.13213e-06	6.18476e-06	4.05217e-06	3.83796e-06	3.5889e-06	3.78513e-06	123.758	122.697	119.929	3.86647e-07	4.26989e-07	3.12204e-07	1.63e-07	1.91489e-07	1.09575e-07	6.07513e-05	8.02925e-05	0.000100686	52.8879	101470	76774.4	127241	-37.1121	0.0000000E+000	0.0000000E+000	0.0000000E+000	37.1121	0.0000000E+000	0.0000000E+000	0.0000000E+000	-37.1121	0.0000000E+000	0.0000000E+000	0.0000000E+000	-52.8879	0.0000000E+000	0.0000000E+000	0.0000000E+000	52.8879	0.756625	37.1121	-0.00235068
317705	3.69644	1.08028	3.85106	-16.2909	1074.16	-0.000127229	-0.176769	0.463726	0.0364897	3	38	0.0071459	0.00185557	0	-0.0344574	-1	-1	-1	0	0	0	0	0	0	-1	-1	-1	0	0	0	0	0	0	0.249243	0.0728408	0.259669	16.2909	36.4897	124.859	130.082	-73.7091	0.0000000E+000	0.0000000E+000	0.0000000E+000	73.7091	0.0000000E+000	0.0000000E+000	0.0000000E+000	-73.7091	0.0000000E+000	0.0000000E+000	0.0000000E+000	-16.2909	0.0000000E+000	0.0000000E+000	0.0000000E+000	16.2909	3.42175	73.7091	-5.43515e-05
159201	3.59524	0.786418	3.68025	-12.3385	1077.6	-0.000128608	-0.176838	1.27122	0.0580463	3	38	0.00720942	0.00195895	0	-0.0346266	-1	-1	-1	0	0	0	0	0	0	-1	-1	-1	0	0	0	0	0	0	0.265445	0.058063	0.271721	12.3385	58.0463	265.369	271.643	-77.6615	0.0000000E+000	0.0000000E+000	0.0000000E+000	77.6615	0.0000000E+000	0.0000000E+000	0.0000000E+000	-77.6615	0.0000000E+000	0.0000000E+000	0.0000000E+000	-12.3385	0.0000000E+000	0.0000000E+000	0.0000000E+000	12.3385	4.57167	77.6615	-5.75997e-05
79767.3	3.61673	0.926722	3.73357	-14.3718	1081.04	-0.000125439	-0.175856	2.15301	0.132647	3	38	0.00720472	0.00192972	0	-0.0347997	0.684436	0.520248	13.8601	1.47804e-05	1.22893e-05	1.78185e-05	2.29794e-05	2.41999e-05	2.12619e-05	0.0967515	0.113251	1.45116	7.08535e-07	7.34644e-07	9.88376e-07	6.97326e-07	5.49183e-07	5.60281e-07	0.259458	0.0664816	0.26784	14.3718	132.647	517.682	534.406	-75.6282	0.0000000E+000	0.0000000E+000	0.0000000E+000	75.6282	0.0000000E+000	0.0000000E+000	0.0000000E+000	-75.6282	0.0000000E+000	0.0000000E+000	0.0000000E+000	-14.3718	0.0000000E+000	0.0000000E+000	0.0000000E+000	14.3718	3.90271	75.6282	-5.64874e-05
39971.8	3.73346	1.45577	4.00724	-21.302	1084.48	-0.000128273	-0.178828	2.73511	0.360967	3	38	0.00722729	0.00180356	0	-0.0349664	0.715427	0.53982	13.9162	2.57229e-05	1.96462e-05	1.26921e-05	2.72159e-05	1.12204e-05	1.93785e-05	0.0699307	0.129983	1.55632	6.96763e-07	2.66187e-07	5.20535e-07	4.59907e-07	1.84953e-07	5.30421e-07	0.232499	0.090657	0.249549	21.302	360.967	925.737	993.623	-68.698	0.0000000E+000	0.0000000E+000	0.0000000E+000	68.698	0.0000000E+000	0.0000000E+000	0.0000000E+000	-68.698	0.0000000E+000	0.0000000E+000	0.0000000E+000	-21.302	0.0000000E+000	0.0000000E+000	0.0000000E+000	21.302	2.5646	68.698	-5.71692e-05
20032.3	3.89525	2.57945	4.67189	-33.5126	1087.92	-0.000119027	-0.177415	3.08009	0.938926	3	38	0.00729726	0.00156195	0	-0.0351299	0.950683	0.366986	13.728	3.29833e-05	2.7496e-05	1.91733e-05	1.88511e-05	2.92202e-05	2.48732e-05	0.0974234	0.254188	1.80366	8.73258e-07	4.24695e-07	2.45365e-07	6.89342e-07	6.454e-07	3.83556e-07	0.178464	0.118179	0.214046	33.5126	938.926	1417.88	1700.58	-56.4874	0.0000000E+000	0.0000000E+000	0.0000000E+000	56.4874	0.0000000E+000	0.0000000E+000	0.0000000E+000	-56.4874	0.0000000E+000	0.0000000E+000	0.0000000E+000	-33.5126	0.0000000E+000	0.0000000E+000	0.0000000E+000	33.5126	1.51011	56.4874	-5.28036e-05
10039.3	4.2591	4.76514	6.39113	-48.2096	1091.36	-0.000121804	-0.179251	3.32689	1.84942	3	38	0.00728747	0.00114025	0	-0.0353015	0.685399	0.334185	13.8249	2.27787e-05	1.65985e-05	3.00783e-05	7.94266e-06	2.11064e-05	1.1122e-05	0.168802	0.394423	2.49192	7.73005e-07	8.85607e-07	6.664e-07	6.81504e-07	8.16633e-07	5.73518e-07	0.104271	0.11666	0.156467	48.2096	1849.42	1653.02	2480.49	-41.7904	0.0000000E+000	0.0000000E+000	0.0000000E+000	41.7904	0.0000000E+000	0.0000000E+000	0.0000000E+000	-41.7904	0.0000000E+000	0.0000000E+000	0.0000000E+000	-48.2096	0.0000000E+000	0.0000000E+000	0.0000000E+000	48.2096	0.893803	41.7904	-5.93557e-05
5028.39	5.06495	8.8421	10.19	-60.1949	1094.71	-0.000277678	-0.176758	3.57961	2.69524	3	38	0.00738659	0.000724885	0	-0.0354604	0.80793	0.422614	13.0437	2.74134e-05	2.15635e-05	2.82739e-05	2.8571e-05	1.8998e-05	9.92346e-06	0.256784	0.234663	3.80796	8.36453e-07	1.04075e-06	7.80345e-07	3.50392e-07	5.86213e-07	6.46951e-07	0.0487782	0.0851541	0.0981353	60.1949	2695.24	1543.89	3106.11	-29.8051	0.0000000E+000	0.0000000E+000	0.0000000E+000	29.8051	0.0000000E+000	0.0000000E+000	0.0000000E+000	-29.8051	0.0000000E+000	0.0000000E+000	0.0000000E+000	-60.1949	0.0000000E+000	0.0000000E+000	0.0000000E+000	60.1949	0.572823	29.8051	-5.32097e-05
2519.19	6.84199	16.2459	17.6279	-67.1615	1098.03	-0.000241907	-0.176743	3.8888	3.30296	3	38	0.00655914	0.000372089	0	-0.0356218	0.898115	0.586785	15.4458	1.633e-05	2.28171e-05	2.68168e-05	2.23244e-05	1.95024e-05	2.22657e-05	0.497496	0.258226	7.55181	8.61432e-07	8.23064e-07	8.53502e-07	6.75596e-07	3.60261e-07	5.42735e-07	0.0220182	0.052281	0.0567283	67.1615	3302.96	1391.05	3583.93	-22.8385	0.0000000E+000	0.0000000E+000	0.0000000E+000	22.8385	0.0000000E+000	0.0000000E+000	0.0000000E+000	-22.8385	0.0000000E+000	0.0000000E+000	0.0000000E+000	-67.1615	0.0000000E+000	0.0000000E+000	0.0000000E+000	67.1615	0.421152	22.8385	-5.35813e-05
1262.98	10.7558	29.3868	31.2933	-69.897	1101.57	-0.000260491	-0.176912	4.28817	3.78159	3	38	0.00688989	0.000220171	0	-0.0357938	0.783385	0.543759	14.6247	1.97814e-05	1.47946e-05	1.8827e-05	2.2327e-05	1.50208e-05	2.65194e-05	0.588305	0.476917	12.8934	3.98456e-07	6.89853e-07	4.6449e-07	6.03435e-07	3.33208e-07	3.50657e-07	0.0109835	0.0300089	0.0319557	69.897	3781.59	1384.09	4026.92	-20.103	0.0000000E+000	0.0000000E+000	0.0000000E+000	20.103	0.0000000E+000	0.0000000E+000	0.0000000E+000	-20.103	0.0000000E+000	0.0000000E+000	0.0000000E+000	-69.897	0.0000000E+000	0.0000000E+000	0.0000000E+000	69.897	0.366008	20.103	-6.46962e-05
632.773	18.6364	51.7408	54.9948	-70.1916	1105.14	-0.000233872	-0.173376	4.86115	4.30292	3	39	0.00705311	0.000128251	0	-0.035963	0.642981	0.441983	14.3462	2.21537e-05	2.60146e-05	1.49234e-05	1.22644e-05	1.13582e-05	1.43626e-05	0.74139	0.293973	9.75634	3.06887e-07	4.13863e-07	2.69048e-07	6.54476e-07	1.00502e-07	2.57465e-07	0.00616196	0.0171077	0.0181836	70.1916	4302.92	1549.86	4573.53	-19.8084	0.0000000E+000	0.0000000E+000	0.0000000E+000	19.8084	0.0000000E+000	0.0000000E+000	0.0000000E+000	-19.8084	0.0000000E+000	0.0000000E+000	0.0000000E+000	-70.1916	0.0000000E+000	0.0000000E+000	0.0000000E+000	70.1916	0.360187	19.8084	-5.27903e-05
316.927	33.9559	89.0334	95.2887	-69.1239	1108.46	-0.000233164	-0.172401	5.64038	4.92414	3	39	0.00683335	7.17121e-05	0	-0.036122	0.86118	0.365785	14.986	1.43133e-05	1.30124e-05	1.74784e-05	2.03618e-05	3.0349e-05	3.62852e-05	0.813197	0.578996	17.6475	1.8636e-07	1.01864e-07	2.08919e-07	2.45953e-07	3.44096e-07	2.20766e-07	0.00373966	0.0098055	0.0104944	69.1239	4924.14	1877.99	5270.11	-20.8761	0.0000000E+000	0.0000000E+000	0.0000000E+000	20.8761	0.0000000E+000	0.0000000E+000	0.0000000E+000	-20.8761	0.0000000E+000	0.0000000E+000	0.0000000E+000	-69.1239	0.0000000E+000	0.0000000E+000	0.0000000E+000	69.1239	0.381384	20.8761	-5.2447e-05
158.831	61.8361	150.122	162.358	-67.6129	1111.78	-0.000229063	-0.173539	6.67486	5.70663	3	39	0.00677822	4.17485e-05	0	-0.0362812	0.828922	0.451471	15.1725	1.87083e-05	3.10988e-05	2.44116e-05	9.1306e-06	2.18086e-05	1.68808e-05	1.64819	1.18712	30.0999	2.1887e-07	3.08376e-07	3.67708e-07	1.90689e-07	2.13835e-07	2.08955e-07	0.00234581	0.00569501	0.00615922	67.6129	5706.63	2350.6	6171.79	-22.3871	0.0000000E+000	0.0000000E+000	0.0000000E+000	22.3871	0.0000000E+000	0.0000000E+000	0.0000000E+000	-22.3871	0.0000000E+000	0.0000000E+000	0.0000000E+000	-67.6129	0.0000000E+000	0.0000000E+000	0.0000000E+000	67.6129	0.411907	22.3871	-5.30731e-05
79.6177	112.802	248.368	272.784	-65.5737	1115.32	-0.00021676	-0.173606	8.0485	6.6722	3	40	0.00683925	2.5072e-05	0	-0.0364486	1.28093	0.692541	27.8182	3.35055e-05	2.51972e-05	4.25096e-05	2.22725e-05	2.33369e-05	3.07594e-05	0.739577	0.196828	10.1278	9.94919e-08	6.1896e-08	6.05006e-08	1.01468e-07	3.07349e-08	6.21017e-08	0.00151593	0.00333779	0.00366591	65.5737	6672.2	3030.34	7328.11	-24.4263	0.0000000E+000	0.0000000E+000	0.0000000E+000	24.4263	0.0000000E+000	0.0000000E+000	0.0000000E+000	-24.4263	0.0000000E+000	0.0000000E+000	0.0000000E+000	-65.5737	0.0000000E+000	0.0000000E+000	0.0000000E+000	65.5737	0.454173	24.4263	-5.09863e-05
39.8851	209.367	399.024	450.615	-62.3141	1118.53	-0.000223322	-0.17335	10.0002	7.84144	3	40	0.00675793	1.49971e-05	0	-0.0366021	1.47154	0.916645	29.2571	4.22607e-05	4.45074e-05	4.08587e-05	3.31243e-05	2.59502e-05	3.91187e-05	0.865863	0.543728	17.5536	3.37521e-08	4.63688e-08	6.5618e-08	5.32503e-08	5.20088e-08	5.13856e-08	0.00103109	0.00196511	0.00221919	62.3141	7841.44	4114.38	8855.3	-27.6859	0.0000000E+000	0.0000000E+000	0.0000000E+000	27.6859	0.0000000E+000	0.0000000E+000	0.0000000E+000	-27.6859	0.0000000E+000	0.0000000E+000	0.0000000E+000	-62.3141	0.0000000E+000	0.0000000E+000	0.0000000E+000	62.3141	0.524698	27.6859	-5.10733e-05
19.9808	362.022	620.604	718.477	-59.7434	1121.71	-0.000251003	-0.173578	12.8349	9.57626	3	40	0.00674148	9.38301e-06	0	-0.0367537	1.50149	0.770918	29.1649	3.62851e-05	4.78313e-05	4.68407e-05	1.42293e-05	3.95745e-05	3.46116e-05	1.57794	0.879094	28.0889	6.47461e-08	5.38554e-08	5.56226e-08	3.49324e-08	5.3459e-08	6.40359e-08	0.000701308	0.00120223	0.00139183	59.7434	9576.26	5586.19	11086.5	-30.2566	0.0000000E+000	0.0000000E+000	0.0000000E+000	30.2566	0.0000000E+000	0.0000000E+000	0.0000000E+000	-30.2566	0.0000000E+000	0.0000000E+000	0.0000000E+000	-59.7434	0.0000000E+000	0.0000000E+000	0.0000000E+000	59.7434	0.583338	30.2566	-5.1034e-05
10.016	618.125	917.946	1106.66	-56.0445	1124.98	-0.000235699	-0.175368	17.3104	11.91	3	40	0.00672228	6.07437e-06	0	-0.0369108	1.44231	0.680877	29.4989	2.01667e-05	3.17912e-05	3.21915e-05	3.31403e-05	3.56957e-05	5.85264e-05	2.48344	3.36797	42.5271	5.87586e-08	4.27535e-08	4.54965e-08	6.35033e-08	4.52164e-08	7.69071e-08	0.000504714	0.000749525	0.000903617	56.0445	11910	8019.91	14358.5	-33.9555	0.0000000E+000	0.0000000E+000	0.0000000E+000	33.9555	0.0000000E+000	0.0000000E+000	0.0000000E+000	-33.9555	0.0000000E+000	0.0000000E+000	0.0000000E+000	-56.0445	0.0000000E+000	0.0000000E+000	0.0000000E+000	56.0445	0.673379	33.9555	-5.15215e-05
5.01766	1010.36	1350.34	1686.48	-53.1951	1129.18	-0.00022521	-0.172574	23.4897	15.059	3	40	0.00674412	3.99892e-06	0	-0.0371104	0.906688	0.390056	15.8425	2.15322e-05	3.8682e-05	2.08379e-05	1.43e-05	2.39159e-05	1.49627e-05	2.76894	6.41497	35.8783	6.97541e-08	5.68691e-08	2.50992e-08	3.06996e-08	2.75071e-08	2.08081e-08	0.000355231	0.000474763	0.000592949	53.1951	15059	11267.6	18807.7	-36.8049	0.0000000E+000	0.0000000E+000	0.0000000E+000	36.8049	0.0000000E+000	0.0000000E+000	0.0000000E+000	-36.8049	0.0000000E+000	0.0000000E+000	0.0000000E+000	-53.1951	0.0000000E+000	0.0000000E+000	0.0000000E+000	53.1951	0.748228	36.8049	-7.71234e-05
2.51368	1544.52	1981.55	2512.39	-52.0653	1136.21	-0.000208792	-0.172302	31.9526	19.8766	3	40	0.00674344	2.68408e-06	0	-0.0374471	0.591951	0.270471	10.8737	1.54996e-05	1.37791e-05	1.98425e-05	1.44823e-05	1.54974e-05	1.07116e-05	3.03372	7.37685	37.0753	5.14721e-08	3.40658e-08	2.69517e-08	2.75117e-08	1.60772e-08	1.32321e-08	0.000244693	0.000313929	0.000398028	52.0653	19876.6	15492.9	25201.4	-37.9347	0.0000000E+000	0.0000000E+000	0.0000000E+000	37.9347	0.0000000E+000	0.0000000E+000	0.0000000E+000	-37.9347	0.0000000E+000	0.0000000E+000	0.0000000E+000	-52.0653	0.0000000E+000	0.0000000E+000	0.0000000E+000	52.0653	0.779453	37.9347	-0.000133789
1.25968	2758.39	2256.41	3563.72	-39.2837	1149.05	-0.000201664	-0.173398	55.9941	22.4477	3	40	0.00673898	1.89099e-06	0	-0.0380623	0.403643	0.317204	7.9536	1.35313e-05	1.10848e-05	8.12034e-06	7.20896e-06	9.88664e-06	1.06549e-05	15.8979	59.8474	43.5096	2.36263e-07	1.34223e-07	7.53382e-08	7.09934e-08	6.08582e-08	5.5785e-08	0.000217194	0.000177668	0.000280605	39.2837	22447.7	27441.6	35453.3	-50.7163	0.0000000E+000	0.0000000E+000	0.0000000E+000	50.7163	0.0000000E+000	0.0000000E+000	0.0000000E+000	-50.7163	0.0000000E+000	0.0000000E+000	0.0000000E+000	-39.2837	0.0000000E+000	0.0000000E+000	0.0000000E+000	39.2837	1.22247	50.7163	-0.000248735
0.631645	3921.37	3017.22	4947.81	-37.5757	1173.5	-0.000219492	-0.174583	83.5103	31.0548	3	40	0.00674251	1.36273e-06	0	-0.0392414	0.294853	0.16904	5.54415	5.43872e-06	6.26508e-06	7.29814e-06	1.15074e-05	1.34502e-06	8.81297e-06	24.8518	95.0775	50.2652	2.1168e-07	9.86477e-08	9.22037e-08	8.28174e-08	1.2021e-07	6.0323e-08	0.000160182	0.000123248	0.00020211	37.5757	31054.8	40360.8	50925.4	-52.4243	0.0000000E+000	0.0000000E+000	0.0000000E+000	52.4243	0.0000000E+000	0.0000000E+000	0.0000000E+000	-52.4243	0.0000000E+000	0.0000000E+000	0.0000000E+000	-37.5757	0.0000000E+000	0.0000000E+000	0.0000000E+000	37.5757	1.29966	52.4243	-0.000482675
0.316193	799.197	5806.05	5860.79	-82.1625	1221.27	-0.000218181	-0.17435	86.6937	85.0816	3	40	0.00674214	1.15038e-06	0	-0.0415409	0.230935	0.143024	3.88618	5.41081e-06	7.13605e-06	3.61492e-06	7.07978e-06	8.37698e-06	3.28323e-06	26.8677	69.4929	50.7237	2.49221e-07	9.19182e-08	8.70824e-08	5.19435e-08	4.35965e-08	3.27796e-08	2.3267e-05	0.000169032	0.000170625	82.1625	85081.6	11711.4	85883.9	-7.83746	0.0000000E+000	0.0000000E+000	0.0000000E+000	7.83746	0.0000000E+000	0.0000000E+000	0.0000000E+000	-7.83746	0.0000000E+000	0.0000000E+000	0.0000000E+000	-82.1625	0.0000000E+000	0.0000000E+000	0.0000000E+000	82.1625	0.137649	7.83746	-0.000944585
0.158419	6600.96	2079.43	6920.74	-17.4855	1315.65	-0.000210282	-0.173248	483.136	43.6167	3	40	0.00673873	9.73701e-07	0	-0.0460823	0.223407	0.110881	2.8239	5.16599e-06	8.40125e-06	2.97958e-06	7.8821e-06	2.67443e-06	6.06151e-06	59.4579	108.429	56.3832	4.24307e-07	1.05353e-07	2.308e-07	9.0259e-08	5.23101e-08	5.28521e-08	0.000137817	4.3415e-05	0.000144493	17.4855	43616.7	138457	145165	-72.5145	0.0000000E+000	0.0000000E+000	0.0000000E+000	72.5145	0.0000000E+000	0.0000000E+000	0.0000000E+000	-72.5145	0.0000000E+000	0.0000000E+000	0.0000000E+000	-17.4855	0.0000000E+000	0.0000000E+000	0.0000000E+000	17.4855	3.1744	72.5145	-0.00186939
0.0999518	12735.1	-5417.14	13839.4	23.0435	1425.85	-0.000219494	-0.173481	-293.941	-45.0368	3	40	0.00674121	4.87104e-07	0	-0.0513838	0.208666	0.0615557	2.21072	5.04929e-06	7.35611e-06	4.97703e-06	7.86468e-06	3.76614e-06	3.20217e-06	259.91	187.199	276.582	5.20638e-07	3.46066e-07	4.2039e-07	1.89634e-07	2.36861e-07	9.66663e-08	6.64921e-05	-2.82838e-05	7.22577e-05	-23.0435	-45036.8	105876	115057	-113.043	0.0000000E+000	0.0000000E+000	0.0000000E+000	113.043	0.0000000E+000	0.0000000E+000	0.0000000E+000	-113.043	0.0000000E+000	0.0000000E+000	0.0000000E+000	23.0435	0.0000000E+000	0.0000000E+000	0.0000000E+000	-23.0435	2.35089	66.9565	-0.00295547