File: Python/Data/RDE/240219-CV-EIS-Fe2Fe3_5mM-HCl1M-2000RPM-Ag_AgCl_BLF8-GC-RDE_01_CV_C15.mpt
EC-Lab ASCII FILE
Nb header lines : 60

Cyclic Voltammetry

Run on channel : 15 (SN 19485)
User :
Electrode connection : standard
Potential control : Ewe
Ewe ctrl range : min = -1.00 V, max = 1.00 V
Ewe,I filtering : <None>
Safety Limits :
	Do not start on E overload
Channel : Floating
Acquisition started on : 02/19/2024 17:18:57.744
Loaded Setting File :  C:\Data\mathias\RDE-RPM-variation\240219-CV-EIS-Fe2Fe3_5mM-HCl1M-RPMtest-Ag_AgCl_BLF8-GC-RDE.mps
Saved on :
	File : 240219-CV-EIS-Fe2Fe3_5mM-HCl1M-2000RPM-Ag_AgCl_BLF8-GC-RDE_01_CV_C15.mpr
	Directory : C:\Data\mathias\RDE-RPM-variation\
	Host : 192.168.0.1
Device : VMP-300 (SN 0826)
Address : USB
EC-Lab for windows v11.52 (software)
Internet server v11.52 (firmware)
Command interpretor v11.52 (firmware)
Electrode material :
Initial state :
Electrolyte :
Comments :
Cable : special
Electrode surface area : 0.001 cm²
Characteristic mass : 0.001 g
Equivalent Weight : 0.000 g/eq.
Density : 0.000 g/cm3
Volume (V) : 0.001 cm³
Record EIS quality indicators
Cycle Definition : Charge/Discharge alternance
Ei (V)              0.000
vs.                 Eoc
dE/dt               20.000
dE/dt unit          mV/s
E1 (V)              1.000
vs.                 Ref
Step percent        50
N                   10
E range min (V)     -1.000
E range max (V)     1.000
I Range             Auto
I Range min         Unset
I Range max         Unset
I Range init        Unset
Bandwidth           8
E2 (V)              0.000
vs.                 Ref
nc cycles           2
Reverse Scan        1
Ef (V)              0.000
vs.                 Eoc

mode	ox/red	error	control changes	counter inc.	time/s	control/V	Ewe/V	<I>/mA	cycle number	(Q-Qo)/C	I Range	step time/s	P/W
2	1	0	1	0	0.000000000000000E+000	0.46309	0.462035	0.000360518	1	0.0000000E+000	43	0.000000000000000E+000	1.66572e-07
2	1	0	1	0	0.5186	0.47346	0.4732	0.00214187	1	6.60282e-07	42	0.5048	1.01353e-06
2	1	0	1	0	1.0183	0.483455	0.483347	0.00378977	1	2.14191e-06	42	1.0045	1.83178e-06
2	1	0	1	0	1.5181	0.49345	0.493352	0.00550155	1	4.46019e-06	42	1.5043	2.7142e-06
2	1	0	1	0	2.0179	0.503445	0.503166	0.00733396	1	7.66289e-06	42	2.0041	3.6902e-06
2	1	0	1	0	2.5176	0.51344	0.51352	0.00933838	1	1.1823e-05	42	2.5038	4.79545e-06
2	1	0	1	0	3.0474	0.524035	0.523627	0.0116267	1	1.73892e-05	41	3.0336	6.08804e-06
2	1	0	1	0	3.5471	0.534031	0.53383	0.014141	1	2.38637e-05	41	3.5333	7.54887e-06
2	1	0	1	0	4.0469	0.544026	0.543811	0.0169987	1	3.16786e-05	41	4.0331	9.2441e-06
2	1	0	1	0	4.5467	0.554021	0.553673	0.0202214	1	4.10101e-05	41	4.5329	1.1196e-05
2	1	0	1	0	5.0464	0.564016	0.563665	0.0238986	1	5.20639e-05	41	5.0326	1.34708e-05
2	1	0	1	0	5.5462	0.574012	0.573597	0.0280916	1	6.50804e-05	41	5.5324	1.61133e-05
2	1	0	1	0	6.046	0.584009	0.583388	0.0328253	1	8.03298e-05	41	6.0322	1.91499e-05
2	1	0	1	0	6.5457	0.594002	0.593673	0.038221	1	9.81108e-05	41	6.5319	2.26908e-05
2	1	0	1	0	7.0455	0.603997	0.603617	0.0443083	1	0.000118765	41	7.0317	2.67453e-05
2	1	0	1	0	7.5452	0.613993	0.613598	0.0511211	1	0.000142631	41	7.5314	3.13678e-05
2	1	0	1	0	8.045	0.623988	0.623673	0.0586731	1	0.000170098	41	8.0312	3.65928e-05
2	1	0	1	0	8.5448	0.633983	0.633634	0.0670355	1	0.000201544	41	8.531	4.2476e-05
2	1	0	1	0	9.0445	0.643978	0.643649	0.0760484	1	0.000237326	41	9.0307	4.89485e-05
2	1	0	1	0	9.5443	0.653974	0.653667	0.0857746	1	0.000277811	41	9.5305	5.6068e-05
2	1	0	1	0	10.044	0.663969	0.663641	0.0962026	1	0.000323339	41	10.0302	6.3844e-05
2	1	0	1	0	10.5438	0.673964	0.673545	0.107336	1	0.000374241	41	10.53	7.22956e-05
2	1	0	1	0	11.0736	0.684559	0.684244	0.119796	1	0.000434422	40	11.0598	8.19697e-05
2	1	0	1	0	11.5733	0.694554	0.694285	0.131941	1	0.000497347	40	11.5595	9.16044e-05
2	1	0	1	0	12.0731	0.70455	0.704233	0.144907	1	0.000566587	40	12.0593	0.000102049
2	1	0	1	0	12.5728	0.714545	0.714134	0.158188	1	0.000642324	40	12.559	0.000112967
2	1	0	1	0	13.0726	0.72454	0.724245	0.172061	1	0.000724884	40	13.0588	0.000124614
2	1	0	1	0	13.5724	0.734535	0.734118	0.186627	1	0.000814593	40	13.5586	0.000137006
2	1	0	1	0	14.0721	0.744531	0.744452	0.20165	1	0.000911595	40	14.0583	0.000150119
2	1	0	1	0	14.5719	0.754526	0.754248	0.216857	1	0.00101611	40	14.5581	0.000163564
2	1	0	1	0	15.0716	0.764519	0.764155	0.233382	1	0.00112878	40	15.0578	0.00017834
2	1	0	1	0	15.5714	0.774516	0.774241	0.249761	1	0.00124947	40	15.5576	0.000193375
2	1	0	1	0	16.0712	0.784512	0.78404	0.265529	1	0.00137825	40	16.0574	0.000208185
2	1	0	1	0	16.5709	0.794507	0.794271	0.2816	1	0.00151478	40	16.5571	0.000223667
2	1	0	1	0	17.0707	0.804502	0.80428	0.298174	1	0.00165958	40	17.0569	0.000239815
2	1	0	1	0	17.5705	0.814497	0.814339	0.314657	1	0.00181295	40	17.5567	0.000256238
2	1	0	1	0	18.0702	0.824493	0.824109	0.330273	1	0.00197436	40	18.0564	0.000272181
2	1	0	1	0	18.57	0.834488	0.834271	0.345251	1	0.00214343	40	18.5562	0.000288033
2	1	0	1	0	19.0698	0.844483	0.844374	0.359835	1	0.00231967	40	19.056	0.000303835
2	1	0	1	0	19.5695	0.854478	0.854094	0.375095	1	0.00250363	40	19.5557	0.000320366
2	1	0	1	0	20.0693	0.864474	0.864258	0.388945	1	0.00269477	40	20.0555	0.000336148
2	1	0	1	0	20.569	0.874469	0.874213	0.401614	1	0.0028926	40	20.5552	0.000351096
2	1	0	1	0	21.0688	0.884464	0.883949	0.415601	1	0.00309655	40	21.055	0.00036737
2	1	0	1	0	21.5686	0.894459	0.893971	0.426452	1	0.00330653	40	21.5548	0.000381236
2	1	0	1	0	22.0683	0.904455	0.904049	0.438461	1	0.00352251	40	22.0545	0.00039639
2	1	0	1	0	22.5681	0.91445	0.914286	0.449417	1	0.00374446	40	22.5543	0.000410896
2	1	0	1	0	23.0678	0.924443	0.924045	0.457812	1	0.00397117	40	23.054	0.000423039
2	1	0	1	0	23.5676	0.93444	0.934194	0.468522	1	0.00420295	40	23.5538	0.000437691
2	1	0	1	0	24.0674	0.944435	0.944041	0.478302	1	0.00444013	40	24.0536	0.000451537
2	1	0	1	0	24.5671	0.954431	0.9541	0.485998	1	0.00468105	40	24.5533	0.000463691
2	1	0	1	0	25.0669	0.964426	0.963937	0.493076	1	0.00492613	40	25.0531	0.000475294
2	1	0	1	0	25.5667	0.974421	0.974141	0.500726	1	0.0051751	40	25.5529	0.000487778
2	1	0	1	0	26.0664	0.984416	0.983966	0.506057	1	0.0054264	40	26.0526	0.000497943
2	1	0	1	0	26.5662	0.994412	0.994098	0.515106	1	0.00568162	40	26.5524	0.000512066
2	1	0	1	0	27.0342	0.99621	0.995893	0.514997	1	0.00592316	40	27.0204	0.000512882
2	1	0	1	0	27.5339	0.986216	0.986064	0.505835	1	0.00617775	40	27.5201	0.000498786
2	1	0	1	0	28.0337	0.97622	0.975653	0.49934	1	0.00642956	40	28.0199	0.000487183
2	1	0	1	0	28.5334	0.966225	0.965866	0.489725	1	0.00667707	40	28.5196	0.000473009
2	1	0	1	0	29.0332	0.95623	0.955692	0.480405	1	0.0069201	40	29.0194	0.000459119
2	1	0	1	0	29.533	0.946235	0.945767	0.4747	1	0.00715894	40	29.5192	0.000448956
2	1	0	1	0	30.0327	0.936239	0.935988	0.464848	1	0.00739349	40	30.0189	0.000435092
2	1	0	1	0	30.5325	0.926244	0.925872	0.453272	1	0.00762299	40	30.5187	0.000419672
2	1	0	1	0	31.0322	0.91625	0.915931	0.442553	1	0.00784718	40	31.0184	0.000405348
2	1	0	1	0	31.532	0.906254	0.906004	0.431089	1	0.00806545	40	31.5182	0.000390569
2	1	0	1	0	32.0318	0.896258	0.895883	0.419077	1	0.0082777	40	32.018	0.000375444
2	1	0	1	0	32.5315	0.886263	0.885831	0.405731	1	0.00848387	40	32.5177	0.000359409
2	1	0	1	0	33.0313	0.876268	0.875837	0.39147	1	0.00868343	40	33.0175	0.000342864
2	1	0	1	0	33.5311	0.866273	0.866158	0.380627	1	0.00887593	40	33.5173	0.000329683
2	1	0	1	0	34.0308	0.856277	0.856139	0.364699	1	0.00906169	40	34.017	0.000312233
2	1	0	1	0	34.5306	0.846282	0.846013	0.349493	1	0.00923996	40	34.5168	0.000295676
2	1	0	1	0	35.0304	0.836286	0.836114	0.333584	1	0.00941041	40	35.0166	0.000278914
2	1	0	1	0	35.5301	0.826292	0.825973	0.317088	1	0.00957269	40	35.5163	0.000261906
2	1	0	1	0	36.0299	0.816296	0.815813	0.299638	1	0.00972675	40	36.0161	0.000244449
2	1	0	1	0	36.5296	0.806301	0.806074	0.284876	1	0.00987285	40	36.5158	0.000229631
2	1	0	1	0	37.0294	0.796306	0.795914	0.268483	1	0.0100111	40	37.0156	0.000213689
2	1	0	1	0	37.5292	0.786311	0.785989	0.251361	1	0.0101406	40	37.5154	0.000197567
2	1	0	1	0	38.0289	0.776316	0.77603	0.234516	1	0.0102617	40	38.0151	0.000181991
2	1	0	1	0	38.5287	0.76632	0.766015	0.218281	1	0.0103749	40	38.5149	0.000167206
2	1	0	1	0	39.0284	0.756326	0.756025	0.202849	1	0.0104801	40	39.0146	0.000153359
2	1	0	1	0	39.5282	0.74633	0.746066	0.187713	1	0.0105776	40	39.5144	0.000140046
2	1	0	1	0	40.028	0.736334	0.736047	0.173317	1	0.0106677	40	40.0142	0.00012757
2	1	0	1	0	40.5277	0.726339	0.726191	0.159058	1	0.0107507	40	40.5139	0.000115506
2	1	0	1	0	41.0275	0.716344	0.716194	0.145394	1	0.0108267	40	41.0137	0.00010413
2	1	0	1	0	41.5273	0.706349	0.706299	0.133157	1	0.0108963	40	41.5135	9.4049e-05
2	1	0	1	0	42.027	0.696353	0.696004	0.121235	1	0.0109597	40	42.0132	8.43801e-05
2	1	0	1	0	42.5268	0.686358	0.686207	0.109726	1	0.0110174	40	42.513	7.52948e-05
2	1	0	1	0	43.0266	0.676362	0.675987	0.0988435	1	0.0110694	40	43.0128	6.68169e-05
2	1	0	1	0	43.5263	0.666368	0.665987	0.0885453	1	0.0111161	40	43.5125	5.897e-05
2	1	0	1	0	44.0261	0.656373	0.656031	0.0789945	1	0.011158	40	44.0123	5.18229e-05
2	1	0	1	0	44.5258	0.646377	0.645872	0.0700003	1	0.0111951	40	44.512	4.52112e-05
2	1	0	1	0	45.0256	0.636382	0.636024	0.0615816	1	0.0112278	40	45.0118	3.91674e-05
2	1	0	1	0	45.5254	0.626387	0.626199	0.0538627	1	0.0112566	40	45.5116	3.37288e-05
2	1	0	1	0	46.0251	0.616392	0.616141	0.0469275	1	0.0112817	40	46.0113	2.8914e-05
2	1	0	1	0	46.5549	0.605797	0.605542	0.0402583	1	0.0113047	41	46.5411	2.43781e-05
2	1	0	1	0	47.0546	0.595801	0.595615	0.0347014	1	0.0113233	41	47.0408	2.06686e-05
2	1	0	1	0	47.5544	0.585806	0.585028	0.0297783	1	0.0113393	41	47.5406	1.74211e-05
2	1	0	1	0	48.0542	0.575811	0.575568	0.0253861	1	0.011353	41	48.0404	1.46114e-05
2	1	0	1	0	48.5539	0.565816	0.565543	0.0215446	1	0.0113646	41	48.5401	1.21844e-05
2	1	0	1	0	49.0537	0.55582	0.555461	0.0181683	1	0.0113745	41	49.0399	1.00918e-05
2	1	0	1	0	49.5534	0.545826	0.545393	0.0151593	1	0.0113827	41	49.5396	8.2678e-06
2	1	0	1	0	50.0532	0.53583	0.535707	0.0125345	1	0.0113896	41	50.0394	6.71483e-06
2	1	0	1	0	50.553	0.525835	0.525598	0.0101921	1	0.0113952	41	50.5392	5.35695e-06
2	1	0	1	0	51.0527	0.515839	0.515271	0.00809691	1	0.0113997	41	51.0389	4.1721e-06
2	1	0	1	0	51.5525	0.505844	0.50542	0.00616421	1	0.0114032	41	51.5387	3.11551e-06
2	1	0	1	0	52.0523	0.495849	0.49569	0.00440924	1	0.0114058	41	52.0385	2.18562e-06
2	1	0	1	0	52.582	0.485254	0.484846	0.00256336	1	0.0114076	42	52.5682	1.24284e-06
2	1	0	1	0	53.0818	0.475259	0.474694	0.00099221	1	0.0114085	42	53.068	4.70996e-07
2	0	0	1	0	53.614	0.464614	0.464575	-0.000644263	1	0.0114086	43	0.1749	-2.99308e-07
2	0	0	1	0	54.1438	0.454019	0.453821	-0.00227436	1	0.0114078	42	0.7047	-1.03215e-06
2	0	0	1	0	54.6435	0.444023	0.443672	-0.00385709	1	0.0114063	42	1.2044	-1.71128e-06
2	0	0	1	0	55.1433	0.434028	0.433686	-0.00552715	1	0.0114039	42	1.7042	-2.39704e-06
2	0	0	1	0	55.643	0.424034	0.423876	-0.00733003	1	0.0114007	42	2.2039	-3.10703e-06
2	0	0	1	0	56.1428	0.414038	0.413567	-0.00930887	1	0.0113966	42	2.7037	-3.84984e-06
2	0	0	1	0	56.6726	0.403443	0.403103	-0.0116003	1	0.011391	41	3.2335	-4.67611e-06
2	0	0	1	0	57.1723	0.393447	0.39346	-0.0141068	1	0.0113846	41	3.7332	-5.55048e-06
2	0	0	1	0	57.6721	0.383452	0.382772	-0.0169649	1	0.0113768	41	4.233	-6.49368e-06
2	0	0	1	0	58.1718	0.373458	0.37293	-0.0202718	1	0.0113675	41	4.7327	-7.55997e-06
2	0	0	1	0	58.6716	0.363462	0.363065	-0.0240525	1	0.0113564	41	5.2325	-8.73264e-06
2	0	0	1	0	59.1714	0.353467	0.353025	-0.0283674	1	0.0113433	41	5.7323	-1.00144e-05
2	0	0	1	0	59.6711	0.343471	0.343321	-0.0333741	1	0.0113278	41	6.232	-1.1458e-05
2	0	0	1	0	60.1709	0.333476	0.33316	-0.0390859	1	0.0113097	41	6.7318	-1.30218e-05
2	0	0	1	0	60.6707	0.323481	0.323104	-0.0455568	1	0.0112886	41	7.2316	-1.47196e-05
2	0	0	1	0	61.1704	0.313486	0.313288	-0.0530007	1	0.011264	41	7.7313	-1.66045e-05
2	0	0	1	0	61.6702	0.30349	0.303265	-0.0612951	1	0.0112354	41	8.2311	-1.85886e-05
2	0	0	1	0	62.17	0.293494	0.29334	-0.070735	1	0.0112024	41	8.7309	-2.07494e-05
2	0	0	1	0	62.6697	0.2835	0.283189	-0.0811815	1	0.0111645	41	9.2306	-2.29898e-05
2	0	0	1	0	63.1695	0.273505	0.27323	-0.0927956	1	0.011121	41	9.7304	-2.53545e-05
2	0	0	1	0	63.6692	0.263509	0.263304	-0.105526	1	0.0110715	41	10.2301	-2.77855e-05
2	0	0	1	0	64.199	0.252914	0.252755	-0.120312	1	0.0110117	40	10.7599	-3.04093e-05
2	0	0	1	0	64.6988	0.242917	0.24248	-0.135491	1	0.0109478	40	11.2597	-3.28539e-05
2	0	0	1	0	65.1985	0.232924	0.232489	-0.151155	1	0.0108761	40	11.7594	-3.51419e-05
2	0	0	1	0	65.6983	0.222929	0.222569	-0.168215	1	0.0107962	40	12.2592	-3.74395e-05
2	0	0	1	0	66.198	0.212933	0.212719	-0.185954	1	0.0107077	40	12.7589	-3.95558e-05
2	0	0	1	0	66.6978	0.202938	0.202693	-0.203853	1	0.0106103	40	13.2587	-4.13197e-05
2	0	0	1	0	67.1976	0.192943	0.192694	-0.222132	1	0.0105038	40	13.7585	-4.28036e-05
2	0	0	1	0	67.6973	0.182948	0.182692	-0.241353	1	0.0103878	40	14.2582	-4.40932e-05
2	0	0	1	0	68.1971	0.172952	0.172649	-0.259354	1	0.0102626	40	14.758	-4.47771e-05
2	0	0	1	0	68.6968	0.162957	0.162642	-0.279418	1	0.0101279	40	15.2577	-4.54451e-05
2	0	0	1	0	69.1966	0.152962	0.152623	-0.296132	1	0.00998404	40	15.7575	-4.51966e-05
2	0	0	1	0	69.6964	0.142967	0.142884	-0.314079	1	0.00983137	40	16.2573	-4.4877e-05
2	0	0	1	0	70.1961	0.132971	0.133055	-0.330941	1	0.00966997	40	16.757	-4.40334e-05
2	0	0	1	0	70.6959	0.122976	0.122897	-0.347187	1	0.00950046	40	17.2568	-4.26681e-05
2	0	0	1	0	71.1957	0.112981	0.112912	-0.361525	1	0.00932313	40	17.7566	-4.08206e-05
2	0	0	1	0	71.6954	0.102986	0.102704	-0.376396	1	0.00913845	40	18.2563	-3.86573e-05
2	0	0	1	0	72.1952	0.0929905	0.0929109	-0.390999	1	0.00894634	40	18.7561	-3.63281e-05
2	0	0	1	0	72.6949	0.0829952	0.0827098	-0.403442	1	0.00874823	40	19.2558	-3.33686e-05
2	0	0	1	0	73.1947	0.0729999	0.072692	-0.414861	1	0.00854374	40	19.7556	-3.01571e-05
2	0	0	1	0	73.6945	0.0630047	0.0628053	-0.42477	1	0.00833377	40	20.2554	-2.66778e-05
2	0	0	1	0	74.1942	0.0530095	0.0526446	-0.435412	1	0.0081186	40	20.7551	-2.29221e-05
2	0	0	1	0	74.694	0.0430142	0.0429287	-0.444407	1	0.0078983	40	21.2549	-1.90778e-05
2	0	0	1	0	75.1938	0.033019	0.0329144	-0.453404	1	0.00767409	40	21.7547	-1.49236e-05
2	0	0	1	0	75.6935	0.0230237	0.022806	-0.460966	1	0.00744613	40	22.2544	-1.05128e-05
2	0	0	1	0	76.1933	0.0130285	0.0126419	-0.465392	1	0.0072147	40	22.7542	-5.88344e-06
2	0	0	1	0	76.693	0.00303323	0.0027454	-0.472978	1	0.00698008	40	23.2539	-1.29851e-06
2	0	0	1	1	77.1585	0.00628168	0.00615247	-0.468869	1	0.00676124	40	23.7194	-2.8847e-06
2	0	0	1	1	77.6582	0.0162769	0.0161311	-0.462866	1	0.006529	40	24.2191	-7.46651e-06
2	0	0	1	1	78.158	0.0262722	0.0260854	-0.45356	1	0.00629956	40	24.7189	-1.18313e-05
2	0	0	1	1	78.6578	0.0362674	0.03605	-0.446663	1	0.0060743	40	25.2187	-1.61022e-05
2	0	0	1	1	79.1575	0.0462627	0.0458936	-0.436439	1	0.00585322	40	25.7184	-2.00298e-05
2	0	0	1	1	79.6573	0.0562579	0.055954	-0.427919	1	0.00563718	40	26.2182	-2.39438e-05
2	0	0	1	1	80.157	0.0662518	0.0658301	-0.418441	1	0.0054256	40	26.7179	-2.7546e-05
2	0	0	1	1	80.6568	0.0762484	0.0758817	-0.407755	1	0.00521948	40	27.2177	-3.09412e-05
2	0	0	1	1	81.1566	0.0862437	0.0859934	-0.394892	1	0.0050191	40	27.7175	-3.39581e-05
2	0	0	1	1	81.6563	0.0962389	0.0960523	-0.380503	1	0.00482525	40	28.2172	-3.65482e-05
2	0	0	1	1	82.1561	0.106234	0.106061	-0.367488	1	0.00463827	40	28.717	-3.89761e-05
2	0	0	1	1	82.6559	0.116229	0.116033	-0.354418	1	0.00445785	40	29.2168	-4.11242e-05
2	0	0	1	1	83.1556	0.126225	0.12597	-0.338013	1	0.00428532	40	29.7165	-4.25794e-05
2	0	0	1	1	83.6554	0.13622	0.1359	-0.322505	1	0.00412048	40	30.2163	-4.38284e-05
2	0	0	1	1	84.1552	0.146216	0.146136	-0.302696	1	0.00396406	40	30.7161	-4.42349e-05
2	0	0	1	1	84.6549	0.15621	0.156102	-0.287899	1	0.00381641	40	31.2158	-4.49416e-05
2	0	0	1	1	85.1547	0.166206	0.165938	-0.269632	1	0.00367748	40	31.7156	-4.47421e-05
2	0	0	1	1	85.6544	0.176201	0.175883	-0.251372	1	0.00354731	40	32.2153	-4.42121e-05
2	0	0	1	1	86.1542	0.186196	0.185918	-0.231977	1	0.00342654	40	32.7151	-4.31288e-05
2	0	0	1	1	86.654	0.196191	0.195787	-0.214033	1	0.00331509	40	33.2149	-4.1905e-05
2	0	0	1	1	87.1537	0.206187	0.205975	-0.196578	1	0.00321251	40	33.7146	-4.04901e-05
2	0	0	1	1	87.6535	0.216182	0.215666	-0.178471	1	0.00311889	40	34.2144	-3.84902e-05
2	0	0	1	1	88.1532	0.226176	0.225959	-0.16169	1	0.00303403	40	34.7141	-3.65353e-05
2	0	0	1	1	88.653	0.236172	0.236027	-0.145097	1	0.00295755	40	35.2139	-3.42468e-05
2	0	0	1	1	89.1528	0.246168	0.2459	-0.129934	1	0.00288895	40	35.7137	-3.19508e-05
2	0	0	1	1	89.6525	0.256163	0.255831	-0.115409	1	0.00282782	40	36.2134	-2.95251e-05
2	0	0	1	1	90.1523	0.266158	0.265957	-0.101721	1	0.00277369	40	36.7132	-2.70535e-05
2	0	0	1	1	90.6521	0.276153	0.276127	-0.0894623	1	0.00272608	40	37.213	-2.4703e-05
2	0	0	1	1	91.1518	0.286149	0.285894	-0.0779483	1	0.00268437	40	37.7127	-2.22849e-05
2	0	0	1	1	91.6516	0.296144	0.295868	-0.0678783	1	0.00264804	40	38.2125	-2.0083e-05
2	0	0	1	1	92.1514	0.30614	0.305771	-0.0585295	1	0.00261654	40	38.7123	-1.78967e-05
2	0	0	1	1	92.6511	0.316134	0.315775	-0.0505391	1	0.00258938	40	39.212	-1.5959e-05
2	0	0	1	1	93.1809	0.326729	0.326579	-0.0428217	1	0.00256476	41	39.7418	-1.39846e-05
2	0	0	1	1	93.6806	0.336725	0.336495	-0.0364974	1	0.00254501	41	40.2415	-1.22812e-05
2	0	0	1	1	94.1804	0.34672	0.34661	-0.0309141	1	0.00252823	41	40.7413	-1.07151e-05
2	0	0	1	1	94.6802	0.356716	0.356732	-0.0260242	1	0.00251405	41	41.2411	-9.28367e-06
2	0	0	1	1	95.1799	0.36671	0.366607	-0.0217739	1	0.00250216	41	41.7408	-7.98246e-06
2	0	0	1	1	95.6797	0.376706	0.37663	-0.0180547	1	0.00249225	41	42.2406	-6.79994e-06
2	0	0	1	1	96.1794	0.386701	0.386511	-0.0147714	1	0.0024841	41	42.7403	-5.70931e-06
2	0	0	1	1	96.6792	0.396696	0.396574	-0.0119412	1	0.00247747	41	43.2401	-4.73558e-06
2	0	0	1	1	97.179	0.406691	0.406373	-0.00940207	1	0.00247218	41	43.7399	-3.82075e-06
2	0	0	1	1	97.6787	0.416686	0.416243	-0.00717511	1	0.00246808	41	44.2396	-2.98659e-06
2	0	0	1	1	98.1785	0.426682	0.426339	-0.00515125	1	0.00246503	41	44.7394	-2.19618e-06
2	0	0	1	1	98.7082	0.437277	0.436987	-0.00315011	1	0.00246286	42	45.2691	-1.37655e-06
2	0	0	1	1	99.208	0.447272	0.447098	-0.00143608	1	0.00246171	42	45.7689	-6.42066e-07
2	1	0	1	1	99.7377	0.457867	0.457504	0.000304375	1	0.00246142	43	0.0749	1.39253e-07
2	1	0	1	1	100.237	0.467862	0.46746	0.00192893	2	0.00246197	42	0.5747	9.01695e-07
2	1	0	1	1	100.737	0.477857	0.47765	0.00356933	2	0.00246335	42	1.0745	1.70489e-06
2	1	0	1	1	101.237	0.487853	0.487383	0.00527498	2	0.00246555	42	1.5742	2.57094e-06
2	1	0	1	1	101.737	0.497848	0.497606	0.00706817	2	0.00246864	42	2.074	3.51716e-06
2	1	0	1	1	102.237	0.507843	0.50774	0.00901187	2	0.00247265	42	2.5738	4.57569e-06
2	1	0	1	1	102.766	0.518438	0.518078	0.0111777	2	0.00247802	41	3.1035	5.7909e-06
2	1	0	1	1	103.266	0.528433	0.528259	0.0135802	2	0.00248425	41	3.6033	7.17388e-06
2	1	0	1	1	103.766	0.538429	0.538308	0.0162779	2	0.00249174	41	4.103	8.76252e-06
2	1	0	1	1	104.266	0.548424	0.547947	0.019311	2	0.00250066	41	4.6028	1.05814e-05
2	1	0	1	1	104.765	0.558419	0.557995	0.0227203	2	0.00251119	41	5.1026	1.26778e-05
2	1	0	1	1	105.265	0.568414	0.568513	0.0266402	2	0.00252355	41	5.6023	1.51453e-05
2	1	0	1	1	105.765	0.57841	0.57788	0.0310747	2	0.00253801	41	6.1021	1.79575e-05
2	1	0	1	1	106.265	0.588405	0.588052	0.0361162	2	0.00255482	41	6.6018	2.12382e-05
2	1	0	1	1	106.764	0.5984	0.59754	0.0418273	2	0.00257433	41	7.1016	2.49935e-05
2	1	0	1	1	107.264	0.608395	0.608022	0.0482367	2	0.00259686	41	7.6014	2.9329e-05
2	1	0	1	1	107.764	0.618391	0.618384	0.0554036	2	0.00262279	41	8.1011	3.42607e-05
2	1	0	1	1	108.264	0.628386	0.628274	0.06333	2	0.0026525	41	8.6009	3.97886e-05
2	1	0	1	1	108.763	0.63838	0.638359	0.0720533	2	0.00268635	41	9.1006	4.59959e-05
2	1	0	1	1	109.263	0.648376	0.64813	0.0814656	2	0.00272474	41	9.6004	5.28004e-05
2	1	0	1	1	109.763	0.658372	0.658003	0.0914983	2	0.002768	41	10.1002	6.02062e-05
2	1	0	1	1	110.263	0.668367	0.668069	0.102265	2	0.00281643	41	10.5999	6.83198e-05
2	1	0	1	1	110.792	0.678962	0.678673	0.114278	2	0.00287384	40	11.1297	7.75574e-05
2	1	0	1	1	111.292	0.688956	0.68856	0.126294	2	0.00293395	40	11.6294	8.69609e-05
2	1	0	1	1	111.792	0.698952	0.698542	0.139	2	0.00300023	40	12.1292	9.70974e-05
2	1	0	1	1	112.292	0.708947	0.7086	0.151775	2	0.00307292	40	12.629	0.000107548
2	1	0	1	1	112.791	0.718943	0.718535	0.165382	2	0.00315218	40	13.1287	0.000118833
2	1	0	1	1	113.291	0.728938	0.728781	0.179663	2	0.0032385	40	13.6285	0.000130935
2	1	0	1	1	113.791	0.738933	0.738557	0.19406	2	0.0033321	40	14.1283	0.000143324
2	1	0	1	1	114.291	0.748928	0.74876	0.20946	2	0.00343304	40	14.628	0.000156835
2	1	0	1	1	114.791	0.758924	0.758596	0.224805	2	0.00354161	40	15.1278	0.000170536
2	1	0	1	1	115.29	0.76892	0.768756	0.241385	2	0.00365822	40	15.6276	0.000185566
2	1	0	1	1	115.79	0.778914	0.778592	0.258129	2	0.00378306	40	16.1273	0.000200977
2	1	0	1	1	116.29	0.788909	0.788769	0.274031	2	0.00391577	40	16.6271	0.000216147
2	1	0	1	1	116.79	0.798905	0.798574	0.29033	2	0.00405681	40	17.1268	0.00023185
2	1	0	1	1	117.289	0.8089	0.808373	0.30585	2	0.00420582	40	17.6266	0.000247241
2	1	0	1	1	117.789	0.818895	0.818469	0.321731	2	0.00436285	40	18.1264	0.000263327
2	1	0	1	1	118.289	0.82889	0.828633	0.33759	2	0.00452791	40	18.6261	0.000279738
2	1	0	1	1	118.789	0.838886	0.838593	0.35307	2	0.00470052	40	19.1259	0.000296082
2	1	0	1	1	119.288	0.84888	0.848619	0.366745	2	0.00488068	40	19.6256	0.000311227
2	1	0	1	1	119.788	0.858876	0.858356	0.38061	2	0.00506754	40	20.1254	0.000326699
2	1	0	1	1	120.288	0.868871	0.868673	0.393929	2	0.00526187	40	20.6252	0.000342195
2	1	0	1	1	120.788	0.878867	0.878506	0.407391	2	0.00546214	40	21.1249	0.000357896
2	1	0	1	1	121.287	0.888862	0.888715	0.421512	2	0.0056693	40	21.6247	0.000374604
2	1	0	1	1	121.787	0.898857	0.898417	0.431263	2	0.00588229	40	22.1245	0.000387454
2	1	0	1	1	122.287	0.908852	0.908497	0.442789	2	0.00610117	40	22.6242	0.000402273
2	1	0	1	1	122.787	0.918848	0.918409	0.451745	2	0.00632543	40	23.124	0.000414887
2	1	0	1	1	123.287	0.928844	0.928591	0.464661	2	0.00655435	40	23.6238	0.000431479
2	1	0	1	1	123.786	0.938838	0.93872	0.473951	2	0.00678822	40	24.1235	0.000444907
2	1	0	1	1	124.286	0.948833	0.948458	0.481112	2	0.00702742	40	24.6233	0.000456315
2	1	0	1	1	124.786	0.958829	0.958322	0.48917	2	0.00726968	40	25.123	0.000468783
2	1	0	1	1	125.286	0.968824	0.968515	0.496398	2	0.00751683	40	25.6228	0.000480769
2	1	0	1	1	125.785	0.978819	0.978462	0.503978	2	0.00776725	40	26.1226	0.000493123
2	1	0	1	1	126.285	0.988814	0.988509	0.508907	2	0.00802073	40	26.6223	0.000503059
2	1	0	1	1	126.785	0.99881	0.998564	0.516383	2	0.0082775	40	27.1221	0.000515642
2	1	0	1	1	127.258	0.991713	0.991278	0.510103	2	0.00852071	40	27.595	0.000505654
2	1	0	1	1	127.758	0.981718	0.981204	0.505848	2	0.00877369	40	28.0948	0.00049634
2	1	0	1	1	128.257	0.971722	0.971638	0.49182	2	0.00902326	40	28.5946	0.000477871
2	1	0	1	1	128.757	0.961727	0.96147	0.489828	2	0.00926935	40	29.0943	0.000470955
2	1	0	1	1	129.257	0.951732	0.951368	0.475951	2	0.00951038	40	29.5941	0.000452805
2	1	0	1	1	129.757	0.941737	0.941388	0.468261	2	0.0097467	40	30.0939	0.000440815
2	1	0	1	1	130.256	0.931742	0.931437	0.459335	2	0.00997889	40	30.5936	0.000427841
2	1	0	1	1	130.756	0.921746	0.921425	0.449009	2	0.0102054	40	31.0934	0.000413728
2	1	0	1	1	131.256	0.911751	0.911479	0.437775	2	0.0104271	40	31.5931	0.000399022
2	1	0	1	1	131.756	0.901756	0.901229	0.426678	2	0.0106424	40	32.0929	0.000384535
2	1	0	1	1	132.255	0.89176	0.891505	0.413578	2	0.0108522	40	32.5927	0.000368707
2	1	0	1	1	132.755	0.881765	0.881273	0.40025	2	0.0110555	40	33.0924	0.00035273
2	1	0	1	1	133.255	0.87177	0.871149	0.386797	2	0.0112522	40	33.5922	0.000336958
2	1	0	1	1	133.755	0.861775	0.861428	0.371631	2	0.0114415	40	34.092	0.000320133
2	1	0	1	1	134.254	0.85178	0.851377	0.357775	2	0.0116239	40	34.5917	0.000304601
2	1	0	1	1	134.754	0.841784	0.841707	0.341707	2	0.0117985	40	35.0915	0.000287617
2	1	0	1	1	135.254	0.831789	0.831517	0.324758	2	0.0119649	40	35.5912	0.000270042
2	1	0	1	1	135.754	0.821794	0.821607	0.310314	2	0.0121237	40	36.091	0.000254956
2	1	0	1	1	136.254	0.811799	0.811386	0.293078	2	0.0122744	40	36.5908	0.000237799
2	1	0	1	1	136.753	0.801803	0.801517	0.276462	2	0.0124167	40	37.0905	0.000221589
2	1	0	1	1	137.253	0.791808	0.791569	0.259759	2	0.0125508	40	37.5903	0.000205617
2	1	0	1	1	137.753	0.781813	0.78168	0.242895	2	0.0126764	40	38.0901	0.000189866
2	1	0	1	1	138.253	0.771818	0.771494	0.226765	2	0.0127938	40	38.5898	0.000174948
2	1	0	1	1	138.752	0.761822	0.761401	0.210983	2	0.0129032	40	39.0896	0.000160643
2	1	0	1	1	139.252	0.751827	0.75157	0.195423	2	0.0130047	40	39.5893	0.000146874
2	1	0	1	1	139.752	0.741832	0.74145	0.180706	2	0.0130985	40	40.0891	0.000133985
2	1	0	1	1	140.252	0.731837	0.731398	0.166593	2	0.0131852	40	40.5889	0.000121846
2	1	0	1	1	140.751	0.721841	0.721524	0.152529	2	0.0132648	40	41.0886	0.000110053
2	1	0	1	1	141.251	0.711846	0.711717	0.139811	2	0.0133379	40	41.5884	9.95059e-05
2	1	0	1	1	141.751	0.701851	0.701295	0.127547	2	0.0134045	40	42.0882	8.94478e-05
2	1	0	1	1	142.251	0.691856	0.691383	0.115698	2	0.0134652	40	42.5879	7.99916e-05
2	1	0	1	1	142.75	0.68186	0.681486	0.10449	2	0.0135202	40	43.0877	7.12087e-05
2	1	0	1	1	143.25	0.671865	0.671656	0.0940158	2	0.0135697	40	43.5874	6.31463e-05
2	1	0	1	1	143.75	0.66187	0.661624	0.0841864	2	0.0136141	40	44.0872	5.56998e-05
2	1	0	1	1	144.25	0.651875	0.651225	0.0746889	2	0.0136536	40	44.587	4.86392e-05
2	1	0	1	1	144.749	0.641879	0.641709	0.0659327	2	0.0136887	40	45.0867	4.23096e-05
2	1	0	1	1	145.249	0.631884	0.631399	0.0579979	2	0.0137196	40	45.5865	3.66198e-05
2	1	0	1	1	145.749	0.621891	0.621605	0.0505292	2	0.0137466	40	46.0862	3.14092e-05
2	1	0	1	1	146.279	0.611294	0.610734	0.0435272	2	0.0137714	41	46.616	2.65836e-05
2	1	0	1	1	146.779	0.601299	0.60106	0.03764	2	0.0137916	41	47.1158	2.26239e-05
2	1	0	1	1	147.278	0.591303	0.59111	0.0323371	2	0.013809	41	47.6155	1.91148e-05
2	1	0	1	1	147.778	0.581308	0.581103	0.0276946	2	0.0138239	41	48.1153	1.60934e-05
2	1	0	1	1	148.278	0.571314	0.570882	0.023601	2	0.0138366	41	48.615	1.34734e-05
2	1	0	1	1	148.778	0.561318	0.560812	0.0199549	2	0.0138474	41	49.1148	1.11909e-05
2	1	0	1	1	149.277	0.551322	0.550842	0.0167686	2	0.0138565	41	49.6146	9.23685e-06
2	1	0	1	1	149.777	0.541327	0.541105	0.0139436	2	0.0138641	41	50.1143	7.54494e-06
2	1	0	1	1	150.277	0.531332	0.531206	0.0114447	2	0.0138704	41	50.6141	6.07952e-06
2	1	0	1	1	150.777	0.521337	0.521157	0.00922689	2	0.0138754	41	51.1139	4.80866e-06
2	1	0	1	1	151.276	0.511342	0.511072	0.00719708	2	0.0138795	41	51.6136	3.67823e-06
2	1	0	1	1	151.776	0.501346	0.501325	0.00535541	2	0.0138826	41	52.1134	2.6848e-06
2	1	0	1	1	152.306	0.490751	0.490429	0.00344584	2	0.0138849	42	52.6431	1.68994e-06
2	1	0	1	1	152.806	0.480756	0.480604	0.00184226	2	0.0138862	42	53.1429	8.85395e-07
2	1	0	1	1	153.335	0.470161	0.469736	0.000171924	2	0.0138867	43	53.6726	8.07591e-08
2	0	0	1	1	153.865	0.459566	0.459252	-0.0014277	2	0.0138864	42	0.4298	-6.55676e-07
2	0	0	1	1	154.365	0.449571	0.449655	-0.00298973	2	0.0138853	42	0.9296	-1.34435e-06
2	0	0	1	1	154.865	0.439576	0.439337	-0.00461078	2	0.0138834	42	1.4293	-2.02569e-06
2	0	0	1	1	155.364	0.42958	0.429349	-0.00633858	2	0.0138807	42	1.9291	-2.72147e-06
2	0	0	1	1	155.864	0.419586	0.419059	-0.00820593	2	0.013877	42	2.4288	-3.43877e-06
2	0	0	1	1	156.364	0.40959	0.409348	-0.0102845	2	0.0138724	42	2.9286	-4.20992e-06
2	0	0	1	1	156.894	0.398995	0.399023	-0.0127034	2	0.0138663	41	3.4584	-5.06896e-06
2	0	0	1	1	157.393	0.389	0.388524	-0.0153812	2	0.0138593	41	3.9581	-5.97596e-06
2	0	0	1	1	157.893	0.379004	0.378809	-0.0184296	2	0.0138508	41	4.4579	-6.98128e-06
2	0	0	1	1	158.393	0.369009	0.369075	-0.0219016	2	0.0138408	41	4.9576	-8.08334e-06
2	0	0	1	1	158.893	0.359014	0.358609	-0.0259201	2	0.0138288	41	5.4574	-9.29519e-06
2	0	0	1	1	159.393	0.349019	0.348627	-0.0304987	2	0.0138147	41	5.9572	-1.06327e-05
2	0	0	1	1	159.892	0.339023	0.33893	-0.035809	2	0.0137981	41	6.4569	-1.21368e-05
2	0	0	1	1	160.392	0.329028	0.32873	-0.0417956	2	0.0137787	41	6.9567	-1.37395e-05
2	0	0	1	1	160.892	0.319033	0.318674	-0.0486926	2	0.0137561	41	7.4565	-1.55171e-05
2	0	0	1	1	161.392	0.309038	0.308454	-0.056456	2	0.0137299	41	7.9562	-1.74141e-05
2	0	0	1	1	161.891	0.299042	0.298699	-0.0653124	2	0.0136995	41	8.456	-1.95088e-05
2	0	0	1	1	162.391	0.289047	0.288836	-0.0750828	2	0.0136644	41	8.9557	-2.16866e-05
2	0	0	1	1	162.891	0.279052	0.278858	-0.08607	2	0.0136241	41	9.4555	-2.40013e-05
2	0	0	1	1	163.391	0.269057	0.268608	-0.0982166	2	0.0135781	41	9.9553	-2.63818e-05
2	0	0	1	1	163.92	0.258462	0.258101	-0.112168	2	0.0135223	40	10.485	-2.89507e-05
2	0	0	1	1	164.42	0.248467	0.247925	-0.126306	2	0.0134627	40	10.9848	-3.13144e-05
2	0	0	1	1	164.92	0.238471	0.238135	-0.142013	2	0.0133956	40	11.4845	-3.38182e-05
2	0	0	1	1	165.42	0.228476	0.228114	-0.158425	2	0.0133204	40	11.9843	-3.6139e-05
2	0	0	1	1	165.919	0.218481	0.218247	-0.175269	2	0.0132369	40	12.4841	-3.82519e-05
2	0	0	1	1	166.419	0.208486	0.208178	-0.193048	2	0.0131448	40	12.9838	-4.01883e-05
2	0	0	1	1	166.919	0.19849	0.198018	-0.211441	2	0.0130436	40	13.4836	-4.1869e-05
2	0	0	1	1	167.419	0.188495	0.188473	-0.230904	2	0.012933	40	13.9834	-4.35192e-05
2	0	0	1	1	167.918	0.1785	0.178231	-0.248745	2	0.0128132	40	14.4831	-4.43339e-05
2	0	0	1	1	168.418	0.168505	0.168583	-0.267571	2	0.0126842	40	14.9829	-4.51079e-05
2	0	0	1	1	168.918	0.158509	0.15808	-0.285549	2	0.012546	40	15.4826	-4.51395e-05
2	0	0	1	1	169.418	0.148514	0.148515	-0.304134	2	0.0123987	40	15.9824	-4.51684e-05
2	0	0	1	1	169.918	0.138519	0.138148	-0.32152	2	0.0122423	40	16.4822	-4.44173e-05
2	0	0	1	1	170.417	0.128524	0.128336	-0.338179	2	0.0120773	40	16.9819	-4.34006e-05
2	0	0	1	1	170.917	0.118528	0.118257	-0.35335	2	0.0119048	40	17.4817	-4.17861e-05
2	0	0	1	1	171.417	0.108534	0.108273	-0.367028	2	0.0117245	40	17.9814	-3.97392e-05
2	0	0	1	1	171.917	0.0985378	0.0983024	-0.383569	2	0.0115369	40	18.4812	-3.77057e-05
2	0	0	1	1	172.416	0.0885426	0.0881571	-0.396846	2	0.0113418	40	18.981	-3.49848e-05
2	0	0	1	1	172.916	0.0785473	0.0783751	-0.405926	2	0.0111407	40	19.4807	-3.18145e-05
2	0	0	1	1	173.416	0.0685521	0.068309	-0.418939	2	0.010934	40	19.9805	-2.86173e-05
2	0	0	1	1	173.916	0.0585568	0.058579	-0.429977	2	0.0107216	40	20.4803	-2.51876e-05
2	0	0	1	1	174.415	0.0485616	0.0481431	-0.439382	2	0.0105046	40	20.98	-2.11532e-05
2	0	0	1	1	174.915	0.0385663	0.0384585	-0.4495	2	0.0102827	40	21.4798	-1.72871e-05
2	0	0	1	1	175.415	0.0285702	0.0282693	-0.458513	2	0.0100561	40	21.9796	-1.29619e-05
2	0	0	1	1	175.915	0.0185758	0.0182943	-0.466692	2	0.00982538	40	22.4793	-8.53783e-06
2	0	0	1	1	176.414	0.00858059	0.00825622	-0.470072	2	0.00959137	40	22.9791	-3.88102e-06
2	0	0	1	0	176.882	0.000784296	0.000386162	-0.475956	2	0.0093703	40	23.447	-1.83796e-07
2	0	0	1	0	177.382	0.0107795	0.010876	-0.466114	2	0.00913542	40	23.9468	-5.06945e-06
2	0	0	1	0	177.882	0.0207748	0.0204889	-0.458882	2	0.00890367	40	24.4465	-9.40196e-06
2	0	0	1	0	178.382	0.03077	0.0304839	-0.450512	2	0.00867618	40	24.9463	-1.37333e-05
2	0	0	1	0	178.881	0.0407653	0.0404159	-0.443604	2	0.00845346	40	25.4461	-1.79287e-05
2	0	0	1	0	179.381	0.0507605	0.0503913	-0.434224	2	0.0082344	40	25.9458	-2.18811e-05
2	0	0	1	0	179.881	0.0607558	0.0603603	-0.422032	2	0.0080198	40	26.4456	-2.5474e-05
2	0	0	1	0	180.381	0.0707528	0.0706388	-0.414426	2	0.00781081	40	26.9454	-2.92745e-05
2	0	0	1	0	180.88	0.0807463	0.0804831	-0.402201	2	0.00760694	40	27.4451	-3.23704e-05
2	0	0	1	0	181.38	0.0907415	0.0904515	-0.389536	2	0.00740916	40	27.9449	-3.52341e-05
2	0	0	1	0	181.88	0.100737	0.100561	-0.373705	2	0.0072181	40	28.4446	-3.758e-05
2	0	0	1	0	182.38	0.110732	0.110584	-0.362254	2	0.00703419	40	28.9444	-4.00593e-05
2	0	0	1	0	182.88	0.120727	0.120195	-0.345575	2	0.00685721	40	29.4442	-4.15364e-05
2	0	0	1	0	183.379	0.130722	0.130511	-0.33081	2	0.00668813	40	29.9439	-4.31745e-05
2	0	0	1	0	183.879	0.140718	0.140202	-0.312661	2	0.00652714	40	30.4437	-4.38355e-05
2	0	0	1	0	184.379	0.150713	0.150646	-0.296497	2	0.00637453	40	30.9434	-4.46662e-05
2	0	0	1	0	184.879	0.160708	0.160491	-0.279415	2	0.00623059	40	31.4432	-4.48435e-05
2	0	0	1	0	185.378	0.170703	0.170201	-0.260215	2	0.00609593	40	31.943	-4.4289e-05
2	0	0	1	0	185.878	0.180699	0.180314	-0.242273	2	0.00597058	40	32.4427	-4.36852e-05
2	0	0	1	0	186.378	0.190694	0.190459	-0.224069	2	0.00585416	40	32.9425	-4.2676e-05
2	0	0	1	0	186.878	0.200689	0.200562	-0.206203	2	0.00574671	40	33.4423	-4.13565e-05
2	0	0	1	0	187.377	0.210684	0.210433	-0.18785	2	0.00564842	40	33.942	-3.95297e-05
2	0	0	1	0	187.877	0.22068	0.220444	-0.170125	2	0.00555895	40	34.4418	-3.75031e-05
2	0	0	1	0	188.377	0.230675	0.23054	-0.15349	2	0.00547811	40	34.9415	-3.53856e-05
2	0	0	1	0	188.877	0.24067	0.240439	-0.137732	2	0.00540544	40	35.4413	-3.3116e-05
2	0	0	1	0	189.376	0.250665	0.250304	-0.122687	2	0.00534048	40	35.9411	-3.0709e-05
2	0	0	1	0	189.876	0.260661	0.260354	-0.108718	2	0.00528275	40	36.4408	-2.83052e-05
2	0	0	1	0	190.376	0.270656	0.270483	-0.0954128	2	0.00523177	40	36.9406	-2.58075e-05
2	0	0	1	0	190.876	0.280651	0.280309	-0.0838376	2	0.00518702	40	37.4404	-2.35004e-05
2	0	0	1	0	191.375	0.290646	0.290184	-0.072931	2	0.00514797	40	37.9401	-2.11634e-05
2	0	0	1	0	191.875	0.300642	0.300324	-0.063223	2	0.00511402	40	38.4399	-1.89874e-05
2	0	0	1	0	192.375	0.310637	0.310139	-0.0545012	2	0.00508466	40	38.9396	-1.69029e-05
2	0	0	1	0	192.875	0.320632	0.320435	-0.0469122	2	0.00505938	40	39.4394	-1.50323e-05
2	0	0	1	0	193.405	0.331228	0.331056	-0.0397271	2	0.00503649	41	39.9692	-1.31519e-05
2	0	0	1	0	193.904	0.341222	0.340723	-0.0337762	2	0.00501818	41	40.4689	-1.15083e-05
2	0	0	1	0	194.404	0.351218	0.35094	-0.0285502	2	0.00500267	41	40.9687	-1.00194e-05
2	0	0	1	0	194.904	0.361213	0.360905	-0.0239591	2	0.0049896	41	41.4684	-8.64694e-06
2	0	0	1	0	195.404	0.371208	0.371089	-0.0199981	2	0.00497867	41	41.9682	-7.42106e-06
2	0	0	1	0	195.903	0.381203	0.381463	-0.0164764	2	0.00496961	41	42.468	-6.28514e-06
2	0	0	1	0	196.403	0.391199	0.390833	-0.0134104	2	0.00496219	41	42.9677	-5.24124e-06
2	0	0	1	0	196.903	0.401194	0.400846	-0.0107125	2	0.0049562	41	43.4675	-4.29408e-06
2	0	0	1	0	197.403	0.411188	0.41076	-0.00832691	2	0.00495148	41	43.9672	-3.42036e-06
2	0	0	1	0	197.902	0.421184	0.42093	-0.00621347	2	0.00494788	41	44.467	-2.61544e-06
2	0	0	1	0	198.432	0.431779	0.431186	-0.00412355	2	0.00494517	42	44.9968	-1.77802e-06
2	0	0	1	0	198.932	0.441775	0.441586	-0.00235727	2	0.00494356	42	45.4965	-1.04094e-06
2	0	0	1	0	199.432	0.45177	0.451407	-0.000683749	2	0.0049428	42	45.9963	-3.08649e-07
2	1	0	0	0	199.943	0.46199	0.461607	0.000976646	3	0.00494288	43	0.281	4.50827e-07
2	1	0	1	0	200.461	0.47236	0.472304	0.00265571	3	0.00494382	42	0.7996	1.2543e-06
2	1	0	1	0	200.961	0.482355	0.48194	0.00431803	3	0.00494556	42	1.2994	2.08103e-06
2	1	0	1	0	201.461	0.492351	0.492161	0.00604469	3	0.00494815	42	1.7991	2.97496e-06
2	1	0	1	0	201.96	0.502346	0.502503	0.00789484	3	0.00495163	42	2.2989	3.96718e-06
2	1	0	1	0	202.46	0.512341	0.511842	0.0099139	3	0.00495607	42	2.7986	5.07434e-06
2	1	0	1	0	202.99	0.522936	0.522825	0.0122	3	0.00496194	41	3.3284	6.37845e-06
2	1	0	1	0	203.49	0.532931	0.53274	0.0147039	3	0.00496869	41	3.8282	7.83336e-06
2	1	0	1	0	203.989	0.542926	0.542684	0.0175195	3	0.00497676	41	4.3279	9.50756e-06
2	1	0	1	0	204.489	0.552922	0.552382	0.0206855	3	0.00498633	41	4.8277	1.14263e-05
2	1	0	1	0	204.989	0.562917	0.562489	0.0242837	3	0.0049976	41	5.3274	1.36593e-05
2	1	0	1	0	205.489	0.572912	0.572769	0.0283856	3	0.0050108	41	5.8272	1.62584e-05
2	1	0	1	0	205.989	0.582907	0.582638	0.0330693	3	0.00502619	41	6.327	1.92674e-05
2	1	0	1	0	206.488	0.592903	0.592678	0.0383623	3	0.00504407	41	6.8267	2.27365e-05
2	1	0	1	0	206.988	0.602898	0.60248	0.044336	3	0.00506477	41	7.3265	2.67116e-05
2	1	0	1	0	207.488	0.612893	0.612583	0.0510487	3	0.00508865	41	7.8263	3.12716e-05
2	1	0	1	0	207.988	0.622888	0.622737	0.0585161	3	0.00511605	41	8.326	3.64402e-05
2	1	0	1	0	208.487	0.632884	0.632703	0.0667168	3	0.00514738	41	8.8258	4.22119e-05
2	1	0	1	0	208.987	0.642879	0.642439	0.0756924	3	0.00518299	41	9.3255	4.86278e-05
2	1	0	1	0	209.487	0.652874	0.652387	0.0853551	3	0.00522328	41	9.8253	5.56846e-05
2	1	0	1	0	209.987	0.662869	0.662525	0.0957548	3	0.00526855	41	10.3251	6.34399e-05
2	1	0	1	0	210.486	0.672865	0.672681	0.10663	3	0.00531912	41	10.8248	7.17282e-05
2	1	0	1	0	211.016	0.68346	0.68289	0.118848	3	0.00537889	40	11.3546	8.11604e-05
2	1	0	1	0	211.516	0.693455	0.692995	0.130812	3	0.00544133	40	11.8543	9.06523e-05
2	1	0	1	0	212.016	0.70345	0.702847	0.143744	3	0.00550997	40	12.3541	0.00010103
2	1	0	1	0	212.515	0.713445	0.713356	0.156584	3	0.00558505	40	12.8539	0.0001117
2	1	0	1	0	213.015	0.723441	0.723381	0.17062	3	0.00566681	40	13.3536	0.000123423
2	1	0	1	0	213.515	0.733436	0.733306	0.184799	3	0.00575577	40	13.8534	0.000135514
2	1	0	1	0	214.015	0.743431	0.74318	0.199627	3	0.00585195	40	14.3532	0.000148358
2	1	0	1	0	214.514	0.753426	0.752915	0.214859	3	0.0059557	40	14.8529	0.00016177
2	1	0	1	0	215.014	0.763422	0.76305	0.231127	3	0.00606722	40	15.3527	0.000176362
2	1	0	1	0	215.514	0.773417	0.77316	0.246302	3	0.00618668	40	15.8524	0.000190431
2	1	0	1	0	216.014	0.783412	0.783129	0.263606	3	0.0063143	40	16.3522	0.000206437
2	1	0	1	0	216.514	0.793407	0.793193	0.279251	3	0.00645	40	16.852	0.0002215
2	1	0	1	0	217.013	0.803403	0.803092	0.296042	3	0.00659376	40	17.3517	0.000237749
2	1	0	1	0	217.513	0.813398	0.813165	0.312488	3	0.00674583	40	17.8515	0.000254104
2	1	0	1	0	218.013	0.823391	0.822869	0.328473	3	0.00690578	40	18.3512	0.00027029
2	1	0	1	0	218.513	0.833388	0.832931	0.342542	3	0.00707346	40	18.851	0.000285313
2	1	0	1	0	219.012	0.843384	0.84313	0.358414	3	0.00724888	40	19.3508	0.00030219
2	1	0	1	0	219.512	0.853379	0.852933	0.3733	3	0.00743135	40	19.8505	0.0003184
2	1	0	1	0	220.012	0.863374	0.863199	0.385821	3	0.00762105	40	20.3503	0.00033304
2	1	0	1	0	220.512	0.873369	0.873199	0.399187	3	0.00781722	40	20.8501	0.000348569
2	1	0	1	0	221.011	0.883365	0.883098	0.410382	3	0.00801988	40	21.3498	0.000362407
2	1	0	1	0	221.511	0.89336	0.893105	0.425145	3	0.00822966	40	21.8496	0.000379699
2	1	0	1	0	222.011	0.903355	0.903154	0.433825	3	0.00844511	40	22.3494	0.000391811
2	1	0	1	0	222.511	0.91335	0.912975	0.447005	3	0.00866529	40	22.8491	0.000408105
2	1	0	1	0	223.01	0.923346	0.922981	0.456397	3	0.00889153	40	23.3489	0.000421246
2	1	0	1	0	223.51	0.933341	0.93306	0.463919	3	0.00912206	40	23.8486	0.000432864
2	1	0	1	0	224.01	0.943336	0.942942	0.475984	3	0.00935741	40	24.3484	0.000448826
2	1	0	1	0	224.51	0.953331	0.953032	0.483411	3	0.00959735	40	24.8482	0.000460706
2	1	0	1	0	225.009	0.963327	0.963216	0.490148	3	0.00984103	40	25.3479	0.000472119
2	1	0	1	0	225.509	0.973322	0.97284	0.501433	3	0.0100889	40	25.8477	0.000487814
2	1	0	1	0	226.009	0.983316	0.982848	0.507471	3	0.0103408	40	26.3474	0.000498766
2	1	0	1	0	226.509	0.993312	0.993111	0.511134	3	0.0105955	40	26.8472	0.000507613
2	1	0	1	0	226.982	0.99721	0.996812	0.51442	3	0.0108395	40	27.3202	0.00051278
2	1	0	1	0	227.481	0.987215	0.987011	0.506463	3	0.0110941	40	27.8199	0.000499884
2	1	0	1	0	227.981	0.97722	0.976782	0.49622	3	0.0113442	40	28.3197	0.000484699
2	1	0	1	0	228.481	0.967225	0.966869	0.492508	3	0.011591	40	28.8195	0.000476191
2	1	0	1	0	228.981	0.957229	0.956969	0.483972	3	0.0118346	40	29.3192	0.000463146
2	1	0	1	0	229.481	0.947234	0.946816	0.475225	3	0.0120733	40	29.819	0.00044995
2	1	0	1	0	229.98	0.937238	0.93735	0.465433	3	0.0123073	40	30.3188	0.000436274
2	1	0	1	0	230.48	0.927244	0.926995	0.452214	3	0.0125365	40	30.8185	0.0004192
2	1	0	1	0	230.98	0.917248	0.916948	0.442145	3	0.0127601	40	31.3183	0.000405424
2	1	0	1	0	231.48	0.907253	0.906916	0.431603	3	0.0129787	40	31.818	0.000391427
2	1	0	1	0	231.979	0.897258	0.897058	0.419391	3	0.0131912	40	32.3178	0.000376218
2	1	0	1	0	232.479	0.887263	0.886811	0.404351	3	0.0133968	40	32.8176	0.000358583
2	1	0	1	0	232.979	0.877267	0.876985	0.392002	3	0.0135962	40	33.3173	0.00034378
2	1	0	1	0	233.479	0.867272	0.866892	0.379789	3	0.0137889	40	33.8171	0.000329236
2	1	0	1	0	233.978	0.857278	0.856869	0.362371	3	0.013974	40	34.3168	0.000310504
2	1	0	1	0	234.478	0.847282	0.846971	0.348432	3	0.0141513	40	34.8166	0.000295112
2	1	0	1	0	234.978	0.837286	0.836962	0.33352	3	0.0143213	40	35.3164	0.000279143
2	1	0	1	0	235.478	0.827291	0.826958	0.316344	3	0.0144837	40	35.8161	0.000261603
2	1	0	1	0	235.977	0.817296	0.817395	0.300072	3	0.0146379	40	36.3159	0.000245277
2	1	0	1	0	236.477	0.807301	0.807024	0.283322	3	0.0147838	40	36.8157	0.000228648
2	1	0	1	0	236.977	0.797305	0.797258	0.266733	3	0.0149212	40	37.3154	0.000212655
2	1	0	1	0	237.477	0.78731	0.78708	0.250672	3	0.0150502	40	37.8152	0.000197299
2	1	0	1	0	237.977	0.777314	0.777076	0.233832	3	0.0151713	40	38.315	0.000181705
2	1	0	1	0	238.476	0.76732	0.76696	0.21829	3	0.0152841	40	38.8147	0.00016742
2	1	0	1	0	238.976	0.757324	0.756906	0.202201	3	0.0153891	40	39.3145	0.000153047
2	1	0	1	0	239.476	0.747329	0.746895	0.187235	3	0.0154864	40	39.8142	0.000139845
2	1	0	1	0	239.976	0.737334	0.737073	0.172533	3	0.0155764	40	40.314	0.000127169
2	1	0	1	0	240.475	0.727339	0.726918	0.158809	3	0.0156591	40	40.8138	0.000115441
2	1	0	1	0	240.975	0.717344	0.716985	0.14566	3	0.0157351	40	41.3135	0.000104436
2	1	0	1	0	241.475	0.707348	0.706914	0.132725	3	0.0158045	40	41.8133	9.38251e-05
2	1	0	1	0	241.975	0.697354	0.697189	0.120723	3	0.0158678	40	42.313	8.41668e-05
2	1	0	1	0	242.474	0.687358	0.687118	0.109692	3	0.0159252	40	42.8128	7.53715e-05
2	1	0	1	0	242.974	0.677363	0.677219	0.0988375	3	0.0159772	40	43.3126	6.69347e-05
2	1	0	1	0	243.474	0.667367	0.667121	0.0885669	3	0.016024	40	43.8123	5.90849e-05
2	1	0	1	0	243.974	0.657372	0.657153	0.0789076	3	0.0160658	40	44.3121	5.18544e-05
2	1	0	1	0	244.473	0.647377	0.647024	0.0699174	3	0.0161029	40	44.8119	4.52382e-05
2	1	0	1	0	244.973	0.637382	0.637052	0.0616555	3	0.0161357	40	45.3116	3.92777e-05
2	1	0	1	0	245.473	0.627386	0.627052	0.0539942	3	0.0161645	40	45.8114	3.38572e-05
2	1	0	1	0	245.973	0.61739	0.617277	0.0469806	3	0.0161896	40	46.3112	2.9e-05
2	1	0	1	0	246.502	0.606796	0.606688	0.0403748	3	0.0162127	41	46.8409	2.44949e-05
2	1	0	1	0	247.002	0.596801	0.596447	0.0348271	3	0.0162314	41	47.3407	2.07725e-05
2	1	0	1	0	247.502	0.586806	0.586623	0.0298857	3	0.0162474	41	47.8404	1.75316e-05
2	1	0	1	0	248.002	0.57681	0.576471	0.025522	3	0.0162612	41	48.3402	1.47127e-05
2	1	0	1	0	248.501	0.566815	0.566792	0.0216552	3	0.0162729	41	48.8399	1.2274e-05
2	1	0	1	0	249.001	0.55682	0.556522	0.0182867	3	0.0162828	41	49.3397	1.0177e-05
2	1	0	1	0	249.501	0.546825	0.546441	0.0152921	3	0.0162911	41	49.8395	8.35623e-06
2	1	0	1	0	250.001	0.536829	0.536498	0.0126838	3	0.016298	41	50.3392	6.80483e-06
2	1	0	1	0	250.501	0.526834	0.526484	0.0103125	3	0.0163037	41	50.839	5.42935e-06
2	1	0	1	0	251	0.516839	0.516812	0.00819321	3	0.0163082	41	51.3388	4.23435e-06
2	1	0	1	0	251.5	0.506844	0.506441	0.00631873	3	0.0163118	41	51.8385	3.20007e-06
2	1	0	1	0	252	0.496848	0.496512	0.00453775	3	0.0163144	41	52.3383	2.25305e-06
2	1	0	1	0	252.53	0.486253	0.485886	0.00268396	3	0.0163163	42	52.868	1.3041e-06
2	1	0	1	0	253.029	0.476258	0.476088	0.00111631	3	0.0163172	42	53.3678	5.31461e-07
2	0	0	1	0	253.559	0.465663	0.465134	-0.000504223	3	0.0163174	43	0.1499	-2.34531e-07
2	0	0	1	0	254.089	0.455068	0.454881	-0.00212017	3	0.0163167	42	0.6797	-9.64425e-07
2	0	0	1	0	254.589	0.445074	0.444554	-0.0036911	3	0.0163153	42	1.1794	-1.64089e-06
2	0	0	1	0	255.088	0.435078	0.434844	-0.00534379	3	0.016313	42	1.6792	-2.32372e-06
2	0	0	1	0	255.588	0.425082	0.424387	-0.00711675	3	0.0163099	42	2.179	-3.02025e-06
2	0	0	1	0	256.088	0.415087	0.414757	-0.00905909	3	0.0163059	42	2.6787	-3.75733e-06
2	0	0	1	0	256.618	0.404492	0.40438	-0.011308	3	0.0163005	41	3.2085	-4.57274e-06
2	0	0	1	0	257.117	0.394498	0.394002	-0.0137504	3	0.0162942	41	3.7082	-5.41769e-06
2	0	0	1	0	257.617	0.384502	0.384317	-0.0165953	3	0.0162866	41	4.208	-6.37787e-06
2	0	0	1	0	258.117	0.374507	0.37431	-0.019797	3	0.0162775	41	4.7078	-7.41022e-06
2	0	0	1	0	258.617	0.364511	0.364142	-0.023506	3	0.0162666	41	5.2075	-8.55952e-06
2	0	0	1	0	259.116	0.354516	0.353883	-0.0277045	3	0.0162538	41	5.7073	-9.80416e-06
2	0	0	1	0	259.616	0.344521	0.344428	-0.0325991	3	0.0162388	41	6.2071	-1.12281e-05
2	0	0	1	0	260.116	0.334526	0.334361	-0.0381345	3	0.0162211	41	6.7068	-1.27507e-05
2	0	0	1	0	260.616	0.32453	0.324037	-0.0444481	3	0.0162005	41	7.2066	-1.44028e-05
2	0	0	1	0	261.116	0.314534	0.314059	-0.0516921	3	0.0161764	41	7.7064	-1.62344e-05
2	0	0	1	0	261.615	0.30454	0.304427	-0.0598897	3	0.0161486	41	8.2061	-1.82321e-05
2	0	0	1	0	262.115	0.294545	0.294262	-0.0690008	3	0.0161164	41	8.7059	-2.03043e-05
2	0	0	1	0	262.615	0.284549	0.284343	-0.079272	3	0.0160793	41	9.2056	-2.25405e-05
2	0	0	1	0	263.115	0.274554	0.274312	-0.0906136	3	0.0160369	41	9.7054	-2.48564e-05
2	0	0	1	0	263.614	0.264559	0.264261	-0.103206	3	0.0159884	41	10.2052	-2.72733e-05
2	0	0	1	0	264.144	0.253964	0.253663	-0.117687	3	0.0159299	40	10.7349	-2.98529e-05
2	0	0	1	0	264.644	0.243969	0.243554	-0.132387	3	0.0158673	40	11.2347	-3.22433e-05
2	0	0	1	0	265.144	0.233973	0.233488	-0.148451	3	0.0157971	40	11.7344	-3.46615e-05
2	0	0	1	0	265.643	0.223978	0.223621	-0.164959	3	0.0157189	40	12.2342	-3.68883e-05
2	0	0	1	0	266.143	0.213983	0.213884	-0.182145	3	0.0156321	40	12.734	-3.89578e-05
2	0	0	1	0	266.643	0.203988	0.203831	-0.200357	3	0.0155364	40	13.2337	-4.0839e-05
2	0	0	1	0	267.143	0.193992	0.193899	-0.218614	3	0.0154317	40	13.7335	-4.23892e-05
2	0	0	1	0	267.642	0.183997	0.183792	-0.237728	3	0.0153176	40	14.2332	-4.36926e-05
2	0	0	1	0	268.142	0.174002	0.173817	-0.256226	3	0.0151941	40	14.733	-4.45364e-05
2	0	0	1	0	268.642	0.164007	0.163763	-0.274713	3	0.0150614	40	15.2328	-4.49877e-05
2	0	0	1	0	269.142	0.154011	0.153621	-0.292612	3	0.0149192	40	15.7325	-4.49513e-05
2	0	0	1	0	269.641	0.144016	0.143799	-0.310855	3	0.014768	40	16.2323	-4.47007e-05
2	0	0	1	0	270.141	0.134021	0.133758	-0.328129	3	0.0146084	40	16.7321	-4.38898e-05
2	0	0	1	0	270.641	0.124026	0.123873	-0.342827	3	0.0144404	40	17.2318	-4.24671e-05
2	0	0	1	0	271.141	0.11403	0.113513	-0.359949	3	0.0142645	40	17.7316	-4.08589e-05
2	0	0	1	0	271.64	0.104035	0.103612	-0.374939	3	0.0140807	40	18.2313	-3.88483e-05
2	0	0	1	0	272.14	0.0940399	0.0938044	-0.388014	3	0.0138903	40	18.7311	-3.63974e-05
2	0	0	1	0	272.64	0.0840447	0.0838675	-0.402717	3	0.0136926	40	19.2309	-3.37749e-05
2	0	0	1	0	273.14	0.0740495	0.0736941	-0.414091	3	0.0134891	40	19.7306	-3.05161e-05
2	0	0	1	0	273.64	0.0640542	0.0636835	-0.42304	3	0.0132797	40	20.2304	-2.69406e-05
2	0	0	1	0	274.139	0.054059	0.053865	-0.432264	3	0.0130657	40	20.7302	-2.32839e-05
2	0	0	1	0	274.639	0.0440637	0.0436375	-0.442157	3	0.0128466	40	21.2299	-1.92946e-05
2	0	0	1	0	275.139	0.0340685	0.0338019	-0.451765	3	0.0126226	40	21.7297	-1.52705e-05
2	0	0	1	0	275.639	0.0240732	0.0239225	-0.45901	3	0.0123947	40	22.2294	-1.09807e-05
2	0	0	1	0	276.138	0.014078	0.0139883	-0.468111	3	0.0121636	40	22.7292	-6.54807e-06
2	0	0	1	0	276.638	0.00408273	0.00379342	-0.474698	3	0.0119281	40	23.229	-1.80073e-06
2	0	0	1	1	277.106	0.00528216	0.00492755	-0.471133	3	0.0117063	40	23.6969	-2.32153e-06
2	0	0	1	1	277.606	0.0152774	0.0151368	-0.462778	3	0.0114741	40	24.1967	-7.00497e-06
2	0	0	1	1	278.106	0.0252727	0.0250338	-0.455722	3	0.0112455	40	24.6964	-1.14085e-05
2	0	0	1	1	278.605	0.0352679	0.0349286	-0.447221	3	0.0110195	40	25.1962	-1.56208e-05
2	0	0	1	1	279.105	0.045264	0.044932	-0.438986	3	0.0107985	40	25.696	-1.97245e-05
2	0	0	1	1	279.605	0.0552584	0.054859	-0.429201	3	0.0105815	40	26.1957	-2.35455e-05
2	0	0	1	1	280.105	0.0652536	0.0650182	-0.419358	3	0.0103695	40	26.6955	-2.72659e-05
2	0	0	1	1	280.604	0.0752489	0.0748837	-0.405783	3	0.0101634	40	27.1952	-3.03865e-05
2	0	0	1	1	281.104	0.0852441	0.0847243	-0.395939	3	0.00996277	40	27.695	-3.35456e-05
2	0	0	1	1	281.604	0.0952394	0.0946398	-0.381005	3	0.00976856	40	28.1948	-3.60582e-05
2	0	0	1	1	282.104	0.105235	0.104821	-0.368068	3	0.00958076	40	28.6945	-3.85814e-05
2	0	0	1	1	282.603	0.11523	0.115109	-0.353578	3	0.00939998	40	29.1943	-4.06999e-05
2	0	0	1	1	283.103	0.125224	0.124961	-0.337604	3	0.00922733	40	29.694	-4.21873e-05
2	0	0	1	1	283.603	0.13522	0.134992	-0.321871	3	0.00906241	40	30.1938	-4.345e-05
2	0	0	1	1	284.103	0.145216	0.144968	-0.304967	3	0.00890583	40	30.6936	-4.42105e-05
2	0	0	1	1	284.602	0.155211	0.154931	-0.287847	3	0.00875779	40	31.1933	-4.45963e-05
2	0	0	1	1	285.102	0.165206	0.165104	-0.269149	3	0.00861855	40	31.6931	-4.44375e-05
2	0	0	1	1	285.602	0.175201	0.17493	-0.250352	3	0.00848868	40	32.1929	-4.37941e-05
2	0	0	1	1	286.102	0.185197	0.185009	-0.233285	3	0.00836776	40	32.6926	-4.31596e-05
2	0	0	1	1	286.602	0.195192	0.194858	-0.214717	3	0.00825606	40	33.1924	-4.18393e-05
2	0	0	1	1	287.101	0.205188	0.204882	-0.196256	3	0.00815339	40	33.6922	-4.02094e-05
2	0	0	1	1	287.601	0.215182	0.214813	-0.178698	3	0.00805978	40	34.1919	-3.83865e-05
2	0	0	1	1	288.101	0.225178	0.225178	-0.161514	3	0.00797482	40	34.6917	-3.63695e-05
2	0	0	1	1	288.601	0.235173	0.234614	-0.145386	3	0.00789824	40	35.1914	-3.41095e-05
2	0	0	1	1	289.1	0.245168	0.244936	-0.129911	3	0.00782956	40	35.6912	-3.18198e-05
2	0	0	1	1	289.6	0.255163	0.254785	-0.115286	3	0.00776833	40	36.191	-2.9373e-05
2	0	0	1	1	290.1	0.265159	0.264935	-0.101964	3	0.00771417	40	36.6907	-2.70139e-05
2	0	0	1	1	290.6	0.275154	0.274965	-0.0895804	3	0.00766645	40	37.1905	-2.46315e-05
2	0	0	1	1	291.099	0.285148	0.284836	-0.0783041	3	0.00762465	40	37.6902	-2.23038e-05
2	0	0	1	1	291.599	0.295144	0.294726	-0.0678881	3	0.00758821	40	38.19	-2.00084e-05
2	0	0	1	1	292.099	0.30514	0.304886	-0.058823	3	0.00755661	40	38.6898	-1.79343e-05
2	0	0	1	1	292.599	0.315135	0.314905	-0.0506596	3	0.00752935	40	39.1895	-1.5953e-05
2	0	0	1	1	293.128	0.32573	0.325446	-0.0430268	3	0.00750462	41	39.7193	-1.40029e-05
2	0	0	1	1	293.628	0.335725	0.335371	-0.0366689	3	0.00748477	41	40.219	-1.22977e-05
2	0	0	1	1	294.128	0.34572	0.345371	-0.0310877	3	0.0074679	41	40.7188	-1.07368e-05
2	0	0	1	1	294.628	0.355716	0.355074	-0.026181	3	0.00745364	41	41.2186	-9.29619e-06
2	0	0	1	1	295.127	0.365711	0.365223	-0.0219122	3	0.00744168	41	41.7183	-8.00283e-06
2	0	0	1	1	295.627	0.375706	0.375511	-0.0181862	3	0.00743171	41	42.2181	-6.8291e-06
2	0	0	1	1	296.127	0.385701	0.385784	-0.0149336	3	0.00742348	41	42.7179	-5.76114e-06
2	0	0	1	1	296.627	0.395696	0.395527	-0.0120567	3	0.00741679	41	43.2176	-4.76874e-06
2	0	0	1	1	297.127	0.405692	0.405483	-0.00955717	3	0.00741144	41	43.7174	-3.87527e-06
2	0	0	1	1	297.626	0.415689	0.415343	-0.00728073	3	0.00740728	41	44.2172	-3.024e-06
2	0	0	1	1	298.126	0.425682	0.425046	-0.00528339	3	0.00740418	41	44.7169	-2.24568e-06
2	0	0	1	1	298.656	0.436277	0.436409	-0.00328183	3	0.00740193	42	45.2467	-1.43222e-06
2	0	0	1	1	299.156	0.446272	0.446111	-0.00158215	3	0.00740072	42	45.7464	-7.05815e-07
2	1	0	1	1	299.685	0.456867	0.456998	0.000148454	3	0.00740035	43	0.025	6.7843e-08
2	1	0	1	1	299.938	0.46194	0.462474	0.000968477	3	0.00740049	43	0.278	4.47896e-07