File: Python/Data/RDE/240223-OCV-EIS-Fe2Fe3_5mM-HCl1M-625RPM-Ag_AgCl_BLF8-GC-RDE-1minRestVSEoc-3ppf-14p1mVAmplitude_02_PEIS_C15.mpt
EC-Lab ASCII FILE
Nb header lines : 67

Potentio Electrochemical Impedance Spectroscopy

Run on channel : 15 (SN 19485)
User :
Electrode connection : standard
Potential control : Ewe
Ewe ctrl range : min = -1.00 V, max = 1.00 V
Ewe,I filtering : 50 kHz
Safety Limits :
	Do not start on E overload
Channel : Floating
Acquisition started on : 02/23/2024 15:19:09.853
Loaded Setting File :  NONE
Saved on :
	File : 240223-OCV-EIS-Fe2Fe3_5mM-HCl1M-625RPM-Ag_AgCl_BLF8-GC-RDE-1minRestVSEoc-3ppf-14p1mVAmplitude_02_PEIS_C15.mpr
	Directory : C:\Data\mathias\RDE-RPM-variation\
	Host : 192.168.0.1
Device : VMP-300 (SN 0826)
Address : USB
EC-Lab for windows v11.52 (software)
Internet server v11.52 (firmware)
Command interpretor v11.52 (firmware)
Electrode material :
Initial state :
Electrolyte :
Comments :
Cable : special
Reference electrode : SCE Saturated Calomel Electrode (0.241 V)
Electrode surface area : 0.001 cm²
Characteristic mass : 0.001 g
Equivalent Weight : 0.000 g/eq.
Density : 0.000 g/cm3
Volume (V) : 0.001 cm³
Record EIS quality indicators
Cycle Definition : Charge/Discharge alternance
Mode                Single sine
E (V)               0.0000
vs.                 Eoc
tE (h:m:s)          0:01:0.0000
record              0
dI                  0.000
unit dI             mA
dt (s)              0.000
fi                  1.000
unit fi             MHz
ff                  100.000
unit ff             mHz
Nd                  10
Points              per decade
spacing             Logarithmic
Va (mV)             14.1
pw                  0.10
Na                  3
corr                0
E range min (V)     -1.000
E range max (V)     1.000
I Range             Auto
Bandwidth           8
nc cycles           0
goto Ns'            0
nr cycles           0
inc. cycle          1

freq/Hz	Re(Z)/Ohm	-Im(Z)/Ohm	|Z|/Ohm	Phase(Z)/deg	time/s	<Ewe>/V	<I>/mA	Cs/µF	Cp/µF	cycle number	I Range	|Ewe|/V	|I|/A	Ns	(Q-Qo)/mA.h	THD Ewe/%	NSD Ewe/%	NSR Ewe/%	|Ewe h2|/V	|Ewe h3|/V	|Ewe h4|/V	|Ewe h5|/V	|Ewe h6|/V	|Ewe h7|/V	THD I/%	NSD I/%	NSR I/%	|I h2|/A	|I h3|/A	|I h4|/A	|I h5|/A	|I h6|/A	|I h7|/A	Re(Y)/Ohm-1	Im(Y)/Ohm-1	|Y|/Ohm-1	Phase(Y)/deg	Re(C)/nF	Im(C)/nF	|C|/nF	Phase(C)/deg	Re(M)	Im(M)	|M|	Phase(M)/deg	Re(Permittivity)	Im(Permittivity)	|Permittivity|	Phase(Permittivity)/deg	Re(Resistivity)/Ohm.cm	Im(Resistivity)/Ohm.cm	|Resistivity|/Ohm.cm	Phase(Resistivity)/deg	Re(Conductivity)/mS/cm	Im(Conductivity)/mS/cm	|Conductivity|/mS/cm	Phase(Conductivity)/deg	Tan(Delta)	Loss Angle(Delta)/deg	dq/mA.h
1.00002e+06	3.51704	4.07844	5.38547	-49.2271	119.763	0.459534	-0.0107101	0.0390228	0.02238	1	38	0.0111203	0.00206487	0	-4.29984e-06	-1	-1	-1	0	0	0	0	0	0	-1	-1	-1	0	0	0	0	0	0	0.121264	0.14062	0.185685	49.2271	22.38	19.2994	29.5521	-40.7729	0.0000000E+000	0.0000000E+000	0.0000000E+000	40.7729	0.0000000E+000	0.0000000E+000	0.0000000E+000	-40.7729	0.0000000E+000	0.0000000E+000	0.0000000E+000	-49.2271	0.0000000E+000	0.0000000E+000	0.0000000E+000	49.2271	0.86235	40.7729	-4.29984e-06
794333	3.56585	3.20874	4.79701	-41.9826	120.774	0.45952	-0.00172067	0.0624429	0.027939	1	38	0.0138881	0.00289515	0	-4.74635e-06	-1	-1	-1	0	0	0	0	0	0	-1	-1	-1	0	0	0	0	0	0	0.154961	0.139442	0.208463	41.9826	27.939	31.0484	41.7683	-48.0174	0.0000000E+000	0.0000000E+000	0.0000000E+000	48.0174	0.0000000E+000	0.0000000E+000	0.0000000E+000	-48.0174	0.0000000E+000	0.0000000E+000	0.0000000E+000	-41.9826	0.0000000E+000	0.0000000E+000	0.0000000E+000	41.9826	1.11129	48.0174	-4.46514e-07
630957	3.555	2.5258	4.36093	-35.3936	121.921	0.45956	-0.00274842	0.0998667	0.0335013	1	38	0.0144595	0.0033157	0	-2.70496e-06	-1	-1	-1	0	0	0	0	0	0	-1	-1	-1	0	0	0	0	0	0	0.186931	0.132813	0.229309	35.3936	33.5013	47.1522	57.8418	-54.6064	0.0000000E+000	0.0000000E+000	0.0000000E+000	54.6064	0.0000000E+000	0.0000000E+000	0.0000000E+000	-54.6064	0.0000000E+000	0.0000000E+000	0.0000000E+000	-35.3936	0.0000000E+000	0.0000000E+000	0.0000000E+000	35.3936	1.40747	54.6064	2.04139e-06
501206	3.51703	2.00885	4.05031	-29.7341	123.069	0.459505	-0.00179883	0.158072	0.0388844	1	38	0.0145477	0.00359175	0	-6.27852e-07	-1	-1	-1	0	0	0	0	0	0	-1	-1	-1	0	0	0	0	0	0	0.214388	0.122454	0.246895	29.7341	38.8844	68.0775	78.3999	-60.2659	0.0000000E+000	0.0000000E+000	0.0000000E+000	60.2659	0.0000000E+000	0.0000000E+000	0.0000000E+000	-60.2659	0.0000000E+000	0.0000000E+000	0.0000000E+000	-29.7341	0.0000000E+000	0.0000000E+000	0.0000000E+000	29.7341	1.75077	60.2659	2.07711e-06
398103	3.47566	1.62514	3.83683	-25.0597	124.216	0.459478	-0.00225499	0.246	0.0441336	1	38	0.0145225	0.00378502	0	-5.17136e-06	-1	-1	-1	0	0	0	0	0	0	-1	-1	-1	0	0	0	0	0	0	0.236098	0.110394	0.260632	25.0597	44.1336	94.3879	104.196	-64.9403	0.0000000E+000	0.0000000E+000	0.0000000E+000	64.9403	0.0000000E+000	0.0000000E+000	0.0000000E+000	-64.9403	0.0000000E+000	0.0000000E+000	0.0000000E+000	-25.0597	0.0000000E+000	0.0000000E+000	0.0000000E+000	25.0597	2.13869	64.9403	-4.54351e-06
316230	3.45165	1.35564	3.70832	-21.4425	125.363	0.459529	-0.00206136	0.371254	0.0496144	1	38	0.0145639	0.00392737	0	2.16445e-06	-1	-1	-1	0	0	0	0	0	0	-1	-1	-1	0	0	0	0	0	0	0.250999	0.0985804	0.269664	21.4425	49.6144	126.325	135.719	-68.5575	0.0000000E+000	0.0000000E+000	0.0000000E+000	68.5575	0.0000000E+000	0.0000000E+000	0.0000000E+000	-68.5575	0.0000000E+000	0.0000000E+000	0.0000000E+000	-21.4425	0.0000000E+000	0.0000000E+000	0.0000000E+000	21.4425	2.54613	68.5575	7.33581e-06
251188	3.42384	1.17056	3.61841	-18.8748	126.511	0.4595	-0.00165545	0.541288	0.0566474	1	38	0.0145591	0.00402363	0	4.26228e-06	-1	-1	-1	0	0	0	0	0	0	-1	-1	-1	0	0	0	0	0	0	0.261504	0.0894043	0.276365	18.8748	56.6474	165.691	175.107	-71.1252	0.0000000E+000	0.0000000E+000	0.0000000E+000	71.1252	0.0000000E+000	0.0000000E+000	0.0000000E+000	-71.1252	0.0000000E+000	0.0000000E+000	0.0000000E+000	-18.8748	0.0000000E+000	0.0000000E+000	0.0000000E+000	18.8748	2.92496	71.1252	2.09783e-06
199544	3.41006	1.05899	3.57071	-17.2522	127.659	0.459489	-0.00214328	0.753165	0.0662471	1	38	0.0145601	0.00407764	0	6.38254e-06	-1	-1	-1	0	0	0	0	0	0	-1	-1	-1	0	0	0	0	0	0	0.267457	0.0830585	0.280057	17.2522	66.2471	213.322	223.372	-72.7478	0.0000000E+000	0.0000000E+000	0.0000000E+000	72.7478	0.0000000E+000	0.0000000E+000	0.0000000E+000	-72.7478	0.0000000E+000	0.0000000E+000	0.0000000E+000	-17.2522	0.0000000E+000	0.0000000E+000	0.0000000E+000	17.2522	3.2201	72.7478	2.12026e-06
158486	3.4022	1.00475	3.54747	-16.4531	128.806	0.459521	-0.00294949	0.999473	0.0801771	1	38	0.0145639	0.00410544	0	6.55647e-06	-1	-1	-1	0	0	0	0	0	0	-1	-1	-1	0	0	0	0	0	0	0.270348	0.0798402	0.281891	16.4531	80.1771	271.489	283.081	-73.5469	0.0000000E+000	0.0000000E+000	0.0000000E+000	73.5469	0.0000000E+000	0.0000000E+000	0.0000000E+000	-73.5469	0.0000000E+000	0.0000000E+000	0.0000000E+000	-16.4531	0.0000000E+000	0.0000000E+000	0.0000000E+000	16.4531	3.38612	73.5469	1.73934e-07
125909	3.40933	1.00688	3.5549	-16.4535	129.952	0.459482	-0.0020297	1.25541	0.100713	1	38	0.0145873	0.00410343	0	-6.06701e-07	-1	-1	-1	0	0	0	0	0	0	-1	-1	-1	0	0	0	0	0	0	0.269783	0.0796749	0.281302	16.4535	100.713	341.017	355.578	-73.5465	0.0000000E+000	0.0000000E+000	0.0000000E+000	73.5465	0.0000000E+000	0.0000000E+000	0.0000000E+000	-73.5465	0.0000000E+000	0.0000000E+000	0.0000000E+000	-16.4535	0.0000000E+000	0.0000000E+000	0.0000000E+000	16.4535	3.38604	73.5465	-7.16318e-06
100004	3.42616	1.05614	3.58524	-17.1323	131.099	0.459515	-0.00245608	1.5069	0.130764	1	38	0.014585	0.00406806	0	-3.34071e-06	0.597468	0.276188	8.83457	3.02717e-05	3.32613e-05	1.57268e-05	2.27634e-05	5.06485e-05	4.03297e-05	0.0730084	0.0512369	0.703051	2.04797e-06	1.24904e-06	9.34912e-07	9.77844e-07	9.29816e-07	4.44491e-07	0.266545	0.0821644	0.278921	17.1323	130.764	424.203	443.9	-72.8677	0.0000000E+000	0.0000000E+000	0.0000000E+000	72.8677	0.0000000E+000	0.0000000E+000	0.0000000E+000	-72.8677	0.0000000E+000	0.0000000E+000	0.0000000E+000	-17.1323	0.0000000E+000	0.0000000E+000	0.0000000E+000	17.1323	3.24404	72.8677	-2.734e-06
79433.3	3.44188	1.15612	3.63086	-18.5671	132.247	0.45954	-0.00237229	1.73306	0.175712	1	38	0.014561	0.00401033	0	-9.74333e-06	0.490378	0.34145	8.91272	2.96237e-05	1.5513e-05	4.10017e-05	1.34851e-05	2.83605e-05	3.13913e-05	0.0631956	0.0449074	0.705345	1.48926e-06	1.49056e-06	4.55856e-07	6.38608e-07	5.1673e-07	9.33069e-07	0.261082	0.0876969	0.275417	18.5671	175.712	523.111	551.833	-71.4329	0.0000000E+000	0.0000000E+000	0.0000000E+000	71.4329	0.0000000E+000	0.0000000E+000	0.0000000E+000	-71.4329	0.0000000E+000	0.0000000E+000	0.0000000E+000	-18.5671	0.0000000E+000	0.0000000E+000	0.0000000E+000	18.5671	2.97709	71.4329	-6.40263e-06
63093.8	3.46938	1.30607	3.70708	-20.6292	133.393	0.459487	-0.00236113	1.93137	0.239738	1	38	0.0145777	0.00393239	0	-5.63798e-06	0.529445	0.240148	8.78038	1.59845e-05	1.78128e-05	3.89931e-05	4.11897e-05	1.03536e-05	4.06589e-05	0.0611326	0.0560505	0.727107	1.23281e-06	1.38456e-06	9.2651e-07	6.6515e-07	6.76718e-07	5.29976e-07	0.252458	0.0950393	0.269754	20.6292	239.738	636.827	680.458	-69.3708	0.0000000E+000	0.0000000E+000	0.0000000E+000	69.3708	0.0000000E+000	0.0000000E+000	0.0000000E+000	-69.3708	0.0000000E+000	0.0000000E+000	0.0000000E+000	-20.6292	0.0000000E+000	0.0000000E+000	0.0000000E+000	20.6292	2.65635	69.3708	4.10535e-06
50122.5	3.5134	1.50893	3.82373	-23.2424	134.54	0.459505	-0.0026609	2.10436	0.327705	1	38	0.0146214	0.00382385	0	-7.83805e-06	0.52809	0.364713	8.76662	2.84632e-05	3.81864e-05	2.00117e-05	1.31251e-05	3.38825e-05	2.9272e-05	0.0532416	0.0719792	0.745328	9.57146e-07	1.00001e-06	6.69082e-07	7.52364e-07	6.16376e-07	7.03846e-07	0.240301	0.103204	0.261525	23.2424	327.705	763.031	830.426	-66.7576	0.0000000E+000	0.0000000E+000	0.0000000E+000	66.7576	0.0000000E+000	0.0000000E+000	0.0000000E+000	-66.7576	0.0000000E+000	0.0000000E+000	0.0000000E+000	-23.2424	0.0000000E+000	0.0000000E+000	0.0000000E+000	23.2424	2.32841	66.7576	-2.20007e-06
39814.1	3.56178	1.78665	3.98477	-26.6392	135.689	0.459513	-0.00169642	2.2374	0.449798	1	38	0.0146477	0.00367593	0	-7.0729e-06	0.464021	0.283977	8.75942	3.11052e-05	1.37108e-05	2.84659e-05	3.36619e-05	2.01508e-05	2.38027e-05	0.0626008	0.0824791	0.789169	7.05798e-07	1.54258e-06	5.67917e-07	1.13234e-06	4.71509e-07	3.76805e-07	0.224316	0.112521	0.250956	26.6392	449.798	896.694	1003.18	-63.3608	0.0000000E+000	0.0000000E+000	0.0000000E+000	63.3608	0.0000000E+000	0.0000000E+000	0.0000000E+000	-63.3608	0.0000000E+000	0.0000000E+000	0.0000000E+000	-26.6392	0.0000000E+000	0.0000000E+000	0.0000000E+000	26.6392	1.99355	63.3608	7.65151e-07
31621.1	3.61517	2.14122	4.2017	-30.6377	136.835	0.459518	-0.00194779	2.35062	0.610455	1	38	0.0146652	0.00349031	0	-5.03699e-06	0.489105	0.331089	8.73387	2.91762e-05	2.94483e-05	4.41653e-05	2.09567e-05	1.64098e-05	2.26169e-05	0.0619309	0.0783804	0.81738	4.61481e-07	1.48948e-06	8.97075e-07	5.1869e-07	3.85383e-07	5.80584e-07	0.204776	0.121286	0.237999	30.6377	610.455	1030.67	1197.89	-59.3623	0.0000000E+000	0.0000000E+000	0.0000000E+000	59.3623	0.0000000E+000	0.0000000E+000	0.0000000E+000	-59.3623	0.0000000E+000	0.0000000E+000	0.0000000E+000	-30.6377	0.0000000E+000	0.0000000E+000	0.0000000E+000	30.6377	1.68837	59.3623	2.03591e-06
25116.9	3.68621	2.58804	4.50401	-35.0721	137.982	0.459539	-0.00245424	2.44841	0.808399	1	38	0.0147413	0.00327292	0	-7.18051e-06	0.402549	0.379069	8.93669	2.73725e-05	1.69282e-05	1.76274e-05	2.34018e-05	1.90903e-05	3.13054e-05	0.0569065	0.0833306	0.875883	6.94755e-07	1.27124e-06	3.73174e-07	5.51434e-07	3.06745e-07	5.49821e-07	0.181711	0.127577	0.222024	35.0721	808.399	1151.42	1406.87	-54.9279	0.0000000E+000	0.0000000E+000	0.0000000E+000	54.9279	0.0000000E+000	0.0000000E+000	0.0000000E+000	-54.9279	0.0000000E+000	0.0000000E+000	0.0000000E+000	-35.0721	0.0000000E+000	0.0000000E+000	0.0000000E+000	35.0721	1.42433	54.9279	-2.14352e-06
19948.8	3.77976	3.15891	4.92598	-39.887	139.13	0.459499	-0.00216567	2.52561	1.03862	1	38	0.0147513	0.00299459	0	-6.8481e-06	0.549876	0.247136	8.70584	2.43194e-05	3.80056e-05	4.84012e-05	1.73146e-05	3.422e-05	1.65906e-05	0.0816261	0.102248	0.964483	1.18623e-06	1.14639e-06	1.41608e-06	7.20171e-07	6.1662e-07	4.15074e-07	0.155768	0.130182	0.203005	39.887	1038.62	1242.75	1619.61	-50.113	0.0000000E+000	0.0000000E+000	0.0000000E+000	50.113	0.0000000E+000	0.0000000E+000	0.0000000E+000	-50.113	0.0000000E+000	0.0000000E+000	0.0000000E+000	-39.887	0.0000000E+000	0.0000000E+000	0.0000000E+000	39.887	1.19654	50.113	3.3241e-07
15847.7	3.88643	3.86161	5.47872	-44.8165	140.277	0.459486	-0.00170018	2.60068	1.29201	1	38	0.0148776	0.00271552	0	-6.44645e-06	0.499854	0.355251	8.77199	2.94326e-05	2.93183e-05	2.70607e-05	1.9663e-05	2.03118e-05	3.47699e-05	0.103931	0.124454	1.06304	1.83848e-06	1.32685e-06	5.03379e-07	2.92434e-07	5.22688e-07	1.30948e-06	0.129477	0.12865	0.182524	44.8165	1292.01	1300.31	1833.05	-45.1835	0.0000000E+000	0.0000000E+000	0.0000000E+000	45.1835	0.0000000E+000	0.0000000E+000	0.0000000E+000	-45.1835	0.0000000E+000	0.0000000E+000	0.0000000E+000	-44.8165	0.0000000E+000	0.0000000E+000	0.0000000E+000	44.8165	1.00643	45.1835	4.01648e-07
12590.9	4.03869	4.73011	6.21972	-49.5085	141.424	0.459507	-0.00180073	2.67234	1.54558	1	38	0.0147756	0.00237561	0	-9.71006e-06	0.555336	0.31776	8.84876	2.91124e-05	4.02424e-05	4.2761e-05	2.47859e-05	3.30226e-05	2.0038e-05	0.112669	0.162738	1.2147	2.31719e-06	7.12081e-07	3.75806e-07	7.69106e-07	2.91258e-07	3.16824e-07	0.104399	0.122273	0.160779	49.5085	1545.58	1319.66	2032.32	-40.4915	0.0000000E+000	0.0000000E+000	0.0000000E+000	40.4915	0.0000000E+000	0.0000000E+000	0.0000000E+000	-40.4915	0.0000000E+000	0.0000000E+000	0.0000000E+000	-49.5085	0.0000000E+000	0.0000000E+000	0.0000000E+000	49.5085	0.853826	40.4915	-3.26361e-06
10002.2	4.21755	5.82229	7.18935	-54.0812	142.571	0.45951	-0.001622	2.73294	1.79241	1	38	0.0145802	0.00202802	0	-9.58236e-06	0.504101	0.309048	8.88659	3.23712e-05	4.09994e-05	9.26373e-06	2.60311e-05	1.66976e-05	3.05608e-05	0.23305	0.189953	1.40992	4.44071e-06	7.14177e-07	5.92006e-07	7.30371e-07	7.51909e-07	3.22424e-07	0.0815981	0.112646	0.139095	54.0812	1792.41	1298.39	2213.27	-35.9188	0.0000000E+000	0.0000000E+000	0.0000000E+000	35.9188	0.0000000E+000	0.0000000E+000	0.0000000E+000	-35.9188	0.0000000E+000	0.0000000E+000	0.0000000E+000	-54.0812	0.0000000E+000	0.0000000E+000	0.0000000E+000	54.0812	0.724379	35.9188	1.27699e-07
7944	4.46701	7.1573	8.43689	-58.0309	143.748	0.459386	-0.00215638	2.79919	2.01449	1	38	0.0144778	0.00171601	0	-8.56795e-06	0.579101	0.272537	8.89585	3.75392e-05	3.05352e-05	2.50246e-05	4.18527e-05	2.52925e-05	3.43301e-05	0.272217	0.152318	1.66416	4.38553e-06	6.12484e-07	5.15375e-07	8.49718e-07	7.56994e-07	6.14323e-07	0.0627555	0.100551	0.118527	58.0309	2014.49	1257.28	2374.65	-31.9691	0.0000000E+000	0.0000000E+000	0.0000000E+000	31.9691	0.0000000E+000	0.0000000E+000	0.0000000E+000	-31.9691	0.0000000E+000	0.0000000E+000	0.0000000E+000	-58.0309	0.0000000E+000	0.0000000E+000	0.0000000E+000	58.0309	0.624119	31.9691	1.01441e-06
6307.74	4.77522	8.79216	10.0052	-61.4926	144.8	0.459399	-0.00193669	2.8698	2.21609	1	38	0.0143257	0.00143182	0	-1.00571e-05	0.537835	0.155725	8.84974	3.15628e-05	5.0303e-05	2.02006e-05	2.79398e-05	1.71887e-05	1.31258e-05	0.46422	0.0945344	2.01733	6.30682e-06	1.64295e-06	5.54602e-07	3.9825e-07	8.70447e-07	4.71478e-07	0.0477022	0.0878296	0.0999477	61.4926	2216.09	1203.61	2521.85	-28.5074	0.0000000E+000	0.0000000E+000	0.0000000E+000	28.5074	0.0000000E+000	0.0000000E+000	0.0000000E+000	-28.5074	0.0000000E+000	0.0000000E+000	0.0000000E+000	-61.4926	0.0000000E+000	0.0000000E+000	0.0000000E+000	61.4926	0.543123	28.5074	-1.48914e-06
5011.6	5.19782	10.8048	11.99	-64.3093	145.918	0.459401	-0.00240962	2.93919	2.38682	1	38	0.0136416	0.00113775	0	-1.02847e-05	0.526511	0.232845	9.39439	4.50416e-05	1.37741e-05	3.61045e-05	2.18634e-05	2.25436e-05	9.33133e-06	0.600998	0.0728833	2.5137	6.35759e-06	1.38338e-06	9.8441e-07	9.38072e-07	8.99553e-07	1.03198e-06	0.0361561	0.0751582	0.0834027	64.3093	2386.82	1148.22	2648.65	-25.6907	0.0000000E+000	0.0000000E+000	0.0000000E+000	25.6907	0.0000000E+000	0.0000000E+000	0.0000000E+000	-25.6907	0.0000000E+000	0.0000000E+000	0.0000000E+000	-64.3093	0.0000000E+000	0.0000000E+000	0.0000000E+000	64.3093	0.481067	25.6906	-2.27595e-07
3981.28	5.70525	13.2208	14.3993	-66.6581	147.024	0.459376	-0.00288442	3.0237	2.54902	1	38	0.0129466	0.000899112	0	-1.04567e-05	0.570831	0.355109	9.81821	4.7633e-05	2.66077e-05	2.0126e-05	2.201e-05	1.88745e-05	2.28048e-05	0.679686	0.151934	3.18888	5.74912e-06	1.61248e-06	3.00862e-07	6.6571e-07	5.4394e-07	7.67169e-07	0.0275163	0.0637639	0.0694477	66.6581	2549.02	1099.99	2776.23	-23.3419	0.0000000E+000	0.0000000E+000	0.0000000E+000	23.3419	0.0000000E+000	0.0000000E+000	0.0000000E+000	-23.3419	0.0000000E+000	0.0000000E+000	0.0000000E+000	-66.6581	0.0000000E+000	0.0000000E+000	0.0000000E+000	66.6581	0.431535	23.3419	-1.7206e-07
3163.04	6.36329	16.2057	17.4103	-68.5622	148.35	0.459384	-0.00289187	3.10489	2.69013	1	38	0.0139699	0.000802394	0	-1.1697e-05	0.488284	0.339461	9.18024	2.97118e-05	3.35414e-05	2.43305e-05	1.45603e-05	3.16934e-05	2.22464e-05	0.751339	0.14543	3.58091	5.29136e-06	2.47763e-06	6.54376e-07	9.93502e-07	5.28823e-07	4.13139e-07	0.0209928	0.0534635	0.0574373	68.5622	2690.13	1056.3	2890.08	-21.4378	0.0000000E+000	0.0000000E+000	0.0000000E+000	21.4378	0.0000000E+000	0.0000000E+000	0.0000000E+000	-21.4378	0.0000000E+000	0.0000000E+000	0.0000000E+000	-68.5622	0.0000000E+000	0.0000000E+000	0.0000000E+000	68.5622	0.392656	21.4378	-1.24026e-06
2512.41	7.24781	19.8535	21.135	-69.9446	149.455	0.459399	-0.00314696	3.19076	2.81552	1	38	0.0136178	0.000644323	0	-1.28857e-05	0.482991	0.327682	9.45376	2.41179e-05	1.34704e-05	1.64159e-05	3.95264e-05	2.46129e-05	2.95657e-05	0.838635	0.148109	4.54574	4.46697e-06	2.26973e-06	9.07892e-07	1.33018e-06	5.28341e-07	5.63465e-07	0.0162256	0.0444457	0.0473148	69.9446	2815.52	1027.85	2997.27	-20.0554	0.0000000E+000	0.0000000E+000	0.0000000E+000	20.0554	0.0000000E+000	0.0000000E+000	0.0000000E+000	-20.0554	0.0000000E+000	0.0000000E+000	0.0000000E+000	-69.9446	0.0000000E+000	0.0000000E+000	0.0000000E+000	69.9446	0.365065	20.0554	-1.18866e-06
1995.64	8.24595	24.2437	25.6076	-71.2154	150.56	0.459392	-0.00256976	3.28958	2.94848	1	38	0.0133576	0.000521627	0	-1.38977e-05	0.62167	0.349745	9.80719	3.40952e-05	3.07168e-05	4.19665e-05	3.35876e-05	2.88659e-05	1.96647e-05	0.942467	0.211094	5.55164	3.62397e-06	2.51988e-06	6.14938e-07	1.84615e-06	3.79515e-07	6.51006e-07	0.0125748	0.0369708	0.0390508	71.2154	2948.48	1002.86	3114.36	-18.7846	0.0000000E+000	0.0000000E+000	0.0000000E+000	18.7846	0.0000000E+000	0.0000000E+000	0.0000000E+000	-18.7846	0.0000000E+000	0.0000000E+000	0.0000000E+000	-71.2154	0.0000000E+000	0.0000000E+000	0.0000000E+000	71.2154	0.340128	18.7846	-1.01206e-06
1584.49	9.72947	29.5844	31.1432	-71.7955	151.667	0.459394	-0.00233516	3.39521	3.06384	1	38	0.0132179	0.000424423	0	-1.49899e-05	0.49288	0.264193	9.84123	3.03321e-05	2.20803e-05	2.44369e-05	3.06357e-05	1.92693e-05	1.4046e-05	0.920365	0.162373	6.61131	2.70705e-06	2.11897e-06	4.49908e-07	1.49375e-06	6.33688e-07	5.36059e-07	0.0100314	0.0305025	0.0321097	71.7955	3063.84	1007.61	3225.27	-18.2045	0.0000000E+000	0.0000000E+000	0.0000000E+000	18.2045	0.0000000E+000	0.0000000E+000	0.0000000E+000	-18.2045	0.0000000E+000	0.0000000E+000	0.0000000E+000	-71.7955	0.0000000E+000	0.0000000E+000	0.0000000E+000	71.7955	0.328871	18.2045	-1.09215e-06
1258.79	11.4232	36.0727	37.8382	-72.4285	153.026	0.459376	-0.000263186	3.505	3.18555	1	39	0.0147764	0.000390516	0	-1.56659e-05	0.622066	0.239774	8.64991	4.84086e-05	3.37989e-05	3.22477e-05	3.434e-05	2.29253e-05	3.12595e-05	1.31024	0.0894688	3.43057	4.54267e-06	2.18011e-06	2.19782e-07	5.9849e-07	3.58768e-07	2.5607e-07	0.00797861	0.0251952	0.0264283	72.4285	3185.55	1008.77	3341.46	-17.5715	0.0000000E+000	0.0000000E+000	0.0000000E+000	17.5715	0.0000000E+000	0.0000000E+000	0.0000000E+000	-17.5715	0.0000000E+000	0.0000000E+000	0.0000000E+000	-72.4285	0.0000000E+000	0.0000000E+000	0.0000000E+000	72.4285	0.316671	17.5715	-6.76006e-07
999.682	13.6617	43.9259	46.0013	-72.7234	154.133	0.459373	-0.000142044	3.62442	3.30474	1	39	0.0140883	0.000306259	0	-1.5942e-05	0.482403	0.207013	8.95107	3.46586e-05	2.18624e-05	1.7883e-05	2.97173e-05	1.48876e-05	3.05057e-05	1.16685	0.11808	4.30877	2.91081e-06	1.86501e-06	2.56544e-07	7.10514e-07	1.53239e-07	3.92154e-07	0.006456	0.0207577	0.0217385	72.7234	3304.74	1027.83	3460.89	-17.2766	0.0000000E+000	0.0000000E+000	0.0000000E+000	17.2766	0.0000000E+000	0.0000000E+000	0.0000000E+000	-17.2766	0.0000000E+000	0.0000000E+000	0.0000000E+000	-72.7234	0.0000000E+000	0.0000000E+000	0.0000000E+000	72.7234	0.311017	17.2766	-2.76142e-07
794.239	16.1508	53.1616	55.5608	-73.1009	155.239	0.459372	-0.000196468	3.76939	3.45088	1	39	0.0136204	0.000245144	0	-1.58934e-05	0.485315	0.217835	9.25416	1.92323e-05	3.54127e-05	2.64128e-05	2.43688e-05	2.5624e-05	1.4425e-05	1.09115	0.211837	5.36429	2.01177e-06	1.31431e-06	2.56745e-07	1.03019e-06	1.59938e-07	2.53306e-07	0.00523186	0.0172211	0.0179983	73.1009	3450.88	1048.4	3606.62	-16.8991	0.0000000E+000	0.0000000E+000	0.0000000E+000	16.8991	0.0000000E+000	0.0000000E+000	0.0000000E+000	-16.8991	0.0000000E+000	0.0000000E+000	0.0000000E+000	-73.1009	0.0000000E+000	0.0000000E+000	0.0000000E+000	73.1009	0.303805	16.899	4.86405e-08
631.01	19.8851	64.603	67.5941	-72.8914	156.343	0.459388	-0.000153601	3.90419	3.56631	1	39	0.0133705	0.000197806	0	-1.6129e-05	0.512095	0.257472	9.45679	2.7196e-05	2.99333e-05	2.99895e-05	2.07005e-05	1.36354e-05	2.90046e-05	1.04819	0.184066	6.70075	1.33342e-06	9.45115e-07	3.42656e-07	1.1386e-06	1.46013e-07	2.85203e-07	0.0043522	0.0141395	0.0147942	72.8914	3566.31	1097.72	3731.43	-17.1086	0.0000000E+000	0.0000000E+000	0.0000000E+000	17.1086	0.0000000E+000	0.0000000E+000	0.0000000E+000	-17.1086	0.0000000E+000	0.0000000E+000	0.0000000E+000	-72.8914	0.0000000E+000	0.0000000E+000	0.0000000E+000	72.8914	0.307804	17.1086	-2.35582e-07
501.122	24.1457	78.3118	81.9497	-72.864	157.448	0.45942	-0.00025313	4.05554	3.70347	1	39	0.0132146	0.000161252	0	-1.61212e-05	0.488002	0.240968	9.44371	3.22625e-05	2.65174e-05	1.2576e-05	2.56372e-05	2.45908e-05	2.38048e-05	1.06027	0.213892	8.0735	1.07095e-06	8.78848e-07	1.89051e-07	8.41759e-07	3.50434e-07	2.4554e-07	0.00359538	0.0116609	0.0122026	72.864	3703.47	1141.88	3875.51	-17.136	0.0000000E+000	0.0000000E+000	0.0000000E+000	17.136	0.0000000E+000	0.0000000E+000	0.0000000E+000	-17.136	0.0000000E+000	0.0000000E+000	0.0000000E+000	-72.864	0.0000000E+000	0.0000000E+000	0.0000000E+000	72.864	0.308328	17.136	7.76718e-09
398.089	29.2439	94.5409	98.9605	-72.8118	158.557	0.459412	-0.000499897	4.22883	3.85954	1	39	0.013093	0.000132306	0	-1.619e-05	0.437737	0.346022	9.6991	2.33437e-05	2.43543e-05	1.95617e-05	1.99021e-05	2.57647e-05	1.87469e-05	1.07851	0.326905	9.98891	9.80191e-07	5.92472e-07	2.31966e-07	6.61924e-07	1.98687e-07	1.8587e-07	0.00298615	0.00965374	0.010105	72.8118	3859.54	1193.85	4039.97	-17.1882	0.0000000E+000	0.0000000E+000	0.0000000E+000	17.1882	0.0000000E+000	0.0000000E+000	0.0000000E+000	-17.1882	0.0000000E+000	0.0000000E+000	0.0000000E+000	-72.8118	0.0000000E+000	0.0000000E+000	0.0000000E+000	72.8118	0.309326	17.1882	-6.88119e-08
316.316	36.1322	114.252	119.83	-72.4505	159.661	0.459407	-5.05366e-05	4.40386	4.00346	1	39	0.013027	0.000108712	0	-1.63321e-05	0.50941	0.241226	9.63616	2.07261e-05	2.74607e-05	1.95889e-05	3.31949e-05	9.983e-06	3.23713e-05	1.1222	0.292442	11.9586	9.81883e-07	2.68761e-07	2.81787e-07	2.49452e-07	2.30056e-07	4.06091e-07	0.00251632	0.00795677	0.00834518	72.4505	4003.46	1266.09	4198.89	-17.5495	0.0000000E+000	0.0000000E+000	0.0000000E+000	17.5495	0.0000000E+000	0.0000000E+000	0.0000000E+000	-17.5495	0.0000000E+000	0.0000000E+000	0.0000000E+000	-72.4505	0.0000000E+000	0.0000000E+000	0.0000000E+000	72.4505	0.316249	17.5495	-1.42055e-07
251.206	44.7389	136.931	144.055	-71.9065	160.766	0.459422	-0.000107942	4.62686	4.18059	1	39	0.012955	8.9931e-05	0	-1.64393e-05	0.538019	0.336277	9.80671	1.44024e-05	2.46998e-05	2.27327e-05	3.67172e-05	2.71138e-05	2.92461e-05	1.18975	0.383265	14.8224	5.95995e-07	4.01029e-07	3.21246e-07	5.57517e-07	2.47721e-07	2.811e-07	0.0021559	0.00659854	0.0069418	71.9065	4180.59	1365.9	4398.07	-18.0935	0.0000000E+000	0.0000000E+000	0.0000000E+000	18.0935	0.0000000E+000	0.0000000E+000	0.0000000E+000	-18.0935	0.0000000E+000	0.0000000E+000	0.0000000E+000	-71.9065	0.0000000E+000	0.0000000E+000	0.0000000E+000	71.9065	0.326724	18.0935	-1.07216e-07
199.553	55.7124	164.44	173.622	-71.2836	161.874	0.459418	-0.000250523	4.85013	4.35072	1	39	0.0129103	7.43587e-05	0	-1.64388e-05	0.55048	0.275852	9.87043	2.74276e-05	2.61577e-05	4.17948e-05	2.03557e-05	2.54092e-05	1.96066e-05	1.3847	0.530662	17.6348	5.95124e-07	4.60828e-07	3.93448e-07	3.85398e-07	3.09751e-07	1.77975e-07	0.00184818	0.00545507	0.00575965	71.2836	4350.72	1474.03	4593.64	-18.7164	0.0000000E+000	0.0000000E+000	0.0000000E+000	18.7164	0.0000000E+000	0.0000000E+000	0.0000000E+000	-18.7164	0.0000000E+000	0.0000000E+000	0.0000000E+000	-71.2836	0.0000000E+000	0.0000000E+000	0.0000000E+000	71.2836	0.3388	18.7164	4.31084e-10
158.529	68.2268	199.018	210.388	-71.0774	162.985	0.4594	-1.12121e-05	5.04451	4.514	1	39	0.012926	6.1439e-05	0	-1.64539e-05	0.530859	0.255476	9.50323	3.55051e-05	1.82456e-05	3.43696e-05	2.57989e-05	1.50951e-05	2.59894e-05	1.55914	0.676062	21.4493	5.09827e-07	4.18714e-07	2.70399e-07	3.00853e-07	1.39472e-07	4.07574e-07	0.00154139	0.00449625	0.00475312	71.0774	4514	1547.48	4771.89	-18.9226	0.0000000E+000	0.0000000E+000	0.0000000E+000	18.9226	0.0000000E+000	0.0000000E+000	0.0000000E+000	-18.9226	0.0000000E+000	0.0000000E+000	0.0000000E+000	-71.0774	0.0000000E+000	0.0000000E+000	0.0000000E+000	71.0774	0.342817	18.9226	-1.50841e-08
125.927	84.5583	237.437	252.044	-70.3977	164.339	0.459444	-0.000123647	5.32297	4.72385	1	40	0.0131887	5.23268e-05	0	-1.65699e-05	0.93902	0.410401	14.6975	5.82496e-05	4.54497e-05	2.92029e-05	5.81042e-05	3.07767e-05	5.9162e-05	1.00872	0.140943	4.85888	4.11304e-07	2.04877e-07	4.84264e-08	2.3163e-07	5.93741e-08	5.8589e-08	0.00133107	0.00373761	0.00396756	70.3977	4723.85	1682.3	5014.47	-19.6023	0.0000000E+000	0.0000000E+000	0.0000000E+000	19.6023	0.0000000E+000	0.0000000E+000	0.0000000E+000	-19.6023	0.0000000E+000	0.0000000E+000	0.0000000E+000	-70.3977	0.0000000E+000	0.0000000E+000	0.0000000E+000	70.3977	0.356129	19.6023	-1.16001e-07
99.9682	105.408	284.638	303.528	-69.6793	165.421	0.459428	-0.000104014	5.59327	4.91873	1	40	0.0130961	4.31462e-05	0	-1.65798e-05	0.750702	0.320632	15.1188	4.96651e-05	4.6647e-05	2.60002e-05	2.26964e-05	4.93047e-05	2.52243e-05	1.06295	0.138315	5.98291	3.70661e-07	1.87561e-07	3.69162e-08	1.64121e-07	7.21866e-08	3.72815e-08	0.00114413	0.00308954	0.00329459	69.6793	4918.73	1821.51	5245.17	-20.3207	0.0000000E+000	0.0000000E+000	0.0000000E+000	20.3207	0.0000000E+000	0.0000000E+000	0.0000000E+000	-20.3207	0.0000000E+000	0.0000000E+000	0.0000000E+000	-69.6793	0.0000000E+000	0.0000000E+000	0.0000000E+000	69.6793	0.370322	20.3207	-9.83194e-09
79.4157	131.283	338.501	363.068	-68.8018	166.491	0.459434	-0.000122883	5.92043	5.14633	1	40	0.0129882	3.57734e-05	0	-1.65664e-05	0.783255	0.448954	15.021	3.86708e-05	2.67695e-05	2.48023e-05	5.71932e-05	3.93681e-05	4.25562e-05	0.889706	0.268927	7.16823	2.33975e-07	1.26423e-07	2.27528e-08	1.30726e-07	7.16219e-08	4.56154e-08	0.000995942	0.00256794	0.00275431	68.8018	5146.33	1995.94	5519.83	-21.1982	0.0000000E+000	0.0000000E+000	0.0000000E+000	21.1982	0.0000000E+000	0.0000000E+000	0.0000000E+000	-21.1982	0.0000000E+000	0.0000000E+000	0.0000000E+000	-68.8018	0.0000000E+000	0.0000000E+000	0.0000000E+000	68.8018	0.387837	21.1982	1.3335e-08
63.0823	164.348	403.459	435.648	-67.8366	167.574	0.459437	-9.716e-05	6.25337	5.3634	1	40	0.0129548	2.97368e-05	0	-1.65964e-05	0.815488	0.400439	15.5603	4.56891e-05	1.86457e-05	3.59643e-05	4.82897e-05	3.7357e-05	4.22709e-05	0.981839	0.277481	8.92783	2.08982e-07	1.26891e-07	5.92138e-08	1.15318e-07	5.6909e-08	4.24725e-08	0.000865952	0.00212583	0.00229543	67.8366	5363.4	2184.77	5791.31	-22.1634	0.0000000E+000	0.0000000E+000	0.0000000E+000	22.1634	0.0000000E+000	0.0000000E+000	0.0000000E+000	-22.1634	0.0000000E+000	0.0000000E+000	0.0000000E+000	-67.8366	0.0000000E+000	0.0000000E+000	0.0000000E+000	67.8366	0.407348	22.1635	-2.99953e-08
50.1122	206.584	480.554	523.076	-66.7377	168.638	0.459397	-7.70803e-05	6.60898	5.57812	1	40	0.0129587	2.47739e-05	0	-1.66323e-05	0.806538	0.389165	15.2698	3.4125e-05	3.56445e-05	3.58714e-05	4.45662e-05	5.70368e-05	2.75772e-05	0.928405	0.24305	10.3904	1.58602e-07	8.26068e-08	5.0536e-08	9.98462e-08	7.01689e-08	4.41866e-08	0.000755034	0.00175635	0.00191177	66.7377	5578.12	2397.97	6071.71	-23.2623	0.0000000E+000	0.0000000E+000	0.0000000E+000	23.2623	0.0000000E+000	0.0000000E+000	0.0000000E+000	-23.2623	0.0000000E+000	0.0000000E+000	0.0000000E+000	-66.7377	0.0000000E+000	0.0000000E+000	0.0000000E+000	66.7377	0.429888	23.2623	-3.59322e-08
39.8089	256.835	563.7	619.453	-65.5049	169.708	0.459422	-0.000101593	7.09238	5.87316	1	40	0.0128853	2.0801e-05	0	-1.66348e-05	0.897541	0.400369	15.4932	1.39443e-05	5.22707e-05	1.65262e-05	4.84981e-05	5.26937e-05	5.04224e-05	1.05075	0.334617	12.5079	1.60359e-07	1.01825e-07	1.87856e-08	6.90919e-08	3.70394e-08	5.77651e-08	0.000669325	0.00146903	0.00161433	65.5049	5873.16	2675.95	6454.04	-24.4951	0.0000000E+000	0.0000000E+000	0.0000000E+000	24.4951	0.0000000E+000	0.0000000E+000	0.0000000E+000	-24.4951	0.0000000E+000	0.0000000E+000	0.0000000E+000	-65.5049	0.0000000E+000	0.0000000E+000	0.0000000E+000	65.5049	0.455623	24.4951	-2.45141e-09
31.6296	326.144	664.676	740.381	-63.8637	170.748	0.459458	-0.000139164	7.57036	6.10135	1	40	0.0129003	1.74239e-05	0	-1.66497e-05	0.8727	0.769131	15.875	6.16461e-05	2.83402e-05	4.76179e-05	3.08761e-05	3.84235e-05	4.51724e-05	1.28205	0.71776	15.2259	1.64218e-07	8.29666e-08	4.13124e-08	6.37947e-08	4.41953e-08	6.38656e-08	0.000594974	0.00121255	0.00135066	63.8637	6101.35	2993.82	6796.28	-26.1363	0.0000000E+000	0.0000000E+000	0.0000000E+000	26.1363	0.0000000E+000	0.0000000E+000	0.0000000E+000	-26.1363	0.0000000E+000	0.0000000E+000	0.0000000E+000	-63.8637	0.0000000E+000	0.0000000E+000	0.0000000E+000	63.8637	0.490681	26.1363	-1.48677e-08
25.1206	408.696	776.17	877.196	-62.2307	171.817	0.459427	-0.000109696	8.16269	6.39078	1	40	0.0128913	1.4696e-05	0	-1.66681e-05	0.5904	0.403924	15.2658	1.80692e-05	3.67223e-05	2.30553e-05	3.49889e-05	2.9904e-05	3.19688e-05	1.31414	0.64645	17.5979	1.34789e-07	8.23398e-08	3.36458e-08	8.14231e-08	2.36863e-08	3.76697e-08	0.000531138	0.0010087	0.00114	62.2307	6390.78	3365.1	7222.6	-27.7693	0.0000000E+000	0.0000000E+000	0.0000000E+000	27.7693	0.0000000E+000	0.0000000E+000	0.0000000E+000	-27.7693	0.0000000E+000	0.0000000E+000	0.0000000E+000	-62.2307	0.0000000E+000	0.0000000E+000	0.0000000E+000	62.2307	0.526555	27.7693	-1.84574e-08
19.9553	519.011	900.233	1039.13	-60.0353	172.886	0.459391	-6.06518e-05	8.85944	6.6493	1	40	0.0128812	1.23961e-05	0	-1.6705e-05	0.881432	0.340055	15.2642	4.73855e-05	4.11142e-05	5.81354e-05	2.47413e-05	3.86364e-05	4.66877e-05	1.4672	0.316807	21.2699	1.15802e-07	9.18193e-08	5.2967e-08	2.43686e-08	5.0447e-08	6.40642e-08	0.000480659	0.00083371	0.000962344	60.0353	6649.3	3833.52	7675.23	-29.9647	0.0000000E+000	0.0000000E+000	0.0000000E+000	29.9647	0.0000000E+000	0.0000000E+000	0.0000000E+000	-29.9647	0.0000000E+000	0.0000000E+000	0.0000000E+000	-60.0353	0.0000000E+000	0.0000000E+000	0.0000000E+000	60.0353	0.57653	29.9647	-3.68823e-08
15.8469	647.661	1034.11	1220.18	-57.9412	173.927	0.45944	-0.000114949	9.71202	6.97578	1	40	0.012881	1.05566e-05	0	-1.67071e-05	0.756399	0.464662	15.3191	3.43199e-05	4.1823e-05	2.48678e-05	3.59926e-05	3.49235e-05	4.61091e-05	1.62596	0.641606	24.3561	9.35197e-08	9.13938e-08	4.16983e-08	4.59961e-08	5.35034e-08	6.39323e-08	0.000435007	0.00069457	0.000819548	57.9412	6975.78	4368.91	8230.97	-32.0588	0.0000000E+000	0.0000000E+000	0.0000000E+000	32.0588	0.0000000E+000	0.0000000E+000	0.0000000E+000	-32.0588	0.0000000E+000	0.0000000E+000	0.0000000E+000	-57.9412	0.0000000E+000	0.0000000E+000	0.0000000E+000	57.9412	0.626297	32.0588	-2.05806e-09
12.5873	808.947	1173.48	1425.29	-55.4194	175.389	0.459406	-8.5922e-05	10.7748	7.30392	1	41	0.0128948	9.04712e-06	0	-1.67417e-05	0.735206	0.409885	13.7312	4.35495e-05	4.17504e-05	3.24454e-05	3.40873e-05	3.93288e-05	2.82787e-05	0.917657	0.112863	3.95581	6.83863e-08	3.23794e-08	2.39208e-08	2.03256e-08	5.31965e-09	6.00711e-09	0.00039821	0.000577655	0.00070161	55.4194	7303.92	5035	8871.21	-34.5806	0.0000000E+000	0.0000000E+000	0.0000000E+000	34.5806	0.0000000E+000	0.0000000E+000	0.0000000E+000	-34.5806	0.0000000E+000	0.0000000E+000	0.0000000E+000	-55.4194	0.0000000E+000	0.0000000E+000	0.0000000E+000	55.4194	0.689355	34.5806	-3.46877e-08
9.99682	1010.06	1312.11	1655.86	-52.4111	176.449	0.459441	-9.97354e-05	12.1335	7.61875	1	41	0.0128922	7.78584e-06	0	-1.67663e-05	1.00012	0.381915	19.233	5.00478e-05	3.06691e-05	5.65122e-05	3.25875e-05	5.86896e-05	5.19213e-05	0.913077	0.167575	6.2507	5.45568e-08	2.78021e-08	6.68419e-09	3.0189e-08	1.33371e-08	8.96064e-09	0.000368384	0.000478548	0.000603916	52.4111	7618.75	5864.88	9614.69	-37.5889	0.0000000E+000	0.0000000E+000	0.0000000E+000	37.5889	0.0000000E+000	0.0000000E+000	0.0000000E+000	-37.5889	0.0000000E+000	0.0000000E+000	0.0000000E+000	-52.4111	0.0000000E+000	0.0000000E+000	0.0000000E+000	52.4111	0.769796	37.5889	-2.45915e-08
7.93956	1248.48	1438.18	1904.49	-49.0388	177.658	0.459461	-0.00010286	13.9383	7.94841	1	41	0.0128738	6.75973e-06	0	-1.68452e-05	0.721228	0.443713	13.8034	3.77916e-05	5.02955e-05	3.55886e-05	2.74287e-05	2.4046e-05	3.44857e-05	0.868514	0.18728	5.26166	4.8479e-08	2.55639e-08	5.91208e-09	1.40362e-08	9.25792e-09	9.06342e-09	0.000344211	0.000396512	0.000525075	49.0388	7948.41	6899.99	10525.5	-40.9612	0.0000000E+000	0.0000000E+000	0.0000000E+000	40.9612	0.0000000E+000	0.0000000E+000	0.0000000E+000	-40.9612	0.0000000E+000	0.0000000E+000	0.0000000E+000	-49.0388	0.0000000E+000	0.0000000E+000	0.0000000E+000	49.0388	0.868097	40.9612	-7.88516e-08
6.31058	1520.7	1545.27	2168.04	-45.4591	179.042	0.45943	-9.98481e-05	16.321	8.29126	1	41	0.0128714	5.93688e-06	0	-1.68075e-05	0.815686	0.471612	13.7919	2.38718e-05	3.07622e-05	5.23678e-05	6.28975e-05	2.56443e-05	3.8901e-05	0.906744	0.255442	5.99284	4.48386e-08	2.10674e-08	1.25798e-08	1.233e-08	6.03662e-09	8.04857e-09	0.000323527	0.000328753	0.000461246	45.4591	8291.26	8159.45	11632.8	-44.5409	0.0000000E+000	0.0000000E+000	0.0000000E+000	44.5409	0.0000000E+000	0.0000000E+000	0.0000000E+000	-44.5409	0.0000000E+000	0.0000000E+000	0.0000000E+000	-45.4591	0.0000000E+000	0.0000000E+000	0.0000000E+000	45.4591	0.984102	44.5409	3.76596e-08
5.01283	1818.43	1633.48	2444.37	-41.9331	180.66	0.459408	-9.58159e-05	19.4367	8.67994	1	41	0.0128968	5.27612e-06	0	-1.68657e-05	0.559306	0.221129	11.0628	1.36731e-05	4.44818e-05	2.85637e-05	2.19698e-05	2.8571e-05	2.41633e-05	0.845478	0.114291	5.44716	3.90025e-08	1.41476e-08	5.35877e-09	1.26695e-08	4.79111e-09	4.94014e-09	0.000304342	0.000273388	0.000409103	41.9331	8679.94	9662.7	12988.8	-48.0669	0.0000000E+000	0.0000000E+000	0.0000000E+000	48.0669	0.0000000E+000	0.0000000E+000	0.0000000E+000	-48.0669	0.0000000E+000	0.0000000E+000	0.0000000E+000	-41.9331	0.0000000E+000	0.0000000E+000	0.0000000E+000	41.9331	1.11322	48.0669	-5.814e-08
3.9819	2136.22	1659.72	2705.2	-37.8452	182.581	0.459433	-9.92876e-05	24.0821	9.06498	1	41	0.0128642	4.75538e-06	0	-1.69153e-05	0.52576	0.249856	9.68635	1.87054e-05	2.40953e-05	2.09183e-05	3.49499e-05	1.25152e-05	3.34957e-05	0.881631	0.162951	5.3921	3.59225e-08	1.52201e-08	3.06546e-09	1.165e-08	3.92289e-09	6.07224e-09	0.000291909	0.000226797	0.000369659	37.8452	9064.98	11667.5	14775.1	-52.1548	0.0000000E+000	0.0000000E+000	0.0000000E+000	52.1548	0.0000000E+000	0.0000000E+000	0.0000000E+000	-52.1548	0.0000000E+000	0.0000000E+000	0.0000000E+000	-37.8452	0.0000000E+000	0.0000000E+000	0.0000000E+000	37.8452	1.28709	52.1548	-4.96452e-08
3.16296	2461.81	1650.16	2963.71	-33.8341	184.89	0.45943	-9.62622e-05	30.493	9.45328	1	41	0.0128665	4.34135e-06	0	-1.69599e-05	0.471392	0.233377	8.82418	1.64929e-05	1.8767e-05	3.17889e-05	2.91918e-05	2.46372e-05	1.78481e-05	0.930843	0.201685	5.30653	3.43659e-08	1.68018e-08	5.38407e-09	8.80635e-09	5.35601e-09	4.47408e-09	0.000280275	0.000187869	0.000337415	33.8341	9453.28	14103	16978.2	-56.1659	0.0000000E+000	0.0000000E+000	0.0000000E+000	56.1659	0.0000000E+000	0.0000000E+000	0.0000000E+000	-56.1659	0.0000000E+000	0.0000000E+000	0.0000000E+000	-33.8341	0.0000000E+000	0.0000000E+000	0.0000000E+000	33.8341	1.49186	56.1659	-4.4563e-08
2.51085	2770.49	1598.53	3198.57	-29.9843	187.694	0.459425	-9.58451e-05	39.6534	9.90392	1	41	0.0128572	4.01968e-06	0	-1.70437e-05	0.374093	0.246878	7.41874	1.89705e-05	1.95835e-05	1.14207e-05	2.05089e-05	1.36314e-05	2.36108e-05	0.827461	0.13681	4.97925	2.96188e-08	1.24563e-08	2.60705e-09	5.84275e-09	2.75453e-09	4.30795e-09	0.000270796	0.000156245	0.000312639	29.9843	9903.92	17165	19817.3	-60.0157	0.0000000E+000	0.0000000E+000	0.0000000E+000	60.0157	0.0000000E+000	0.0000000E+000	0.0000000E+000	-60.0157	0.0000000E+000	0.0000000E+000	0.0000000E+000	-29.9843	0.0000000E+000	0.0000000E+000	0.0000000E+000	29.9843	1.73315	60.0157	-8.3861e-08
1.99553	3055.36	1519.61	3412.39	-26.4438	191.118	0.459429	-9.62368e-05	52.4844	10.4082	1	41	0.012868	3.77097e-06	0	-1.71019e-05	0.363509	0.205993	6.57675	1.56077e-05	1.93053e-05	1.72654e-05	9.53385e-06	1.88261e-05	2.16054e-05	0.794675	0.122406	4.78068	2.58941e-08	1.19401e-08	4.08055e-09	5.87062e-09	2.93012e-09	3.62367e-09	0.000262388	0.000130501	0.000293049	26.4438	10408.2	20926.9	23372.3	-63.5562	0.0000000E+000	0.0000000E+000	0.0000000E+000	63.5562	0.0000000E+000	0.0000000E+000	0.0000000E+000	-63.5562	0.0000000E+000	0.0000000E+000	0.0000000E+000	-26.4438	0.0000000E+000	0.0000000E+000	0.0000000E+000	26.4438	2.01063	63.5562	-5.81449e-08
1.58533	3316.52	1407.95	3603	-23.0025	195.331	0.459418	-9.58665e-05	71.3041	10.8883	1	41	0.0128759	3.57365e-06	0	-1.73652e-05	0.337067	0.17157	5.8666	1.6639e-05	1.5711e-05	1.58347e-05	1.49479e-05	1.36313e-05	2.04436e-05	0.789246	0.121219	4.57931	2.39961e-08	1.14341e-08	2.86898e-09	7.03056e-09	2.63805e-09	4.094e-09	0.000255478	0.000108457	0.000277546	23.0025	10888.3	25648.1	27863.6	-66.9975	0.0000000E+000	0.0000000E+000	0.0000000E+000	66.9975	0.0000000E+000	0.0000000E+000	0.0000000E+000	-66.9975	0.0000000E+000	0.0000000E+000	0.0000000E+000	-23.0025	0.0000000E+000	0.0000000E+000	0.0000000E+000	23.0025	2.35557	66.9975	-2.6335e-07
1.25825	3535.69	1283.87	3761.57	-19.9569	202.18	0.459423	-0.000101753	98.5213	11.4772	1	42	0.0128748	3.42272e-06	0	-1.75323e-05	0.289924	0.156125	5.48448	8.13634e-06	1.12147e-05	2.07929e-05	1.53291e-05	1.85674e-05	1.19602e-05	0.772418	0.0389055	1.137	2.35162e-08	1.11244e-08	5.63514e-10	4.54405e-09	5.62491e-10	5.92645e-10	0.000249882	9.07366e-05	0.000265846	19.9569	11477.2	31607.3	33626.5	-70.0431	0.0000000E+000	0.0000000E+000	0.0000000E+000	70.0431	0.0000000E+000	0.0000000E+000	0.0000000E+000	-70.0431	0.0000000E+000	0.0000000E+000	0.0000000E+000	-19.9569	0.0000000E+000	0.0000000E+000	0.0000000E+000	19.9569	2.75393	70.0431	-1.67014e-07
1.00006	3722.51	1161.24	3899.43	-17.3253	208.64	0.459411	-0.000102353	137.048	12.1538	1	42	0.0128742	3.30156e-06	0	-1.77208e-05	0.227132	0.115209	4.79249	1.17493e-05	8.01758e-06	8.5782e-06	1.01182e-05	1.02928e-05	1.61823e-05	0.758244	0.0511642	1.11179	2.25584e-08	1.00336e-08	5.63061e-10	3.98048e-09	4.90839e-10	5.9022e-10	0.000244812	7.63692e-05	0.000256448	17.3253	12153.8	38960.7	40812.4	-72.6747	0.0000000E+000	0.0000000E+000	0.0000000E+000	72.6747	0.0000000E+000	0.0000000E+000	0.0000000E+000	-72.6747	0.0000000E+000	0.0000000E+000	0.0000000E+000	-17.3253	0.0000000E+000	0.0000000E+000	0.0000000E+000	17.3253	3.20565	72.6747	-1.88558e-07
0.79456	3879.07	1041.42	4016.43	-15.028	216.656	0.459421	-0.000102942	192.338	12.9313	1	42	0.0128647	3.20301e-06	0	-1.77715e-05	0.259642	0.160222	4.12939	8.5826e-06	1.44045e-05	1.70358e-05	1.05618e-05	9.33184e-06	1.43181e-05	0.771001	0.0375548	1.19352	2.2352e-08	9.78335e-09	4.23982e-10	3.72746e-09	2.86865e-10	3.16286e-10	0.000240462	6.45576e-05	0.000248977	15.028	12931.3	48166	49871.6	-74.972	0.0000000E+000	0.0000000E+000	0.0000000E+000	74.972	0.0000000E+000	0.0000000E+000	0.0000000E+000	-74.972	0.0000000E+000	0.0000000E+000	0.0000000E+000	-15.028	0.0000000E+000	0.0000000E+000	0.0000000E+000	15.028	3.72477	74.972	-5.06809e-08
0.630906	4020.05	929.123	4126.02	-13.0138	226.653	0.459433	-9.9864e-05	271.508	13.7678	1	42	0.012876	3.12068e-06	0	-1.84e-05	0.228363	0.0741599	3.69975	8.43113e-06	1.55449e-05	7.00513e-06	1.71725e-05	6.45044e-06	7.9624e-06	0.758211	0.0368884	1.18877	2.1463e-08	9.4816e-09	2.71381e-10	2.96037e-09	3.76331e-10	3.89051e-10	0.000236139	5.45771e-05	0.000242364	13.0138	13767.8	59569.5	61139.8	-76.9862	0.0000000E+000	0.0000000E+000	0.0000000E+000	76.9862	0.0000000E+000	0.0000000E+000	0.0000000E+000	-76.9862	0.0000000E+000	0.0000000E+000	0.0000000E+000	-13.0138	0.0000000E+000	0.0000000E+000	0.0000000E+000	13.0138	4.32671	76.9862	-6.28546e-07
0.500946	4135.05	822.999	4216.16	-11.2565	239.16	0.459428	-9.688e-05	386.038	14.7094	1	42	0.0128653	3.05143e-06	0	-1.86658e-05	0.186676	0.100426	3.35967	1.05347e-05	1.20912e-05	8.75521e-06	6.34439e-06	8.93922e-06	7.72915e-06	0.749109	0.0614695	1.23499	2.07192e-08	9.03961e-09	4.40232e-10	3.19699e-09	6.03555e-10	4.35354e-10	0.00023262	4.62984e-05	0.000237183	11.2565	14709.4	73905.5	75355.1	-78.7435	0.0000000E+000	0.0000000E+000	0.0000000E+000	78.7435	0.0000000E+000	0.0000000E+000	0.0000000E+000	-78.7435	0.0000000E+000	0.0000000E+000	0.0000000E+000	-11.2565	0.0000000E+000	0.0000000E+000	0.0000000E+000	11.2565	5.02437	78.7435	-2.65788e-07
0.398211	4235.68	720.559	4296.53	-9.65454	254.81	0.459414	-9.9951e-05	554.673	15.6006	1	42	0.0128641	2.99407e-06	0	-1.86767e-05	0.177336	0.0880984	2.87236	7.68888e-06	5.92131e-06	7.61803e-06	1.57948e-05	7.296e-06	5.47707e-06	0.764565	0.0564691	1.21813	2.08365e-08	9.053e-09	3.46291e-10	2.73242e-09	2.17039e-10	2.21975e-10	0.000229449	3.90332e-05	0.000232746	9.65454	15600.6	91705.2	93022.6	-80.3455	0.0000000E+000	0.0000000E+000	0.0000000E+000	80.3455	0.0000000E+000	0.0000000E+000	0.0000000E+000	-80.3455	0.0000000E+000	0.0000000E+000	0.0000000E+000	-9.65454	0.0000000E+000	0.0000000E+000	0.0000000E+000	9.65454	5.87832	80.3455	-1.09067e-08
0.316193	4324.47	628.487	4369.9	-8.26905	274.436	0.459434	-9.59657e-05	800.888	16.5661	1	42	0.0128723	2.94566e-06	0	-1.92191e-05	0.152236	0.0697344	2.56977	5.17971e-06	8.20687e-06	8.19568e-06	5.94523e-06	7.83555e-06	7.67526e-06	0.776747	0.029808	1.30105	2.09489e-08	8.7744e-09	2.90288e-10	2.71096e-09	1.52321e-10	3.61469e-10	0.000226459	3.29119e-05	0.000228838	8.26905	16566.1	113988	115185	-81.731	0.0000000E+000	0.0000000E+000	0.0000000E+000	81.731	0.0000000E+000	0.0000000E+000	0.0000000E+000	-81.731	0.0000000E+000	0.0000000E+000	0.0000000E+000	-8.26905	0.0000000E+000	0.0000000E+000	0.0000000E+000	8.26905	6.88077	81.731	-5.42354e-07
0.251222	4393.36	543.962	4426.91	-7.05813	299.054	0.459426	-9.84415e-05	1164.65	17.5845	1	42	0.0128656	2.90623e-06	0	-2.0411e-05	0.140899	0.0847161	2.32811	5.04055e-06	5.35722e-06	8.02182e-06	1.19456e-05	2.98183e-06	6.45968e-06	0.794923	0.026254	1.31331	2.13385e-08	8.52598e-09	3.04853e-10	2.32091e-09	2.76036e-10	2.46181e-10	0.000224179	2.77567e-05	0.000225891	7.05813	17584.5	142023	143108	-82.9419	0.0000000E+000	0.0000000E+000	0.0000000E+000	82.9419	0.0000000E+000	0.0000000E+000	0.0000000E+000	-82.9419	0.0000000E+000	0.0000000E+000	0.0000000E+000	-7.05813	0.0000000E+000	0.0000000E+000	0.0000000E+000	7.05813	8.07659	82.9419	-1.19192e-06
0.199573	4453.34	466.412	4477.7	-5.97896	329.962	0.459426	-9.67275e-05	1709.81	18.5514	1	42	0.0128658	2.8733e-06	0	-2.16744e-05	0.170635	0.0710238	2.02479	6.44646e-06	8.72054e-06	5.25257e-06	1.42553e-05	5.35589e-06	5.85102e-06	0.774435	0.0487146	1.29963	2.0484e-08	8.35812e-09	2.44724e-10	2.29832e-09	3.59125e-10	3.27253e-10	0.000222114	2.32627e-05	0.000223329	5.97896	18551.4	177130	178099	-84.021	0.0000000E+000	0.0000000E+000	0.0000000E+000	84.021	0.0000000E+000	0.0000000E+000	0.0000000E+000	-84.021	0.0000000E+000	0.0000000E+000	0.0000000E+000	-5.97896	0.0000000E+000	0.0000000E+000	0.0000000E+000	5.97896	9.54809	84.021	-1.26341e-06
0.158419	4500.77	394.883	4518.06	-5.01411	368.819	0.459427	-9.78319e-05	2544.16	19.4348	1	42	0.0128649	2.84744e-06	0	-2.24952e-05	0.122276	0.0696253	1.81131	4.23928e-06	5.84652e-06	4.67954e-06	1.09633e-05	4.28006e-06	4.17203e-06	0.780502	0.0560547	1.31987	2.05438e-08	8.13591e-09	3.27158e-10	2.33157e-09	9.26532e-11	2.22694e-10	0.000220487	1.93449e-05	0.000221334	5.01411	19434.8	221512	222363	-84.9859	0.0000000E+000	0.0000000E+000	0.0000000E+000	84.9859	0.0000000E+000	0.0000000E+000	0.0000000E+000	-84.9859	0.0000000E+000	0.0000000E+000	0.0000000E+000	-5.01411	0.0000000E+000	0.0000000E+000	0.0000000E+000	5.01411	11.3977	84.9859	-8.20787e-07
0.125939	4540.67	335.312	4553.04	-4.22342	417.616	0.459431	-9.99376e-05	3768.87	20.4413	1	42	0.0128655	2.8257e-06	0	-2.30285e-05	0.114633	0.0677303	1.59046	4.21973e-06	1.06305e-05	3.58556e-06	4.42186e-06	4.28743e-06	3.07638e-06	0.785583	0.0356337	1.37014	2.0555e-08	8.0856e-09	2.8498e-10	2.1545e-09	2.13651e-10	2.12896e-10	0.000219037	1.61751e-05	0.000219634	4.22342	20441.3	276808	277562	-85.7766	0.0000000E+000	0.0000000E+000	0.0000000E+000	85.7766	0.0000000E+000	0.0000000E+000	0.0000000E+000	-85.7766	0.0000000E+000	0.0000000E+000	0.0000000E+000	-4.22342	0.0000000E+000	0.0000000E+000	0.0000000E+000	4.22342	13.5416	85.7766	-5.3325e-07
0.0999518	4573.84	280.593	4582.44	-3.51055	479.018	0.45943	-9.90519e-05	5674.82	21.2772	1	42	0.0128657	2.8076e-06	0	-2.38725e-05	0.123018	0.0479495	1.53759	2.79241e-06	9.67222e-06	4.41868e-06	8.60654e-06	5.00321e-06	3.2639e-06	0.796609	0.0300726	1.37028	2.07613e-08	8.0089e-09	2.21441e-10	2.20305e-09	2.70358e-10	1.78455e-10	0.000217815	1.33624e-05	0.000218224	3.51055	21277.2	346830	347483	-86.4894	0.0000000E+000	0.0000000E+000	0.0000000E+000	86.4894	0.0000000E+000	0.0000000E+000	0.0000000E+000	-86.4894	0.0000000E+000	0.0000000E+000	0.0000000E+000	-3.51055	0.0000000E+000	0.0000000E+000	0.0000000E+000	3.51055	16.3006	86.4894	-8.44031e-07