File: Python/Data/RDE/240219-CV-EIS-Fe2Fe3_5mM-HCl1M-624RPM-Ag_AgCl_BLF8-GC-RDE_01_CV_C15.mpt
EC-Lab ASCII FILE
Nb header lines : 60

Cyclic Voltammetry

Run on channel : 15 (SN 19485)
User :
Electrode connection : standard
Potential control : Ewe
Ewe ctrl range : min = -1.00 V, max = 1.00 V
Ewe,I filtering : <None>
Safety Limits :
	Do not start on E overload
Channel : Floating
Acquisition started on : 02/19/2024 16:22:26.579
Loaded Setting File :  C:\Data\mathias\RDE-RPM-variation\240219-CV-EIS-Fe2Fe3_5mM-HCl1M-RPMtest-Ag_AgCl_BLF8-GC-RDE.mps
Saved on :
	File : 240219-CV-EIS-Fe2Fe3_5mM-HCl1M-624RPM-Ag_AgCl_BLF8-GC-RDE_01_CV_C15.mpr
	Directory : C:\Data\mathias\RDE-RPM-variation\
	Host : 192.168.0.1
Device : VMP-300 (SN 0826)
Address : USB
EC-Lab for windows v11.52 (software)
Internet server v11.52 (firmware)
Command interpretor v11.52 (firmware)
Electrode material :
Initial state :
Electrolyte :
Comments :
Cable : special
Electrode surface area : 0.001 cm²
Characteristic mass : 0.001 g
Equivalent Weight : 0.000 g/eq.
Density : 0.000 g/cm3
Volume (V) : 0.001 cm³
Record EIS quality indicators
Cycle Definition : Charge/Discharge alternance
Ei (V)              0.000
vs.                 Eoc
dE/dt               20.000
dE/dt unit          mV/s
E1 (V)              1.000
vs.                 Ref
Step percent        50
N                   10
E range min (V)     -1.000
E range max (V)     1.000
I Range             Auto
I Range min         Unset
I Range max         Unset
I Range init        Unset
Bandwidth           8
E2 (V)              0.000
vs.                 Ref
nc cycles           2
Reverse Scan        1
Ef (V)              0.000
vs.                 Eoc

mode	ox/red	error	control changes	counter inc.	time/s	control/V	Ewe/V	<I>/mA	cycle number	(Q-Qo)/C	I Range	step time/s	P/W
2	1	0	0	0	0.000000000000000E+000	0.46309	0.462623	0.000428459	1	0.0000000E+000	43	0.000000000000000E+000	1.98215e-07
2	1	0	1	0	0.5186	0.47346	0.473337	0.00268127	1	8.14412e-07	42	0.5048	1.26915e-06
2	1	0	1	0	1.0183	0.483455	0.483192	0.004806	1	2.6849e-06	42	1.0045	2.32222e-06
2	1	0	1	0	1.5181	0.49345	0.493035	0.00701849	1	5.63654e-06	42	1.5043	3.46036e-06
2	1	0	1	0	2.0179	0.503445	0.503308	0.00939616	1	9.73279e-06	42	2.0041	4.72916e-06
2	1	0	1	0	2.5476	0.51404	0.514149	0.0120606	1	1.54315e-05	41	2.5338	6.20095e-06
2	1	0	1	0	3.0474	0.524035	0.523647	0.0149691	1	2.2226e-05	41	3.0336	7.83852e-06
2	1	0	1	0	3.5471	0.534031	0.533814	0.0182139	1	3.05524e-05	41	3.5333	9.72281e-06
2	1	0	1	0	4.0469	0.544026	0.543828	0.0218349	1	4.05999e-05	41	4.0331	1.18744e-05
2	1	0	1	0	4.5467	0.554021	0.553784	0.0259736	1	5.25834e-05	41	4.5329	1.43837e-05
2	1	0	1	0	5.0464	0.564016	0.563818	0.0305385	1	6.67316e-05	41	5.0326	1.72182e-05
2	1	0	1	0	5.5462	0.574012	0.573716	0.0358108	1	8.33437e-05	41	5.5324	2.05452e-05
2	1	0	1	0	6.046	0.584009	0.583555	0.041637	1	0.000102719	41	6.0322	2.42975e-05
2	1	0	1	0	6.5457	0.594002	0.593687	0.048054	1	0.00012516	41	6.5319	2.8529e-05
2	1	0	1	0	7.0455	0.603997	0.603647	0.0552494	1	0.000150994	41	7.0317	3.33511e-05
2	1	0	1	0	7.5452	0.613993	0.613863	0.0630648	1	0.000180586	41	7.5314	3.87131e-05
2	1	0	1	0	8.045	0.623988	0.623661	0.0714117	1	0.000214219	41	8.0312	4.45366e-05
2	1	0	1	0	8.5448	0.633983	0.633804	0.0804986	1	0.000252202	41	8.531	5.10203e-05
2	1	0	1	0	9.0445	0.643978	0.643636	0.0899817	1	0.000294841	41	9.0307	5.79154e-05
2	1	0	1	0	9.5443	0.653974	0.653534	0.0997268	1	0.00034229	41	9.5305	6.51749e-05
2	1	0	1	0	10.059	0.664269	0.66404	0.110013	1	0.000396292	41	10.0452	7.30527e-05
2	1	0	1	0	10.5738	0.674564	0.674184	0.120539	1	0.000455706	40	10.56	8.12651e-05
2	1	0	1	0	11.0736	0.684559	0.684311	0.130915	1	0.00051854	40	11.0598	8.95865e-05
2	1	0	1	0	11.5733	0.694554	0.694261	0.141252	1	0.000586639	40	11.5595	9.80661e-05
2	1	0	1	0	12.0731	0.70455	0.703916	0.152288	1	0.000660085	40	12.0593	0.000107198
2	1	0	1	0	12.5728	0.714545	0.714373	0.161888	1	0.000738675	40	12.559	0.000115648
2	1	0	1	0	13.0726	0.72454	0.72424	0.171931	1	0.000822288	40	13.0588	0.000124519
2	1	0	1	0	13.5724	0.734535	0.734275	0.1824	1	0.000910915	40	13.5586	0.000133932
2	1	0	1	0	14.0721	0.744531	0.744164	0.192254	1	0.0010046	40	14.0583	0.000143069
2	1	0	1	0	14.5719	0.754526	0.754395	0.201665	1	0.0011031	40	14.5581	0.000152135
2	1	0	1	0	15.0716	0.764519	0.764315	0.210561	1	0.00120612	40	15.0578	0.000160935
2	1	0	1	0	15.5714	0.774516	0.774146	0.219302	1	0.00131384	40	15.5576	0.000169772
2	1	0	1	0	16.0712	0.784512	0.784029	0.227881	1	0.00142555	40	16.0574	0.000178666
2	1	0	1	0	16.5709	0.794507	0.794015	0.237184	1	0.0015418	40	16.5571	0.000188328
2	1	0	1	0	17.0707	0.804502	0.804247	0.243483	1	0.00166226	40	17.0569	0.00019582
2	1	0	1	0	17.5705	0.814497	0.814268	0.250916	1	0.00178572	40	17.5567	0.000204313
2	1	0	1	0	18.0702	0.824493	0.824225	0.257524	1	0.00191307	40	18.0564	0.000212258
2	1	0	1	0	18.57	0.834488	0.834015	0.263267	1	0.00204338	40	18.5562	0.000219568
2	1	0	1	0	19.0698	0.844483	0.844062	0.266404	1	0.00217631	40	19.056	0.000224862
2	1	0	1	0	19.5695	0.854478	0.854249	0.275126	1	0.00231129	40	19.5557	0.000235026
2	1	0	1	0	20.0693	0.864474	0.864261	0.279643	1	0.00244999	40	20.0555	0.000241685
2	1	0	1	0	20.569	0.874469	0.87417	0.283508	1	0.00259057	40	20.5552	0.000247834
2	1	0	1	0	21.0688	0.884464	0.883953	0.285755	1	0.00273283	40	21.055	0.000252594
2	1	0	1	0	21.5686	0.894459	0.894163	0.290211	1	0.0028771	40	21.5548	0.000259496
2	1	0	1	0	22.0683	0.904455	0.903935	0.293845	1	0.00302349	40	22.0545	0.000265617
2	1	0	1	0	22.5681	0.91445	0.914312	0.294428	1	0.00317037	40	22.5543	0.000269199
2	1	0	1	0	23.0678	0.924443	0.924232	0.300265	1	0.00331902	40	23.054	0.000277515
2	1	0	1	0	23.5676	0.93444	0.934182	0.302943	1	0.00347021	40	23.5538	0.000283004
2	1	0	1	0	24.0674	0.944435	0.944258	0.303219	1	0.00362119	40	24.0536	0.000286317
2	1	0	1	0	24.5671	0.954431	0.954108	0.305417	1	0.0037735	40	24.5533	0.0002914
2	1	0	1	0	25.0669	0.964426	0.964119	0.307324	1	0.00392668	40	25.0531	0.000296297
2	1	0	1	0	25.5667	0.974421	0.974116	0.307787	1	0.00407996	40	25.5529	0.00029982
2	1	0	1	0	26.0664	0.984416	0.983994	0.31029	1	0.00423451	40	26.0526	0.000305324
2	1	0	1	0	26.5662	0.994412	0.994154	0.312918	1	0.00439007	40	26.5524	0.000311088
2	1	0	1	0	27.0342	0.99621	0.995894	0.311434	1	0.00453661	40	27.0204	0.000310155
2	1	0	1	0	27.5339	0.986216	0.985856	0.31009	1	0.00469173	40	27.5201	0.000305704
2	1	0	1	0	28.0337	0.97622	0.975823	0.307967	1	0.00484602	40	28.0199	0.000300521
2	1	0	1	0	28.5334	0.966225	0.965938	0.303399	1	0.0049991	40	28.5196	0.000293064
2	1	0	1	0	29.0332	0.95623	0.955913	0.305063	1	0.00515185	40	29.0194	0.000291614
2	1	0	1	0	29.533	0.946235	0.945921	0.302875	1	0.0053032	40	29.5192	0.000286496
2	1	0	1	0	30.0327	0.936239	0.935708	0.298836	1	0.00545319	40	30.0189	0.000279624
2	1	0	1	0	30.5325	0.926244	0.926041	0.295034	1	0.00560163	40	30.5187	0.000273214
2	1	0	1	0	31.0322	0.91625	0.91584	0.294367	1	0.00574848	40	31.0184	0.000269593
2	1	0	1	0	31.532	0.906254	0.906132	0.287463	1	0.0058939	40	31.5182	0.00026048
2	1	0	1	0	32.0318	0.896258	0.896161	0.287123	1	0.00603769	40	32.018	0.000257308
2	1	0	1	0	32.5315	0.886263	0.88594	0.281184	1	0.00617984	40	32.5177	0.000249112
2	1	0	1	0	33.0313	0.876268	0.875848	0.276857	1	0.00631891	40	33.0175	0.000242485
2	1	0	1	0	33.5311	0.866273	0.86601	0.273243	1	0.00645663	40	33.5173	0.000236631
2	1	0	1	0	34.0308	0.856277	0.855997	0.26761	1	0.0065918	40	34.017	0.000229073
2	1	0	1	0	34.5306	0.846282	0.846072	0.262096	1	0.00672379	40	34.5168	0.000221752
2	1	0	1	0	35.0304	0.836286	0.836029	0.257442	1	0.00685335	40	35.0166	0.000215229
2	1	0	1	0	35.5301	0.826292	0.82599	0.251061	1	0.00698034	40	35.5163	0.000207374
2	1	0	1	0	36.0299	0.816296	0.81596	0.24346	1	0.00710367	40	36.0161	0.000198653
2	1	0	1	0	36.5296	0.806301	0.806046	0.236833	1	0.00722391	40	36.5158	0.000190898
2	1	0	1	0	37.0294	0.796306	0.795961	0.228534	1	0.0073403	40	37.0156	0.000181904
2	1	0	1	0	37.5292	0.786311	0.786125	0.22036	1	0.0074526	40	37.5154	0.000173231
2	1	0	1	0	38.0289	0.776316	0.776016	0.210546	1	0.00756024	40	38.0151	0.000163387
2	1	0	1	0	38.5287	0.76632	0.766158	0.202822	1	0.00766353	40	38.5149	0.000155394
2	1	0	1	0	39.0284	0.756326	0.75594	0.1932	1	0.00776257	40	39.0146	0.000146048
2	1	0	1	0	39.5282	0.74633	0.746174	0.184067	1	0.00785675	40	39.5144	0.000137346
2	1	0	1	0	40.028	0.736334	0.736142	0.174308	1	0.00794612	40	40.0142	0.000128316
2	1	0	1	0	40.5277	0.726339	0.726038	0.163435	1	0.00803044	40	40.5139	0.00011866
2	1	0	1	0	41.0275	0.716344	0.715911	0.153647	1	0.00810963	40	41.0137	0.000109998
2	1	0	1	0	41.5273	0.706349	0.706097	0.14396	1	0.00818396	40	41.5135	0.00010165
2	1	0	1	0	42.027	0.696353	0.695848	0.133985	1	0.00825327	40	42.0132	9.32329e-05
2	1	0	1	0	42.5268	0.686358	0.686045	0.124002	1	0.00831764	40	42.513	8.50712e-05
2	1	0	1	0	43.0266	0.676362	0.676077	0.114101	1	0.00837707	40	43.0128	7.71409e-05
2	1	0	1	0	43.5263	0.666368	0.665824	0.104601	1	0.00843163	40	43.5125	6.96457e-05
2	1	0	1	0	44.0261	0.656373	0.655867	0.0948751	1	0.0084814	40	44.0123	6.22255e-05
2	1	0	1	0	44.5258	0.646377	0.646122	0.0852456	1	0.00852635	40	44.512	5.50791e-05
2	1	0	1	0	45.0256	0.636382	0.636178	0.0765417	1	0.00856671	40	45.0118	4.86942e-05
2	1	0	1	0	45.5254	0.626387	0.626206	0.0681408	1	0.0086028	40	45.5116	4.26702e-05
2	1	0	1	0	46.0251	0.616392	0.615867	0.0601163	1	0.00863472	40	46.0113	3.70236e-05
2	1	0	1	0	46.5249	0.606396	0.606213	0.0528549	1	0.00866285	40	46.5111	3.20413e-05
2	1	0	1	0	47.0246	0.596402	0.595909	0.0460006	1	0.00868744	40	47.0108	2.74122e-05
2	1	0	1	0	47.5544	0.585806	0.585522	0.0394686	1	0.00870999	41	47.5406	2.31098e-05
2	1	0	1	0	48.0542	0.575811	0.575559	0.0340006	1	0.00872826	41	48.0404	1.95693e-05
2	1	0	1	0	48.5539	0.565816	0.5656	0.0290994	1	0.00874394	41	48.5401	1.64586e-05
2	1	0	1	0	49.0537	0.55582	0.555441	0.0246873	1	0.00875729	41	49.0399	1.37123e-05
2	1	0	1	0	49.5534	0.545826	0.545567	0.0208022	1	0.00876857	41	49.5396	1.1349e-05
2	1	0	1	0	50.0532	0.53583	0.535259	0.0172892	1	0.00877801	41	50.0394	9.25419e-06
2	1	0	1	0	50.553	0.525835	0.525336	0.0141119	1	0.00878578	41	50.5392	7.41347e-06
2	1	0	1	0	51.0527	0.515839	0.515696	0.0112915	1	0.00879206	41	51.0389	5.823e-06
2	1	0	1	0	51.5525	0.505844	0.505851	0.00868658	1	0.00879698	41	51.5387	4.39411e-06
2	1	0	1	0	52.0523	0.495849	0.495648	0.00630962	1	0.00880067	41	52.0385	3.12735e-06
2	1	0	1	0	52.582	0.485254	0.484863	0.00382219	1	0.00880332	42	52.5682	1.85324e-06
2	1	0	1	0	53.0818	0.475259	0.475123	0.0016871	1	0.00880469	42	53.068	8.0158e-07
2	0	0	1	0	53.6415	0.464064	0.463845	-0.000647585	1	0.00880498	42	0.1299	-3.00379e-07
2	0	0	1	0	54.1413	0.454069	0.453989	-0.00273782	1	0.00880414	42	0.6297	-1.24294e-06
2	0	0	1	0	54.641	0.444073	0.443562	-0.00488783	1	0.00880223	42	1.1294	-2.16805e-06
2	0	0	1	0	55.1408	0.434078	0.433746	-0.00715131	1	0.00879923	42	1.6292	-3.10185e-06
2	0	0	1	0	55.6406	0.424083	0.423645	-0.00958648	1	0.00879505	42	2.129	-4.06127e-06
2	0	0	1	0	56.1703	0.413488	0.41314	-0.0123664	1	0.00878924	41	2.6587	-5.10908e-06
2	0	0	1	0	56.6701	0.403493	0.40312	-0.0153336	1	0.0087823	41	3.1585	-6.18129e-06
2	0	0	1	0	57.1698	0.393497	0.393241	-0.0186788	1	0.00877378	41	3.6582	-7.34526e-06
2	0	0	1	0	57.6696	0.383502	0.383409	-0.0224746	1	0.00876349	41	4.158	-8.61696e-06
2	0	0	1	0	58.1694	0.373506	0.373368	-0.0267536	1	0.00875119	41	4.6578	-9.98892e-06
2	0	0	1	0	58.6691	0.363512	0.363248	-0.0315511	1	0.00873662	41	5.1575	-1.14609e-05
2	0	0	1	0	59.1689	0.353517	0.353313	-0.0369967	1	0.0087195	41	5.6573	-1.30714e-05
2	0	0	1	0	59.6686	0.343521	0.343077	-0.0431149	1	0.00869948	41	6.157	-1.47917e-05
2	0	0	1	0	60.1684	0.333526	0.333196	-0.0498813	1	0.00867624	41	6.6568	-1.66202e-05
2	0	0	1	0	60.6682	0.323531	0.323163	-0.057459	1	0.00864942	41	7.1566	-1.85686e-05
2	0	0	1	0	61.1679	0.313536	0.313308	-0.0657519	1	0.00861863	41	7.6563	-2.06006e-05
2	0	0	1	0	61.6677	0.30354	0.303125	-0.074859	1	0.00858349	41	8.1561	-2.26916e-05
2	0	0	1	0	62.1674	0.293546	0.293333	-0.0845085	1	0.00854366	41	8.6558	-2.47891e-05
2	0	0	1	0	62.6672	0.28355	0.283424	-0.094617	1	0.00849888	41	9.1556	-2.68167e-05
2	0	0	1	0	63.167	0.273555	0.273269	-0.105914	1	0.00844872	41	9.6554	-2.8943e-05
2	0	0	1	0	63.6967	0.26296	0.262895	-0.117517	1	0.00838958	40	10.1851	-3.08945e-05
2	0	0	1	0	64.1965	0.252964	0.252688	-0.128799	1	0.00832799	40	10.6849	-3.25459e-05
2	0	0	1	0	64.6962	0.24297	0.242878	-0.140831	1	0.00826062	40	11.1846	-3.42049e-05
2	0	0	1	0	65.196	0.232974	0.232759	-0.152413	1	0.00818733	40	11.6844	-3.54756e-05
2	0	0	1	0	65.6958	0.222979	0.222496	-0.163706	1	0.00810818	40	12.1842	-3.64239e-05
2	0	0	1	0	66.1955	0.212983	0.212559	-0.174359	1	0.0080238	40	12.6839	-3.70617e-05
2	0	0	1	0	66.6953	0.202988	0.202946	-0.185679	1	0.00793382	40	13.1837	-3.76828e-05
2	0	0	1	0	67.1951	0.192993	0.192768	-0.195528	1	0.00783851	40	13.6835	-3.76916e-05
2	0	0	1	0	67.6948	0.182998	0.182733	-0.203647	1	0.00773868	40	14.1832	-3.7213e-05
2	0	0	1	0	68.1946	0.173002	0.172792	-0.213326	1	0.00763439	40	14.683	-3.68611e-05
2	0	0	1	0	68.6944	0.163005	0.162804	-0.220567	1	0.00752589	40	15.1828	-3.59093e-05
2	0	0	1	0	69.1941	0.153012	0.152679	-0.230133	1	0.00741328	40	15.6825	-3.51365e-05
2	0	0	1	0	69.6939	0.143017	0.142605	-0.236496	1	0.00729649	40	16.1823	-3.37256e-05
2	0	0	1	0	70.1936	0.133021	0.132913	-0.241579	1	0.00717704	40	16.682	-3.2109e-05
2	0	0	1	0	70.6934	0.123026	0.122808	-0.249116	1	0.00705395	40	17.1818	-3.05935e-05
2	0	0	1	0	71.1932	0.113031	0.112668	-0.252313	1	0.00692876	40	17.6816	-2.84275e-05
2	0	0	1	0	71.6929	0.103036	0.10272	-0.257206	1	0.00680197	40	18.1813	-2.642e-05
2	0	0	1	0	72.1927	0.0930404	0.0926641	-0.261729	1	0.00667217	40	18.6811	-2.42529e-05
2	0	0	1	0	72.6924	0.0830452	0.0830317	-0.267259	1	0.00653958	40	19.1808	-2.2191e-05
2	0	0	1	0	73.1922	0.0730499	0.072764	-0.26827	1	0.00640519	40	19.6806	-1.95204e-05
2	0	0	1	0	73.692	0.0630547	0.062586	-0.271827	1	0.00626985	40	20.1804	-1.70125e-05
2	0	0	1	0	74.1917	0.0530594	0.0529601	-0.275615	1	0.00613313	40	20.6801	-1.45966e-05
2	0	0	1	0	74.6915	0.0430642	0.0427084	-0.277818	1	0.0059946	40	21.1799	-1.18652e-05
2	0	0	1	0	75.1913	0.0330689	0.0328429	-0.280163	1	0.00585571	40	21.6797	-9.20135e-06
2	0	0	1	0	75.691	0.0230737	0.0228387	-0.280971	1	0.00571517	40	22.1794	-6.41703e-06
2	0	0	1	0	76.1908	0.0130785	0.012553	-0.283638	1	0.00557391	40	22.6792	-3.56051e-06
2	0	0	1	0	76.6905	0.0030832	0.0028033	-0.286972	1	0.00543147	40	23.1789	-8.04469e-07
2	0	0	1	1	77.1585	0.00628168	0.00580972	-0.283448	1	0.00529762	40	23.6469	-1.64676e-06
2	0	0	1	1	77.6582	0.0162769	0.0159745	-0.281407	1	0.00515698	40	24.1466	-4.49534e-06
2	0	0	1	1	78.158	0.0262722	0.026242	-0.27868	1	0.00501704	40	24.6464	-7.31312e-06
2	0	0	1	1	78.6578	0.0362674	0.0360836	-0.274013	1	0.00487947	40	25.1462	-9.88737e-06
2	0	0	1	1	79.1575	0.0462627	0.0460443	-0.272746	1	0.00474286	40	25.6459	-1.25584e-05
2	0	0	1	1	79.6573	0.0562579	0.0560782	-0.268726	1	0.00460733	40	26.1457	-1.50697e-05
2	0	0	1	1	80.157	0.0662518	0.0660072	-0.267448	1	0.00447307	40	26.6454	-1.76535e-05
2	0	0	1	1	80.6568	0.0762484	0.0760887	-0.265069	1	0.00433983	40	27.1452	-2.01688e-05
2	0	0	1	1	81.1566	0.0862437	0.0861261	-0.26038	1	0.00420886	40	27.645	-2.24255e-05
2	0	0	1	1	81.6563	0.0962389	0.0961706	-0.257818	1	0.00407883	40	28.1447	-2.47945e-05
2	0	0	1	1	82.1561	0.106234	0.105681	-0.252375	1	0.0039517	40	28.6445	-2.66713e-05
2	0	0	1	1	82.6559	0.116229	0.115914	-0.246837	1	0.00382687	40	29.1443	-2.86117e-05
2	0	0	1	1	83.1556	0.126225	0.126023	-0.24052	1	0.00370536	40	29.644	-3.03111e-05
2	0	0	1	1	83.6554	0.13622	0.135875	-0.232619	1	0.00358708	40	30.1438	-3.1607e-05
2	0	0	1	1	84.1552	0.146216	0.145855	-0.227628	1	0.00347225	40	30.6436	-3.32006e-05
2	0	0	1	1	84.6549	0.15621	0.156108	-0.218365	1	0.00336041	40	31.1433	-3.40886e-05
2	0	0	1	1	85.1547	0.166206	0.16596	-0.212742	1	0.00325272	40	31.6431	-3.53068e-05
2	0	0	1	1	85.6544	0.176201	0.175989	-0.204666	1	0.00314836	40	32.1428	-3.60191e-05
2	0	0	1	1	86.1542	0.186196	0.185984	-0.19606	1	0.00304816	40	32.6426	-3.64641e-05
2	0	0	1	1	86.654	0.196191	0.195831	-0.185201	1	0.00295296	40	33.1424	-3.6268e-05
2	0	0	1	1	87.1537	0.206187	0.205899	-0.175322	1	0.00286311	40	33.6421	-3.60987e-05
2	0	0	1	1	87.6535	0.216182	0.216285	-0.165025	1	0.00277804	40	34.1419	-3.56925e-05
2	0	0	1	1	88.1532	0.226176	0.225817	-0.154472	1	0.0026983	40	34.6416	-3.48823e-05
2	0	0	1	1	88.653	0.236172	0.235891	-0.143817	1	0.00262372	40	35.1414	-3.3925e-05
2	0	0	1	1	89.1528	0.246168	0.245932	-0.132732	1	0.00255466	40	35.6412	-3.26432e-05
2	0	0	1	1	89.6525	0.256163	0.255821	-0.121382	1	0.00249123	40	36.1409	-3.10521e-05
2	0	0	1	1	90.1523	0.266158	0.265904	-0.110804	1	0.00243325	40	36.6407	-2.94634e-05
2	0	0	1	1	90.6521	0.276153	0.275851	-0.100008	1	0.00238071	40	37.1405	-2.75874e-05
2	0	0	1	1	91.1518	0.286149	0.285819	-0.0895896	1	0.00233342	40	37.6402	-2.56064e-05
2	0	0	1	1	91.6516	0.296144	0.295908	-0.0798661	1	0.00229118	40	38.14	-2.3633e-05
2	0	0	1	1	92.1514	0.30614	0.305894	-0.0707321	1	0.00225365	40	38.6398	-2.16365e-05
2	0	0	1	1	92.6511	0.316134	0.315957	-0.0622142	1	0.00222052	40	39.1395	-1.96571e-05
2	0	0	1	1	93.1509	0.32613	0.325914	-0.054303	1	0.0021915	40	39.6393	-1.76981e-05
2	0	0	1	1	93.6506	0.336125	0.335761	-0.0470166	1	0.00216626	40	40.139	-1.57864e-05
2	0	0	1	1	94.1804	0.34672	0.346326	-0.0400657	1	0.00214325	41	40.6688	-1.38758e-05
2	0	0	1	1	94.6802	0.356716	0.356433	-0.0342295	1	0.00212473	41	41.1686	-1.22005e-05
2	0	0	1	1	95.1799	0.36671	0.366071	-0.028934	1	0.002109	41	41.6683	-1.05919e-05
2	0	0	1	1	95.6797	0.376706	0.376558	-0.0242675	1	0.00209576	41	42.1681	-9.13814e-06
2	0	0	1	1	96.1794	0.386701	0.386233	-0.0200976	1	0.00208473	41	42.6678	-7.76235e-06
2	0	0	1	1	96.6792	0.396696	0.396442	-0.0163583	1	0.00207567	41	43.1676	-6.48511e-06
2	0	0	1	1	97.179	0.406691	0.406594	-0.0130119	1	0.00206837	41	43.6674	-5.29056e-06
2	0	0	1	1	97.6787	0.416686	0.416441	-0.0100468	1	0.00206265	41	44.1671	-4.1839e-06
2	0	0	1	1	98.1785	0.426682	0.426406	-0.00734726	1	0.00205835	41	44.6669	-3.13291e-06
2	0	0	1	1	98.6782	0.436677	0.436626	-0.00485145	1	0.00205535	41	45.1666	-2.11827e-06
2	0	0	1	1	99.208	0.447272	0.447075	-0.00229061	1	0.00205348	42	45.6964	-1.02407e-06
2	0	0	1	1	99.7228	0.457567	0.457276	1.24751e-06	1	0.0020529	42	46.2112	5.70455e-10
2	1	0	1	1	100.237	0.467862	0.467556	0.00230517	2	0.00205349	42	0.4748	1.07779e-06
2	1	0	1	1	100.737	0.477857	0.477648	0.00454982	2	0.0020552	42	0.9746	2.17322e-06
2	1	0	1	1	101.237	0.487853	0.487436	0.00688709	2	0.00205806	42	1.4743	3.35702e-06
2	1	0	1	1	101.737	0.497848	0.497506	0.00935555	2	0.00206212	42	1.9741	4.65444e-06
2	1	0	1	1	102.266	0.508443	0.508205	0.0121143	2	0.00206781	41	2.5038	6.15654e-06
2	1	0	1	1	102.766	0.518438	0.518215	0.0150493	2	0.00207463	41	3.0036	7.79876e-06
2	1	0	1	1	103.266	0.528433	0.527975	0.0182807	2	0.00208299	41	3.5034	9.65175e-06
2	1	0	1	1	103.766	0.538429	0.538353	0.0218628	2	0.00209305	41	4.0031	1.17699e-05
2	1	0	1	1	104.266	0.548424	0.547953	0.0258947	2	0.00210502	41	4.5029	1.4189e-05
2	1	0	1	1	104.765	0.558419	0.558034	0.0304409	2	0.00211913	41	5.0027	1.6987e-05
2	1	0	1	1	105.265	0.568414	0.568169	0.0355306	2	0.00213564	41	5.5024	2.01874e-05
2	1	0	1	1	105.765	0.57841	0.578202	0.0411923	2	0.00215483	41	6.0022	2.38175e-05
2	1	0	1	1	106.265	0.588405	0.58808	0.0474723	2	0.002177	41	6.5019	2.79175e-05
2	1	0	1	1	106.764	0.5984	0.598357	0.0543857	2	0.00220249	41	7.0017	3.25421e-05
2	1	0	1	1	107.264	0.608395	0.607895	0.0621327	2	0.00223162	41	7.5015	3.77702e-05
2	1	0	1	1	107.764	0.618391	0.617898	0.0704843	2	0.00226479	41	8.0012	4.35522e-05
2	1	0	1	1	108.264	0.628386	0.628222	0.0793704	2	0.00230226	41	8.501	4.98622e-05
2	1	0	1	1	108.763	0.63838	0.638083	0.0888306	2	0.00234431	41	9.0007	5.66813e-05
2	1	0	1	1	109.263	0.648376	0.648127	0.098718	2	0.00239123	41	9.5005	6.39818e-05
2	1	0	1	1	109.763	0.658372	0.658326	0.10872	2	0.0024431	41	10.0003	7.15735e-05
2	1	0	1	1	110.293	0.668967	0.668561	0.119542	2	0.00250363	40	10.53	7.99214e-05
2	1	0	1	1	110.792	0.678962	0.678827	0.12992	2	0.00256597	40	11.0298	8.81929e-05
2	1	0	1	1	111.292	0.688956	0.688852	0.140469	2	0.00263361	40	11.5295	9.67622e-05
2	1	0	1	1	111.792	0.698952	0.698655	0.150385	2	0.00270643	40	12.0293	0.000105067
2	1	0	1	1	112.292	0.708947	0.70861	0.162107	2	0.00278454	40	12.5291	0.000114871
2	1	0	1	1	112.791	0.718943	0.718789	0.171416	2	0.00286789	40	13.0288	0.000123212
2	1	0	1	1	113.291	0.728938	0.728523	0.181358	2	0.00295616	40	13.5286	0.000132123
2	1	0	1	1	113.791	0.738933	0.738614	0.191301	2	0.00304934	40	14.0284	0.000141298
2	1	0	1	1	114.291	0.748928	0.748679	0.201119	2	0.00314757	40	14.5281	0.000150574
2	1	0	1	1	114.791	0.758924	0.758891	0.209208	2	0.00325026	40	15.0279	0.000158766
2	1	0	1	1	115.29	0.76892	0.768706	0.218459	2	0.00335719	40	15.5277	0.00016793
2	1	0	1	1	115.79	0.778914	0.77873	0.227185	2	0.00346875	40	16.0274	0.000176916
2	1	0	1	1	116.29	0.788909	0.788334	0.235155	2	0.00358453	40	16.5272	0.00018538
2	1	0	1	1	116.79	0.798905	0.798747	0.242562	2	0.00370383	40	17.0269	0.000193746
2	1	0	1	1	117.289	0.8089	0.808631	0.250581	2	0.00382728	40	17.5267	0.000202627
2	1	0	1	1	117.789	0.818895	0.818679	0.256541	2	0.00395417	40	18.0265	0.000210025
2	1	0	1	1	118.289	0.82889	0.828357	0.26095	2	0.00408354	40	18.5262	0.00021616
2	1	0	1	1	118.789	0.838886	0.838813	0.26751	2	0.00421567	40	19.026	0.000224391
2	1	0	1	1	119.288	0.84888	0.848673	0.270679	2	0.00435043	40	19.5257	0.000229718
2	1	0	1	1	119.788	0.858876	0.858516	0.276265	2	0.00448688	40	20.0255	0.000237178
2	1	0	1	1	120.288	0.868871	0.868607	0.28149	2	0.0046264	40	20.5253	0.000244504
2	1	0	1	1	120.788	0.878867	0.878591	0.284556	2	0.00476822	40	21.025	0.000250008
2	1	0	1	1	121.287	0.888862	0.888568	0.289437	2	0.00491169	40	21.5248	0.000257184
2	1	0	1	1	121.787	0.898857	0.898659	0.292171	2	0.0050569	40	22.0246	0.000262562
2	1	0	1	1	122.287	0.908852	0.908539	0.29702	2	0.00520424	40	22.5243	0.000269854
2	1	0	1	1	122.787	0.918848	0.918657	0.298273	2	0.00535298	40	23.0241	0.00027401
2	1	0	1	1	123.287	0.928844	0.928368	0.304605	2	0.00550313	40	23.5239	0.000282785
2	1	0	1	1	123.786	0.938838	0.938348	0.303986	2	0.00565476	40	24.0236	0.000285245
2	1	0	1	1	124.286	0.948833	0.948566	0.304854	2	0.00580677	40	24.5234	0.000289174
2	1	0	1	1	124.786	0.958829	0.958511	0.307806	2	0.00595994	40	25.0231	0.000295035
2	1	0	1	1	125.286	0.968824	0.968761	0.307159	2	0.00611405	40	25.5229	0.000297563
2	1	0	1	1	125.785	0.978819	0.978698	0.312055	2	0.00626874	40	26.0227	0.000305408
2	1	0	1	1	126.285	0.988814	0.988447	0.309086	2	0.00642415	40	26.5224	0.000305515
2	1	0	1	1	126.785	0.99881	0.998359	0.315564	2	0.00658061	40	27.0222	0.000315046
2	1	0	1	1	127.258	0.991713	0.991239	0.31108	2	0.0067289	40	27.4951	0.000308355
2	1	0	1	1	127.758	0.981718	0.981307	0.30614	2	0.00688283	40	27.9949	0.000300417
2	1	0	1	1	128.257	0.971722	0.971732	0.306828	2	0.00703636	40	28.4947	0.000298155
2	1	0	1	1	128.757	0.961727	0.961428	0.301997	2	0.00718843	40	28.9944	0.000290349
2	1	0	1	1	129.257	0.951732	0.951428	0.299305	2	0.00733811	40	29.4942	0.000284767
2	1	0	1	1	129.757	0.941737	0.941453	0.299951	2	0.00748807	40	29.994	0.00028239
2	1	0	1	1	130.256	0.931742	0.931477	0.297874	2	0.00763774	40	30.4937	0.000277462
2	1	0	1	1	130.756	0.921746	0.921513	0.294658	2	0.00778642	40	30.9935	0.000271531
2	1	0	1	1	131.256	0.911751	0.911417	0.293383	2	0.0079332	40	31.4932	0.000267394
2	1	0	1	1	131.756	0.901756	0.901259	0.288701	2	0.00807877	40	31.993	0.000260194
2	1	0	1	1	132.255	0.89176	0.891575	0.285192	2	0.00822202	40	32.4928	0.00025427
2	1	0	1	1	132.755	0.881765	0.88157	0.280568	2	0.00836341	40	32.9925	0.00024734
2	1	0	1	1	133.255	0.87177	0.871417	0.277154	2	0.00850321	40	33.4923	0.000241517
2	1	0	1	1	133.755	0.861775	0.861591	0.271364	2	0.00864003	40	33.9921	0.000233805
2	1	0	1	1	134.254	0.85178	0.85141	0.265749	2	0.00877432	40	34.4918	0.000226261
2	1	0	1	1	134.754	0.841784	0.841314	0.260075	2	0.00890574	40	34.9916	0.000218805
2	1	0	1	1	135.254	0.831789	0.831794	0.254229	2	0.00903446	40	35.4913	0.000211466
2	1	0	1	1	135.754	0.821794	0.821477	0.248568	2	0.00916019	40	35.9911	0.000204193
2	1	0	1	1	136.254	0.811799	0.811465	0.241404	2	0.00928245	40	36.4909	0.000195891
2	1	0	1	1	136.753	0.801803	0.801679	0.232669	2	0.00940083	40	36.9906	0.000186526
2	1	0	1	1	137.253	0.791808	0.791491	0.224929	2	0.00951535	40	37.4904	0.00017803
2	1	0	1	1	137.753	0.781813	0.781545	0.218029	2	0.00962611	40	37.9902	0.000170399
2	1	0	1	1	138.253	0.771818	0.771527	0.208821	2	0.00973273	40	38.4899	0.000161111
2	1	0	1	1	138.752	0.761822	0.761637	0.198868	2	0.00983466	40	38.9897	0.000151465
2	1	0	1	1	139.252	0.751827	0.751437	0.189236	2	0.00993171	40	39.4894	0.000142199
2	1	0	1	1	139.752	0.741832	0.741584	0.179283	2	0.0100239	40	39.9892	0.000132953
2	1	0	1	1	140.252	0.731837	0.731461	0.170128	2	0.0101111	40	40.489	0.000124442
2	1	0	1	1	140.751	0.721841	0.721427	0.160669	2	0.0101937	40	40.9887	0.000115911
2	1	0	1	1	141.251	0.711846	0.711828	0.150402	2	0.0102712	40	41.4885	0.000107061
2	1	0	1	1	141.751	0.701851	0.701612	0.140549	2	0.0103439	40	41.9883	9.86105e-05
2	1	0	1	1	142.251	0.691856	0.691374	0.130372	2	0.0104115	40	42.488	9.01355e-05
2	1	0	1	1	142.75	0.68186	0.681592	0.120477	2	0.0104739	40	42.9878	8.21161e-05
2	1	0	1	1	143.25	0.671865	0.671546	0.110682	2	0.0105317	40	43.4875	7.43279e-05
2	1	0	1	1	143.75	0.66187	0.661536	0.10098	2	0.0105844	40	43.9873	6.68018e-05
2	1	0	1	1	144.25	0.651875	0.651678	0.0915574	2	0.0106324	40	44.4871	5.96659e-05
2	1	0	1	1	144.749	0.641879	0.641656	0.0821602	2	0.0106758	40	44.9868	5.27186e-05
2	1	0	1	1	145.249	0.631884	0.631682	0.0734344	2	0.0107146	40	45.4866	4.63872e-05
2	1	0	1	1	145.749	0.621891	0.62178	0.0650955	2	0.0107492	40	45.9863	4.04751e-05
2	1	0	1	1	146.249	0.611894	0.611853	0.0573679	2	0.0107798	40	46.4861	3.51007e-05
2	1	0	1	1	146.749	0.601898	0.601551	0.0502774	2	0.0108066	40	46.9859	3.02444e-05
2	1	0	1	1	147.278	0.591303	0.591054	0.0433227	2	0.0108313	41	47.5156	2.56061e-05
2	1	0	1	1	147.778	0.581308	0.581207	0.0374392	2	0.0108514	41	48.0154	2.17599e-05
2	1	0	1	1	148.278	0.571314	0.571183	0.0321691	2	0.0108686	41	48.5151	1.83744e-05
2	1	0	1	1	148.778	0.561318	0.560922	0.027433	2	0.0108835	41	49.0149	1.53878e-05
2	1	0	1	1	149.277	0.551322	0.551049	0.0232204	2	0.010896	41	49.5147	1.27956e-05
2	1	0	1	1	149.777	0.541327	0.541074	0.0194445	2	0.0109066	41	50.0144	1.05209e-05
2	1	0	1	1	150.277	0.531332	0.531126	0.0160413	2	0.0109154	41	50.5142	8.51994e-06
2	1	0	1	1	150.777	0.521337	0.521046	0.013008	2	0.0109226	41	51.014	6.77776e-06
2	1	0	1	1	151.276	0.511342	0.511048	0.0102477	2	0.0109283	41	51.5137	5.23708e-06
2	1	0	1	1	151.776	0.501346	0.50114	0.00773233	2	0.0109328	41	52.0135	3.87498e-06
2	1	0	1	1	152.276	0.49135	0.490969	0.00537414	2	0.010936	41	52.5133	2.63854e-06
2	1	0	1	1	152.806	0.480756	0.480512	0.00290775	2	0.0109381	42	53.043	1.39721e-06
2	1	0	1	1	153.305	0.470761	0.470375	0.000762179	2	0.010939	42	53.5428	3.5851e-07
2	0	0	1	1	153.865	0.459566	0.459101	-0.00160627	2	0.0109388	42	0.3398	-7.3744e-07
2	0	0	1	1	154.365	0.449571	0.449371	-0.00375396	2	0.0109375	42	0.8396	-1.68692e-06
2	0	0	1	1	154.865	0.439576	0.439146	-0.00598793	2	0.010935	42	1.3393	-2.62958e-06
2	0	0	1	1	155.364	0.42958	0.429431	-0.00835795	2	0.0109315	42	1.8391	-3.58916e-06
2	0	0	1	1	155.879	0.419285	0.418673	-0.0109809	2	0.0109265	42	2.3538	-4.59742e-06
2	0	0	1	1	156.394	0.40899	0.408689	-0.0138853	2	0.0109201	41	2.8686	-5.67478e-06
2	0	0	1	1	156.894	0.398995	0.39863	-0.0170468	2	0.0109123	41	3.3684	-6.79535e-06
2	0	0	1	1	157.393	0.389	0.38857	-0.020654	2	0.0109029	41	3.8681	-8.02551e-06
2	0	0	1	1	157.893	0.379004	0.378651	-0.024663	2	0.0108916	41	4.3679	-9.33865e-06
2	0	0	1	1	158.393	0.369009	0.368966	-0.0292642	2	0.0108781	41	4.8676	-1.07975e-05
2	0	0	1	1	158.893	0.359014	0.358943	-0.0344026	2	0.0108622	41	5.3674	-1.23486e-05
2	0	0	1	1	159.393	0.349019	0.348729	-0.0402143	2	0.0108435	41	5.8672	-1.40239e-05
2	0	0	1	1	159.892	0.339023	0.338894	-0.0467208	2	0.0108218	41	6.3669	-1.58334e-05
2	0	0	1	1	160.392	0.329028	0.328818	-0.0538682	2	0.0107967	41	6.8667	-1.77128e-05
2	0	0	1	1	160.892	0.319033	0.318642	-0.0618635	2	0.0107678	41	7.3665	-1.97123e-05
2	0	0	1	1	161.392	0.309038	0.308781	-0.0705691	2	0.0107347	41	7.8662	-2.17904e-05
2	0	0	1	1	161.891	0.299042	0.298782	-0.0800152	2	0.010697	41	8.366	-2.39071e-05
2	0	0	1	1	162.391	0.289047	0.288773	-0.0900459	2	0.0106545	41	8.8657	-2.60029e-05
2	0	0	1	1	162.891	0.279052	0.278676	-0.100616	2	0.0106069	41	9.3655	-2.80393e-05
2	0	0	1	1	163.421	0.268458	0.268075	-0.112419	2	0.0105504	40	9.8952	-3.01366e-05
2	0	0	1	1	163.92	0.258462	0.258129	-0.123709	2	0.0104913	40	10.395	-3.19328e-05
2	0	0	1	1	164.42	0.248467	0.248214	-0.135086	2	0.0104265	40	10.8948	-3.35302e-05
2	0	0	1	1	164.92	0.238471	0.23812	-0.146709	2	0.0103561	40	11.3945	-3.49343e-05
2	0	0	1	1	165.42	0.228476	0.228425	-0.1581	2	0.0102798	40	11.8943	-3.61139e-05
2	0	0	1	1	165.919	0.218481	0.218273	-0.168827	2	0.0101979	40	12.3941	-3.68504e-05
2	0	0	1	1	166.419	0.208486	0.208107	-0.17952	2	0.0101107	40	12.8938	-3.73594e-05
2	0	0	1	1	166.919	0.19849	0.198179	-0.190377	2	0.0100181	40	13.3936	-3.77287e-05
2	0	0	1	1	167.419	0.188495	0.18824	-0.201351	2	0.00992027	40	13.8934	-3.79023e-05
2	0	0	1	1	167.918	0.1785	0.178381	-0.210091	2	0.00981755	40	14.3931	-3.74763e-05
2	0	0	1	1	168.418	0.168505	0.168354	-0.218147	2	0.00971049	40	14.8929	-3.67259e-05
2	0	0	1	1	168.918	0.158509	0.158428	-0.224684	2	0.00959998	40	15.3926	-3.55963e-05
2	0	0	1	1	169.418	0.148514	0.148419	-0.232647	2	0.00948559	40	15.8924	-3.45292e-05
2	0	0	1	1	169.918	0.138519	0.138319	-0.240026	2	0.00936722	40	16.3922	-3.32002e-05
2	0	0	1	1	170.417	0.128524	0.128117	-0.24376	2	0.00924639	40	16.8919	-3.12299e-05
2	0	0	1	1	170.917	0.118528	0.118312	-0.250697	2	0.00912267	40	17.3917	-2.96606e-05
2	0	0	1	1	171.417	0.108534	0.107838	-0.254551	2	0.0089961	40	17.8914	-2.74502e-05
2	0	0	1	1	171.917	0.0985378	0.0983607	-0.259596	2	0.00886771	40	18.3912	-2.55341e-05
2	0	0	1	1	172.416	0.0885426	0.0883526	-0.264347	2	0.00873634	40	18.891	-2.33558e-05
2	0	0	1	1	172.916	0.0785473	0.0782472	-0.266921	2	0.00860359	40	19.3907	-2.08858e-05
2	0	0	1	1	173.416	0.0685521	0.0680796	-0.27173	2	0.00846867	40	19.8905	-1.84992e-05
2	0	0	1	1	173.916	0.0585568	0.0585186	-0.274585	2	0.00833237	40	20.3903	-1.60683e-05
2	0	0	1	1	174.415	0.0485616	0.0483444	-0.274106	2	0.00819494	40	20.89	-1.32515e-05
2	0	0	1	1	174.915	0.0385663	0.038217	-0.277045	2	0.00805734	40	21.3898	-1.05878e-05
2	0	0	1	1	175.415	0.0285702	0.0282514	-0.281943	2	0.00791743	40	21.8896	-7.96527e-06
2	0	0	1	1	175.915	0.0185758	0.0182657	-0.282631	2	0.00777639	40	22.3893	-5.16246e-06
2	0	0	1	1	176.414	0.00858059	0.00838126	-0.285654	2	0.00763426	40	22.8891	-2.39414e-06
2	0	0	1	0	176.882	0.000784296	0.000479574	-0.288276	2	0.00749976	40	23.357	-1.3825e-07
2	0	0	1	0	177.382	0.0107795	0.0106338	-0.283386	2	0.00735729	40	23.8568	-3.01346e-06
2	0	0	1	0	177.882	0.0207748	0.0204844	-0.280168	2	0.00721651	40	24.3565	-5.73907e-06
2	0	0	1	0	178.382	0.03077	0.0305165	-0.277582	2	0.00707734	40	24.8563	-8.47084e-06
2	0	0	1	0	178.881	0.0407653	0.0405465	-0.274644	2	0.00693926	40	25.3561	-1.11359e-05
2	0	0	1	0	179.381	0.0507605	0.0506541	-0.273011	2	0.00680241	40	25.8558	-1.38291e-05
2	0	0	1	0	179.881	0.0607558	0.0605889	-0.270194	2	0.00666659	40	26.3556	-1.63707e-05
2	0	0	1	0	180.381	0.0707528	0.0703048	-0.268096	2	0.00653168	40	26.8554	-1.88484e-05
2	0	0	1	0	180.88	0.0807463	0.080572	-0.263277	2	0.00639896	40	27.3551	-2.12128e-05
2	0	0	1	0	181.38	0.0907415	0.0903986	-0.258068	2	0.0062688	40	27.8549	-2.3329e-05
2	0	0	1	0	181.88	0.100737	0.100459	-0.253689	2	0.00614092	40	28.3546	-2.54854e-05
2	0	0	1	0	182.38	0.110732	0.110505	-0.250099	2	0.0060152	40	28.8544	-2.76372e-05
2	0	0	1	0	182.88	0.120727	0.120626	-0.243258	2	0.00589186	40	29.3542	-2.93433e-05
2	0	0	1	0	183.379	0.130722	0.13044	-0.238639	2	0.00577146	40	29.8539	-3.11279e-05
2	0	0	1	0	183.879	0.140718	0.14024	-0.233114	2	0.00565374	40	30.3537	-3.26919e-05
2	0	0	1	0	184.379	0.150713	0.150602	-0.225996	2	0.00553915	40	30.8534	-3.40355e-05
2	0	0	1	0	184.879	0.160708	0.160477	-0.217026	2	0.00542836	40	31.3532	-3.48277e-05
2	0	0	1	0	185.378	0.170703	0.170563	-0.210876	2	0.00532137	40	31.853	-3.59676e-05
2	0	0	1	0	185.878	0.180699	0.180387	-0.201177	2	0.00521849	40	32.3527	-3.62896e-05
2	0	0	1	0	186.378	0.190694	0.190445	-0.192249	2	0.00512004	40	32.8525	-3.66127e-05
2	0	0	1	0	186.878	0.200689	0.200609	-0.182477	2	0.00502647	40	33.3523	-3.66064e-05
2	0	0	1	0	187.377	0.210684	0.21028	-0.172025	2	0.00493779	40	33.852	-3.61734e-05
2	0	0	1	0	187.877	0.22068	0.220235	-0.161983	2	0.00485429	40	34.3518	-3.56744e-05
2	0	0	1	0	188.377	0.230675	0.230444	-0.151228	2	0.00477608	40	34.8515	-3.48496e-05
2	0	0	1	0	188.877	0.24067	0.240514	-0.139942	2	0.00470342	40	35.3513	-3.3658e-05
2	0	0	1	0	189.376	0.250665	0.250256	-0.129126	2	0.00463633	40	35.8511	-3.23144e-05
2	0	0	1	0	189.876	0.260661	0.260458	-0.11729	2	0.0045749	40	36.3508	-3.05491e-05
2	0	0	1	0	190.376	0.270656	0.270386	-0.106281	2	0.00451909	40	36.8506	-2.8737e-05
2	0	0	1	0	190.876	0.280651	0.28053	-0.0957224	2	0.00446861	40	37.3504	-2.6853e-05
2	0	0	1	0	191.375	0.290646	0.290209	-0.0858623	2	0.0044233	40	37.8501	-2.4918e-05
2	0	0	1	0	191.875	0.300642	0.300383	-0.0762243	2	0.00438293	40	38.3499	-2.28965e-05
2	0	0	1	0	192.375	0.310637	0.310485	-0.0675404	2	0.00434713	40	38.8496	-2.09703e-05
2	0	0	1	0	192.875	0.320632	0.320529	-0.0591421	2	0.00431561	40	39.3494	-1.89568e-05
2	0	0	1	0	193.375	0.330627	0.330298	-0.0515523	2	0.00428806	40	39.8492	-1.70276e-05
2	0	0	1	0	193.874	0.340623	0.340477	-0.0444762	2	0.00426417	40	40.3489	-1.51431e-05
2	0	0	1	0	194.404	0.351218	0.351095	-0.0377527	2	0.00424246	41	40.8787	-1.32548e-05
2	0	0	1	0	194.904	0.361213	0.36093	-0.0321072	2	0.00422505	41	41.3784	-1.15885e-05
2	0	0	1	0	195.404	0.371208	0.371056	-0.0270411	2	0.00421032	41	41.8782	-1.00338e-05
2	0	0	1	0	195.903	0.381203	0.381069	-0.0225573	2	0.00419797	41	42.378	-8.5959e-06
2	0	0	1	0	196.403	0.391199	0.391129	-0.0185291	2	0.00418775	41	42.8777	-7.24726e-06
2	0	0	1	0	196.903	0.401194	0.400595	-0.0149806	2	0.00417942	41	43.3775	-6.00117e-06
2	0	0	1	0	197.403	0.411188	0.410831	-0.0117725	2	0.00417277	41	43.8772	-4.83648e-06
2	0	0	1	0	197.902	0.421184	0.420708	-0.00888069	2	0.00416764	41	44.377	-3.73618e-06
2	0	0	1	0	198.402	0.43118	0.431248	-0.00627683	2	0.00416389	41	44.8768	-2.70687e-06
2	0	0	1	0	198.932	0.441775	0.441701	-0.00361664	2	0.0041613	42	45.4065	-1.59748e-06
2	0	0	1	0	199.432	0.45177	0.451594	-0.00130001	2	0.00416008	42	45.9063	-5.87074e-07
2	1	0	1	0	199.93	0.46174	0.461597	0.000958637	2	0.00416	42	0.1986	4.42504e-07
2	1	0	1	0	200.406	0.471261	0.47129	0.00310076	3	0.00416097	42	0.6746	1.46136e-06
2	1	0	1	0	200.906	0.481256	0.481023	0.00540095	3	0.00416309	42	1.1744	2.59798e-06
2	1	0	1	0	201.406	0.491252	0.490926	0.00780597	3	0.00416638	42	1.6742	3.83215e-06
2	1	0	1	0	201.905	0.501246	0.50126	0.0103547	3	0.00417092	42	2.1739	5.1904e-06
2	1	0	1	0	202.435	0.511841	0.511575	0.0132019	3	0.00417717	41	2.7037	6.75375e-06
2	1	0	1	0	202.935	0.521836	0.521472	0.016292	3	0.00418457	41	3.2034	8.49584e-06
2	1	0	1	0	203.435	0.531832	0.531632	0.0196448	3	0.00419359	41	3.7032	1.04438e-05
2	1	0	1	0	203.935	0.541828	0.541353	0.023437	3	0.00420438	41	4.203	1.26877e-05
2	1	0	1	0	204.434	0.551822	0.551566	0.0276769	3	0.00421718	41	4.7027	1.52656e-05
2	1	0	1	0	204.934	0.561818	0.561548	0.0324057	3	0.00423221	41	5.2025	1.81974e-05
2	1	0	1	0	205.434	0.571813	0.571455	0.0376617	3	0.00424974	41	5.7022	2.15219e-05
2	1	0	1	0	205.934	0.581808	0.58147	0.0435833	3	0.00427007	41	6.202	2.53424e-05
2	1	0	1	0	206.433	0.591803	0.591431	0.050153	3	0.00429353	41	6.7018	2.9662e-05
2	1	0	1	0	206.933	0.601798	0.601593	0.0574534	3	0.00432046	41	7.2015	3.45636e-05
2	1	0	1	0	207.433	0.611794	0.611707	0.0653275	3	0.00435117	41	7.7013	3.99613e-05
2	1	0	1	0	207.933	0.621788	0.62147	0.0738974	3	0.00438598	41	8.201	4.5925e-05
2	1	0	1	0	208.432	0.631784	0.631682	0.0830079	3	0.00442523	41	8.7008	5.24346e-05
2	1	0	1	0	208.932	0.641779	0.641471	0.0926514	3	0.00446921	41	9.2006	5.94331e-05
2	1	0	1	0	209.432	0.651775	0.651405	0.102532	3	0.00451803	41	9.7003	6.67899e-05
2	1	0	1	0	209.962	0.66237	0.66207	0.113324	3	0.00457522	40	10.2301	7.50287e-05
2	1	0	1	0	210.461	0.672365	0.672033	0.123649	3	0.00463446	40	10.7298	8.30963e-05
2	1	0	1	0	210.961	0.68236	0.682097	0.133952	3	0.0046989	40	11.2296	9.1368e-05
2	1	0	1	0	211.461	0.692355	0.692192	0.14424	3	0.00476852	40	11.7294	9.98417e-05
2	1	0	1	0	211.961	0.702351	0.702174	0.153912	3	0.00484303	40	12.2291	0.000108073
2	1	0	1	0	212.46	0.712346	0.712009	0.164471	3	0.00492267	40	12.7289	0.000117105
2	1	0	1	0	212.96	0.722339	0.721859	0.175184	3	0.00500758	40	13.2286	0.000126458
2	1	0	1	0	213.46	0.732336	0.732455	0.184229	3	0.00509748	40	13.7284	0.000134939
2	1	0	1	0	213.96	0.742332	0.742034	0.194605	3	0.0051922	40	14.2282	0.000144404
2	1	0	1	0	214.46	0.752329	0.752077	0.203867	3	0.00529174	40	14.728	0.000153324
2	1	0	1	0	214.959	0.762322	0.76195	0.213112	3	0.00539596	40	15.2277	0.00016238
2	1	0	1	0	215.459	0.772317	0.771905	0.221322	3	0.00550454	40	15.7275	0.000170839
2	1	0	1	0	215.959	0.782313	0.782194	0.230069	3	0.00561728	40	16.2272	0.000179958
2	1	0	1	0	216.459	0.792308	0.792014	0.237685	3	0.00573436	40	16.727	0.00018825
2	1	0	1	0	216.958	0.802303	0.801971	0.24529	3	0.00585514	40	17.2268	0.000196715
2	1	0	1	0	217.458	0.812298	0.81186	0.251489	3	0.00597943	40	17.7265	0.000204174
2	1	0	1	0	217.958	0.822294	0.822102	0.258087	3	0.00610667	40	18.2263	0.000212174
2	1	0	1	0	218.458	0.832289	0.831968	0.264599	3	0.00623741	40	18.726	0.000220138
2	1	0	1	0	218.957	0.842284	0.841901	0.268848	3	0.0063705	40	19.2258	0.000226343
2	1	0	1	0	219.457	0.852279	0.851919	0.274035	3	0.00650673	40	19.7256	0.000233456
2	1	0	1	0	219.957	0.862275	0.861944	0.279384	3	0.0066449	40	20.2253	0.000240814
2	1	0	1	0	220.457	0.87227	0.871983	0.28368	3	0.00678557	40	20.7251	0.000247364
2	1	0	1	0	220.956	0.882263	0.882275	0.285684	3	0.00692805	40	21.2248	0.000252052
2	1	0	1	0	221.456	0.89226	0.892098	0.291574	3	0.00707243	40	21.7246	0.000260113
2	1	0	1	0	221.956	0.902256	0.90193	0.293696	3	0.00721865	40	22.2244	0.000264893
2	1	0	1	0	222.456	0.912251	0.912001	0.296081	3	0.00736624	40	22.7241	0.000270026
2	1	0	1	0	222.955	0.922246	0.921805	0.296305	3	0.00751475	40	23.2239	0.000273136
2	1	0	1	0	223.455	0.932241	0.93184	0.299717	3	0.00766373	40	23.7237	0.000279289
2	1	0	1	0	223.955	0.942236	0.941876	0.304348	3	0.00781502	40	24.2234	0.000286658
2	1	0	1	0	224.455	0.952232	0.952102	0.306388	3	0.00796775	40	24.7232	0.000291713
2	1	0	1	0	224.955	0.962227	0.961923	0.308034	3	0.0081214	40	25.223	0.000296305
2	1	0	1	0	225.454	0.972222	0.971966	0.308724	3	0.0082757	40	25.7227	0.000300069
2	1	0	1	0	225.954	0.982218	0.98192	0.312857	3	0.00843173	40	26.2225	0.000307201
2	1	0	1	0	226.454	0.992213	0.991729	0.313438	3	0.00858793	40	26.7222	0.000310846
2	1	0	1	0	226.932	0.99821	0.99795	0.309964	3	0.00873745	40	27.2002	0.000309328
2	1	0	1	0	227.432	0.988215	0.987923	0.311799	3	0.00889203	40	27.7	0.000308033
2	1	0	1	0	227.931	0.978219	0.978055	0.308609	3	0.00904712	40	28.1997	0.000301837
2	1	0	1	0	228.431	0.968224	0.967922	0.302439	3	0.00919958	40	28.6995	0.000292737
2	1	0	1	0	228.931	0.95823	0.958156	0.305061	3	0.00935142	40	29.1992	0.000292296
2	1	0	1	0	229.431	0.948234	0.947939	0.303183	3	0.00950342	40	29.699	0.000287399
2	1	0	1	0	229.93	0.938238	0.93775	0.300239	3	0.00965439	40	30.1988	0.000281549
2	1	0	1	0	230.43	0.928243	0.927729	0.297474	3	0.00980338	40	30.6985	0.000275975
2	1	0	1	0	230.93	0.918248	0.917901	0.293364	3	0.00995131	40	31.1983	0.00026928
2	1	0	1	0	231.43	0.908253	0.908069	0.28945	3	0.0100966	40	31.6981	0.00026284
2	1	0	1	0	231.929	0.898257	0.897853	0.288229	3	0.0102412	40	32.1978	0.000258788
2	1	0	1	0	232.429	0.888262	0.888007	0.280739	3	0.010383	40	32.6976	0.000249298
2	1	0	1	0	232.929	0.878266	0.878047	0.27868	3	0.0105223	40	33.1974	0.000244694
2	1	0	1	0	233.429	0.868272	0.867836	0.274805	3	0.0106608	40	33.6971	0.000238486
2	1	0	1	0	233.928	0.858276	0.857949	0.270964	3	0.0107973	40	34.1969	0.000232473
2	1	0	1	0	234.428	0.848281	0.847982	0.26644	3	0.0109315	40	34.6966	0.000225936
2	1	0	1	0	234.928	0.838286	0.837973	0.260262	3	0.0110631	40	35.1964	0.000218093
2	1	0	1	0	235.428	0.828291	0.828023	0.252234	3	0.0111911	40	35.6962	0.000208855
2	1	0	1	0	235.927	0.818295	0.818073	0.245172	3	0.0113153	40	36.1959	0.000200569
2	1	0	1	0	236.427	0.8083	0.808089	0.237407	3	0.0114359	40	36.6957	0.000191846
2	1	0	1	0	236.927	0.798306	0.797871	0.230609	3	0.0115526	40	37.1954	0.000183996
2	1	0	1	0	237.427	0.78831	0.787922	0.222764	3	0.0116659	40	37.6952	0.00017552
2	1	0	1	0	237.927	0.778315	0.777762	0.214584	3	0.0117753	40	38.195	0.000166895
2	1	0	1	0	238.426	0.768319	0.767943	0.20426	3	0.0118799	40	38.6947	0.00015686
2	1	0	1	0	238.926	0.758324	0.758066	0.195818	3	0.0119799	40	39.1945	0.000148443
2	1	0	1	0	239.426	0.748329	0.747894	0.185787	3	0.0120751	40	39.6943	0.000138949
2	1	0	1	0	239.926	0.738334	0.737807	0.176611	3	0.0121655	40	40.194	0.000130305
2	1	0	1	0	240.425	0.728338	0.727989	0.167335	3	0.0122515	40	40.6938	0.000121818
2	1	0	1	0	240.925	0.718342	0.718125	0.156747	3	0.0123326	40	41.1936	0.000112564
2	1	0	1	0	241.425	0.708348	0.707894	0.146839	3	0.0124084	40	41.6933	0.000103947
2	1	0	1	0	241.925	0.698353	0.698046	0.137033	3	0.0124792	40	42.1931	9.56554e-05
2	1	0	1	0	242.424	0.688357	0.688195	0.126471	3	0.0125449	40	42.6928	8.70366e-05
2	1	0	1	0	242.924	0.678362	0.677823	0.117144	3	0.0126058	40	43.1926	7.94031e-05
2	1	0	1	0	243.424	0.668367	0.668285	0.106731	3	0.0126617	40	43.6924	7.13268e-05
2	1	0	1	0	243.924	0.658372	0.657996	0.0976275	3	0.0127126	40	44.1921	6.42385e-05
2	1	0	1	0	244.423	0.648376	0.648048	0.0882811	3	0.012759	40	44.6919	5.72104e-05
2	1	0	1	0	244.923	0.638382	0.638019	0.0792015	3	0.0128008	40	45.1916	5.05321e-05
2	1	0	1	0	245.423	0.628386	0.62829	0.0703595	3	0.012838	40	45.6914	4.42062e-05
2	1	0	1	0	245.923	0.618391	0.617988	0.0624366	3	0.0128712	40	46.1912	3.85851e-05
2	1	0	1	0	246.422	0.608395	0.608151	0.0548438	3	0.0129004	40	46.6909	3.33533e-05
2	1	0	1	0	246.922	0.5984	0.598242	0.0479213	3	0.012926	40	47.1907	2.86686e-05
2	1	0	1	0	247.452	0.587805	0.587456	0.0413069	3	0.0129496	41	47.7204	2.4266e-05
2	1	0	1	0	247.952	0.57781	0.577617	0.0356223	3	0.0129687	41	48.2202	2.0576e-05
2	1	0	1	0	248.452	0.567815	0.567475	0.0305625	3	0.0129852	41	48.72	1.73435e-05
2	1	0	1	0	248.951	0.557819	0.55745	0.0259649	3	0.0129992	41	49.2197	1.44741e-05
2	1	0	1	0	249.451	0.547824	0.547307	0.0219417	3	0.0130111	41	49.7195	1.20089e-05
2	1	0	1	0	249.951	0.537829	0.537595	0.018265	3	0.0130211	41	50.2193	9.81915e-06
2	1	0	1	0	250.451	0.527834	0.527209	0.0150179	3	0.0130293	41	50.719	7.91759e-06
2	1	0	1	0	250.95	0.517838	0.51745	0.0120479	3	0.013036	41	51.2188	6.23418e-06
2	1	0	1	0	251.45	0.507843	0.507927	0.00935487	3	0.0130413	41	51.7185	4.75159e-06
2	1	0	1	0	251.95	0.497848	0.497501	0.00690115	3	0.0130453	41	52.2183	3.43333e-06
2	1	0	1	0	252.45	0.487853	0.4875	0.00458437	3	0.0130481	41	52.7181	2.23488e-06
2	1	0	1	0	252.979	0.477258	0.476924	0.00216105	3	0.0130499	42	53.2478	1.03066e-06
2	0	0	1	0	253.509	0.466663	0.46609	-9.41944e-05	3	0.0130504	43	53.7776	-4.39031e-08
2	0	0	1	0	254.039	0.456068	0.455616	-0.00236077	3	0.0130498	42	0.5047	-1.07561e-06
2	0	0	1	0	254.539	0.446073	0.445575	-0.00454258	3	0.013048	42	1.0045	-2.02406e-06
2	0	0	1	0	255.038	0.436077	0.435717	-0.00683296	3	0.0130452	42	1.5042	-2.97724e-06
2	0	0	1	0	255.538	0.426082	0.425867	-0.00927604	3	0.0130412	42	2.004	-3.95036e-06
2	0	0	1	0	256.068	0.415486	0.415127	-0.0120327	3	0.0130355	41	2.5338	-4.9951e-06
2	0	0	1	0	256.568	0.405492	0.405162	-0.0150384	3	0.0130287	41	3.0335	-6.09299e-06
2	0	0	1	0	257.067	0.395497	0.395179	-0.0183632	3	0.0130204	41	3.5333	-7.25674e-06
2	0	0	1	0	257.567	0.385501	0.385023	-0.0221156	3	0.0130103	41	4.033	-8.515e-06
2	0	0	1	0	258.067	0.375506	0.37497	-0.0263224	3	0.0129982	41	4.5328	-9.8701e-06
2	0	0	1	0	258.567	0.365511	0.365133	-0.0311278	3	0.0129838	41	5.0326	-1.13658e-05
2	0	0	1	0	259.066	0.355516	0.355123	-0.0364895	3	0.0129669	41	5.5323	-1.29583e-05
2	0	0	1	0	259.566	0.34552	0.345347	-0.042573	3	0.0129471	41	6.0321	-1.47025e-05
2	0	0	1	0	260.066	0.335526	0.335311	-0.0493252	3	0.0129242	41	6.5318	-1.65393e-05
2	0	0	1	0	260.566	0.32553	0.325392	-0.0568265	3	0.0128977	41	7.0316	-1.84909e-05
2	0	0	1	0	261.066	0.315535	0.315022	-0.0650884	3	0.0128672	41	7.5314	-2.05043e-05
2	0	0	1	0	261.565	0.305539	0.30521	-0.0740552	3	0.0128324	41	8.0311	-2.26024e-05
2	0	0	1	0	262.065	0.295544	0.295191	-0.0836433	3	0.012793	41	8.5309	-2.46908e-05
2	0	0	1	0	262.565	0.285549	0.285373	-0.0939523	3	0.0127486	41	9.0307	-2.68114e-05
2	0	0	1	0	263.065	0.275554	0.275334	-0.104889	3	0.0126989	41	9.5304	-2.88795e-05
2	0	0	1	0	263.594	0.264959	0.264692	-0.116691	3	0.0126402	40	10.0602	-3.08871e-05
2	0	0	1	0	264.094	0.254963	0.254683	-0.127673	3	0.0125791	40	10.5599	-3.25162e-05
2	0	0	1	0	264.594	0.244968	0.244873	-0.139338	3	0.0125122	40	11.0597	-3.41202e-05
2	0	0	1	0	265.094	0.234973	0.234706	-0.150988	3	0.0124396	40	11.5595	-3.54379e-05
2	0	0	1	0	265.593	0.224978	0.224707	-0.162243	3	0.0123612	40	12.0592	-3.64572e-05
2	0	0	1	0	266.093	0.214982	0.214648	-0.172292	3	0.0122774	40	12.559	-3.69821e-05
2	0	0	1	0	266.593	0.204987	0.204753	-0.183973	3	0.0121883	40	13.0587	-3.76688e-05
2	0	0	1	0	267.093	0.194992	0.194676	-0.194154	3	0.0120938	40	13.5585	-3.77971e-05
2	0	0	1	0	267.592	0.184997	0.184419	-0.203058	3	0.0119941	40	14.0583	-3.74476e-05
2	0	0	1	0	268.092	0.175001	0.174798	-0.212681	3	0.0118902	40	14.558	-3.71761e-05
2	0	0	1	0	268.592	0.165006	0.164594	-0.220778	3	0.0117818	40	15.0578	-3.63388e-05
2	0	0	1	0	269.092	0.155011	0.154576	-0.229374	3	0.0116693	40	15.5576	-3.54558e-05
2	0	0	1	0	269.591	0.145016	0.144859	-0.236267	3	0.0115526	40	16.0573	-3.42254e-05
2	0	0	1	0	270.091	0.13502	0.134831	-0.242444	3	0.0114331	40	16.5571	-3.26891e-05
2	0	0	1	0	270.591	0.125025	0.124619	-0.24869	3	0.0113105	40	17.0568	-3.09914e-05
2	0	0	1	0	271.091	0.11503	0.114927	-0.253701	3	0.0111849	40	17.5566	-2.9157e-05
2	0	0	1	0	271.591	0.105035	0.104753	-0.257163	3	0.0110578	40	18.0564	-2.69387e-05
2	0	0	1	0	272.09	0.0950395	0.0948112	-0.261995	3	0.0109279	40	18.5561	-2.48401e-05
2	0	0	1	0	272.59	0.0850442	0.084698	-0.267852	3	0.0107955	40	19.0559	-2.26865e-05
2	0	0	1	0	273.09	0.075049	0.07494	-0.269803	3	0.0106613	40	19.5557	-2.0219e-05
2	0	0	1	0	273.59	0.0650537	0.0647879	-0.273305	3	0.0105256	40	20.0554	-1.77068e-05
2	0	0	1	0	274.089	0.0550585	0.0548065	-0.277386	3	0.0103876	40	20.5552	-1.52025e-05
2	0	0	1	0	274.589	0.0450632	0.044976	-0.278158	3	0.0102488	40	21.0549	-1.25104e-05
2	0	0	1	0	275.089	0.035068	0.0347966	-0.2811	3	0.0101089	40	21.5547	-9.78133e-06
2	0	0	1	0	275.589	0.0250727	0.0247069	-0.28369	3	0.00996785	40	22.0545	-7.00909e-06
2	0	0	1	0	276.088	0.0150775	0.0145343	-0.283919	3	0.00982612	40	22.5542	-4.12655e-06
2	0	0	1	0	276.588	0.00508225	0.00498973	-0.286506	3	0.00968337	40	23.054	-1.42959e-06
2	0	0	1	1	277.056	0.00428263	0.00393759	-0.282463	3	0.00955005	40	23.5219	-1.11222e-06
2	0	0	1	1	277.556	0.0142779	0.0140899	-0.280418	3	0.0094094	40	24.0217	-3.95107e-06
2	0	0	1	1	278.056	0.0242718	0.0239625	-0.280439	3	0.0092698	40	24.5214	-6.72001e-06
2	0	0	1	1	278.555	0.0342684	0.0342219	-0.277494	3	0.00913039	40	25.0212	-9.49638e-06
2	0	0	1	1	279.055	0.0442636	0.0437457	-0.274738	3	0.00899252	40	25.521	-1.20186e-05
2	0	0	1	1	279.555	0.0542589	0.0540234	-0.273344	3	0.00885542	40	26.0207	-1.4767e-05
2	0	0	1	1	280.055	0.0642541	0.0640337	-0.27009	3	0.00871946	40	26.5205	-1.72949e-05
2	0	0	1	1	280.554	0.0742494	0.0739426	-0.265307	3	0.00858558	40	27.0203	-1.96175e-05
2	0	0	1	1	281.054	0.0842446	0.0839511	-0.26042	3	0.00845407	40	27.52	-2.18626e-05
2	0	0	1	1	281.554	0.0942398	0.0940122	-0.257626	3	0.00832469	40	28.0198	-2.422e-05
2	0	0	1	1	282.054	0.104236	0.103868	-0.253697	3	0.00819708	40	28.5196	-2.6351e-05
2	0	0	1	1	282.553	0.11423	0.114037	-0.247633	3	0.008072	40	29.0193	-2.82393e-05
2	0	0	1	1	283.053	0.124226	0.124139	-0.243787	3	0.00794917	40	29.5191	-3.02636e-05
2	0	0	1	1	283.553	0.134221	0.133896	-0.237391	3	0.00782901	40	30.0188	-3.17858e-05
2	0	0	1	1	284.053	0.144216	0.143959	-0.229678	3	0.00771257	40	30.5186	-3.30643e-05
2	0	0	1	1	284.553	0.154211	0.15404	-0.223961	3	0.00759932	40	31.0184	-3.44989e-05
2	0	0	1	1	285.052	0.164207	0.163992	-0.216437	3	0.00748926	40	31.5181	-3.54939e-05
2	0	0	1	1	285.552	0.174202	0.173919	-0.207544	3	0.00738346	40	32.0179	-3.60959e-05
2	0	0	1	1	286.052	0.184196	0.184061	-0.198545	3	0.00728233	40	32.5176	-3.65443e-05
2	0	0	1	1	286.552	0.194192	0.193863	-0.189546	3	0.00718555	40	33.0174	-3.6746e-05
2	0	0	1	1	287.051	0.204188	0.203982	-0.178559	3	0.00709367	40	33.5172	-3.64227e-05
2	0	0	1	1	287.551	0.214183	0.213887	-0.168156	3	0.00700715	40	34.0169	-3.59665e-05
2	0	0	1	1	288.051	0.224178	0.224007	-0.15829	3	0.00692556	40	34.5167	-3.5458e-05
2	0	0	1	1	288.551	0.234173	0.233843	-0.147291	3	0.00684917	40	35.0165	-3.44428e-05
2	0	0	1	1	289.05	0.244169	0.24389	-0.135344	3	0.00677863	40	35.5162	-3.30091e-05
2	0	0	1	1	289.55	0.254164	0.253838	-0.124738	3	0.00671367	40	36.016	-3.16633e-05
2	0	0	1	1	290.05	0.26416	0.263898	-0.113852	3	0.0066541	40	36.5158	-3.00453e-05
2	0	0	1	1	290.55	0.274154	0.273773	-0.103154	3	0.0066	40	37.0155	-2.82409e-05
2	0	0	1	1	291.049	0.28415	0.283799	-0.0925795	3	0.00655118	40	37.5153	-2.62739e-05
2	0	0	1	1	291.549	0.294145	0.293943	-0.0828961	3	0.0065074	40	38.015	-2.43667e-05
2	0	0	1	1	292.049	0.30414	0.304011	-0.073266	3	0.00646845	40	38.5148	-2.22737e-05
2	0	0	1	1	292.549	0.314135	0.314114	-0.064684	3	0.00643408	40	39.0146	-2.03181e-05
2	0	0	1	1	293.048	0.324131	0.323898	-0.0564331	3	0.00640389	40	39.5143	-1.82786e-05
2	0	0	1	1	293.548	0.334126	0.333838	-0.0489583	3	0.00637758	40	40.0141	-1.63442e-05
2	0	0	1	1	294.078	0.344721	0.344415	-0.0419108	3	0.00635358	41	40.5438	-1.44347e-05
2	0	0	1	1	294.578	0.354716	0.354547	-0.0358811	3	0.00633419	41	41.0436	-1.27215e-05
2	0	0	1	1	295.078	0.364711	0.364569	-0.0303992	3	0.00631769	41	41.5434	-1.10826e-05
2	0	0	1	1	295.577	0.374706	0.374856	-0.0255144	3	0.00630377	41	42.0431	-9.56421e-06
2	0	0	1	1	296.077	0.384702	0.384479	-0.0211994	3	0.00629215	41	42.5429	-8.15073e-06
2	0	0	1	1	296.577	0.394697	0.394556	-0.0173386	3	0.00628257	41	43.0426	-6.84104e-06
2	0	0	1	1	297.077	0.404692	0.404435	-0.013878	3	0.00627481	41	43.5424	-5.61276e-06
2	0	0	1	1	297.576	0.414687	0.413977	-0.0107643	3	0.0062687	41	44.0422	-4.45617e-06
2	0	0	1	1	298.076	0.424683	0.424359	-0.00797172	3	0.00626405	41	44.5419	-3.38287e-06
2	0	0	1	1	298.576	0.434678	0.43429	-0.00537679	3	0.00626074	41	45.0417	-2.33508e-06
2	0	0	1	1	299.106	0.445273	0.444887	-0.00279957	3	0.00625859	42	45.5714	-1.24549e-06
2	0	0	1	1	299.605	0.455268	0.454931	-0.000501582	3	0.00625777	42	46.0712	-2.28185e-07
2	1	0	1	1	299.939	0.46194	0.461508	0.00103771	3	0.00625785	42	0.2037	4.78912e-07