File: Python/Data/RDE/240223-OCV-EIS-Fe2Fe3_5mM-HCl1M-2000RPM-Ag_AgCl_BLF8-GC-RDE-AllPreviousVariations_06_PEIS_C15.mpt
EC-Lab ASCII FILE
Nb header lines : 67

Potentio Electrochemical Impedance Spectroscopy

Run on channel : 15 (SN 19485)
User :
Electrode connection : standard
Potential control : Ewe
Ewe ctrl range : min = -1.00 V, max = 1.00 V
Ewe,I filtering : 50 kHz
Safety Limits :
	Do not start on E overload
Channel : Floating
Acquisition started on : 02/23/2024 12:36:41.987
Loaded Setting File :  C:\Data\mathias\RDE-RPM-variation\240222-CV-EIS-Fe2Fe3_5mM-HCl1M-0RPM-Ag_AgCl_BLF8-GC-RDE-DefaultSettings.mps
Saved on :
	File : 240223-OCV-EIS-Fe2Fe3_5mM-HCl1M-2000RPM-Ag_AgCl_BLF8-GC-RDE-AllPreviousVariations_06_PEIS_C15.mpr
	Directory : C:\Data\mathias\RDE-RPM-variation\
	Host : 192.168.0.1
Device : VMP-300 (SN 0826)
Address : USB
EC-Lab for windows v11.52 (software)
Internet server v11.52 (firmware)
Command interpretor v11.52 (firmware)
Electrode material :
Initial state :
Electrolyte :
Comments :
Cable : special
Reference electrode : SCE Saturated Calomel Electrode (0.241 V)
Electrode surface area : 0.001 cm²
Characteristic mass : 0.001 g
Equivalent Weight : 0.000 g/eq.
Density : 0.000 g/cm3
Volume (V) : 0.001 cm³
Record EIS quality indicators
Cycle Definition : Charge/Discharge alternance
Mode                Single sine
E (V)               0.0000
vs.                 Ref
tE (h:m:s)          0:01:0.0000
record              0
dI                  0.000
unit dI             mA
dt (s)              0.000
fi                  400.000
unit fi             kHz
ff                  100.000
unit ff             mHz
Nd                  10
Points              per decade
spacing             Logarithmic
Va (mV)             5.0
pw                  0.10
Na                  3
corr                0
E range min (V)     -1.000
E range max (V)     1.000
I Range             Auto
Bandwidth           8
nc cycles           2
goto Ns'            0
nr cycles           0
inc. cycle          1

freq/Hz	Re(Z)/Ohm	-Im(Z)/Ohm	|Z|/Ohm	Phase(Z)/deg	time/s	<Ewe>/V	<I>/mA	Cs/µF	Cp/µF	cycle number	I Range	|Ewe|/V	|I|/A	Ns	(Q-Qo)/mA.h	THD Ewe/%	NSD Ewe/%	NSR Ewe/%	|Ewe h2|/V	|Ewe h3|/V	|Ewe h4|/V	|Ewe h5|/V	|Ewe h6|/V	|Ewe h7|/V	THD I/%	NSD I/%	NSR I/%	|I h2|/A	|I h3|/A	|I h4|/A	|I h5|/A	|I h6|/A	|I h7|/A	Re(Y)/Ohm-1	Im(Y)/Ohm-1	|Y|/Ohm-1	Phase(Y)/deg	Re(C)/nF	Im(C)/nF	|C|/nF	Phase(C)/deg	Re(M)	Im(M)	|M|	Phase(M)/deg	Re(Permittivity)	Im(Permittivity)	|Permittivity|	Phase(Permittivity)/deg	Re(Resistivity)/Ohm.cm	Im(Resistivity)/Ohm.cm	|Resistivity|/Ohm.cm	Phase(Resistivity)/deg	Re(Conductivity)/mS/cm	Im(Conductivity)/mS/cm	|Conductivity|/mS/cm	Phase(Conductivity)/deg	Tan(Delta)	Loss Angle(Delta)/deg	dq/mA.h
399996	3.50458	1.60744	3.85564	-24.6394	1661.52	-0.000171482	-0.519568	0.247531	0.0430235	1	38	0.00462193	0.00119874	0	-0.00881205	-1	-1	-1	0	0	0	0	0	0	-1	-1	-1	0	0	0	0	0	0	0.235745	0.108129	0.25936	24.6394	43.0235	93.801	103.197	-65.3606	0.0000000E+000	0.0000000E+000	0.0000000E+000	65.3606	0.0000000E+000	0.0000000E+000	0.0000000E+000	-65.3606	0.0000000E+000	0.0000000E+000	0.0000000E+000	-24.6394	0.0000000E+000	0.0000000E+000	0.0000000E+000	24.6394	2.18023	65.3606	-0.00881205
200434	3.44149	1.02255	3.59019	-16.5479	1664.96	-0.000147119	-0.519646	0.776541	0.0629938	1	38	0.00516643	0.00143904	0	-0.00930549	-1	-1	-1	0	0	0	0	0	0	-1	-1	-1	0	0	0	0	0	0	0.267	0.0793322	0.278537	16.5479	62.9938	212.012	221.173	-73.4521	0.0000000E+000	0.0000000E+000	0.0000000E+000	73.4521	0.0000000E+000	0.0000000E+000	0.0000000E+000	-73.4521	0.0000000E+000	0.0000000E+000	0.0000000E+000	-16.5479	0.0000000E+000	0.0000000E+000	0.0000000E+000	16.5479	3.3656	73.4521	-0.000164784
100431	3.4439	0.939402	3.56972	-15.2576	1668.4	-0.000150288	-0.519495	1.68695	0.116826	1	38	0.00515532	0.00144418	0	-0.00979542	1.39524	0.542296	25.8544	2.13977e-05	2.06094e-05	2.87292e-05	3.13881e-05	1.98284e-05	3.75748e-05	0.103397	0.0669106	1.99797	3.63067e-07	8.4351e-07	1.96833e-07	6.57216e-07	6.45365e-07	3.65704e-07	0.27026	0.0737197	0.280134	15.2576	116.826	428.288	443.936	-74.7424	0.0000000E+000	0.0000000E+000	0.0000000E+000	74.7424	0.0000000E+000	0.0000000E+000	0.0000000E+000	-74.7424	0.0000000E+000	0.0000000E+000	0.0000000E+000	-15.2576	0.0000000E+000	0.0000000E+000	0.0000000E+000	15.2576	3.66605	74.7424	-0.000166956
50326.6	3.53754	1.32957	3.77915	-20.5985	1671.84	-0.000164026	-0.518179	2.37854	0.294406	1	38	0.00518777	0.00137273	0	-0.0102862	1.45872	0.705905	26.22	3.10618e-05	3.02372e-05	2.80147e-05	2.42735e-05	2.9275e-05	3.06918e-05	0.134298	0.092934	2.10921	8.41323e-07	6.99595e-07	6.64103e-07	8.60138e-07	4.08751e-07	7.3524e-07	0.247693	0.0930945	0.26461	20.5985	294.406	783.315	836.813	-69.4015	0.0000000E+000	0.0000000E+000	0.0000000E+000	69.4015	0.0000000E+000	0.0000000E+000	0.0000000E+000	-69.4015	0.0000000E+000	0.0000000E+000	0.0000000E+000	-20.5985	0.0000000E+000	0.0000000E+000	0.0000000E+000	20.5985	2.66066	69.4015	-0.000162858
25219	3.67788	2.23424	4.30333	-31.2778	1675.29	-0.00016781	-0.519223	2.82464	0.7614	1	38	0.0051702	0.00120144	0	-0.0107781	1.46942	0.965185	26.2336	3.16621e-05	3.08391e-05	3.05487e-05	3.01333e-05	2.01507e-05	2.96055e-05	0.144171	0.091695	2.46804	7.2263e-07	7.69988e-07	5.54524e-07	8.1077e-07	6.75968e-07	4.90597e-07	0.198604	0.120648	0.232378	31.2778	761.4	1253.38	1466.52	-58.7222	0.0000000E+000	0.0000000E+000	0.0000000E+000	58.7222	0.0000000E+000	0.0000000E+000	0.0000000E+000	-58.7222	0.0000000E+000	0.0000000E+000	0.0000000E+000	-31.2778	0.0000000E+000	0.0000000E+000	0.0000000E+000	31.2778	1.64615	58.7222	-0.000164796
12637.3	4.11565	4.03267	5.76204	-44.4166	1678.73	-0.000144043	-0.517506	3.123	1.5297	1	38	0.00515961	0.000895449	0	-0.0112677	1.49007	0.748797	25.8911	4.38182e-05	2.41177e-05	3.01095e-05	2.60616e-05	1.7249e-05	3.27445e-05	0.224666	0.130683	3.31423	1.35889e-06	2.56396e-07	7.44765e-07	5.3984e-07	4.53006e-07	9.1985e-07	0.123961	0.121462	0.17355	44.4166	1529.7	1561.18	2185.69	-45.5834	0.0000000E+000	0.0000000E+000	0.0000000E+000	45.5834	0.0000000E+000	0.0000000E+000	0.0000000E+000	-45.5834	0.0000000E+000	0.0000000E+000	0.0000000E+000	-44.4166	0.0000000E+000	0.0000000E+000	0.0000000E+000	44.4166	1.02058	45.5834	-0.000163377
6332.63	4.88178	7.32855	8.80564	-56.3312	1682.1	-0.000275143	-0.519229	3.4294	2.37537	1	38	0.00527744	0.000599324	0	-0.0117437	1.29289	0.829201	25.4911	3.48961e-05	1.27227e-05	2.27853e-05	3.083e-05	2.92648e-05	1.74841e-05	0.323291	0.118903	4.88305	1.44337e-06	4.9281e-07	6.98189e-07	5.81327e-07	3.60728e-07	5.42731e-07	0.0629587	0.0945139	0.113564	56.3312	2375.37	1582.31	2854.14	-33.6688	0.0000000E+000	0.0000000E+000	0.0000000E+000	33.6688	0.0000000E+000	0.0000000E+000	0.0000000E+000	-33.6688	0.0000000E+000	0.0000000E+000	0.0000000E+000	-56.3312	0.0000000E+000	0.0000000E+000	0.0000000E+000	56.3312	0.666131	33.6688	-0.000147725
3171.96	6.74086	13.2197	14.8391	-62.9825	1685.43	-0.000292833	-0.519277	3.79552	3.0123	1	38	0.00470082	0.000316786	0	-0.0122192	1.62887	0.921691	29.0385	1.24379e-05	2.40696e-05	1.47225e-05	2.9132e-05	5.44555e-05	2.84656e-05	0.541237	0.216671	9.30341	6.48363e-07	4.80823e-07	4.16404e-07	6.21104e-07	8.36143e-07	8.84075e-07	0.0306125	0.0600351	0.0673894	62.9825	3012.3	1536	3381.31	-27.0175	0.0000000E+000	0.0000000E+000	0.0000000E+000	27.0175	0.0000000E+000	0.0000000E+000	0.0000000E+000	-27.0175	0.0000000E+000	0.0000000E+000	0.0000000E+000	-62.9825	0.0000000E+000	0.0000000E+000	0.0000000E+000	62.9825	0.50991	27.0175	-0.00015839
1589.49	10.6327	23.1441	25.4696	-65.3254	1688.97	-0.0002686	-0.5187	4.32635	3.57237	1	38	0.00488035	0.000191614	0	-0.0127256	1.34463	0.595525	27.8711	1.62398e-05	2.7747e-05	3.18948e-05	2.37123e-05	2.48403e-05	2.48741e-05	0.792046	0.407528	15.4634	5.91711e-07	3.26041e-07	5.65467e-07	6.52301e-07	6.01024e-07	7.01898e-07	0.0163907	0.0356775	0.0392624	65.3254	3572.37	1641.19	3931.33	-24.6746	0.0000000E+000	0.0000000E+000	0.0000000E+000	24.6746	0.0000000E+000	0.0000000E+000	0.0000000E+000	-24.6746	0.0000000E+000	0.0000000E+000	0.0000000E+000	-65.3254	0.0000000E+000	0.0000000E+000	0.0000000E+000	65.3254	0.459413	24.6747	-0.000189747
796.787	18.0492	39.3854	43.3242	-65.3793	1692.55	-0.000271154	-0.514542	5.07157	4.19133	1	39	0.00509838	0.00011768	0	-0.0132285	1.25487	0.699017	24.6741	1.58764e-05	2.19737e-05	2.9718e-05	2.41822e-05	3.07175e-05	2.65517e-05	0.633951	0.329037	11.3332	4.51422e-07	2.01089e-07	2.16562e-07	2.5688e-07	1.71886e-07	3.29881e-07	0.00961608	0.0209833	0.0230818	65.3793	4191.33	1920.77	4610.49	-24.6207	0.0000000E+000	0.0000000E+000	0.0000000E+000	24.6207	0.0000000E+000	0.0000000E+000	0.0000000E+000	-24.6207	0.0000000E+000	0.0000000E+000	0.0000000E+000	-65.3793	0.0000000E+000	0.0000000E+000	0.0000000E+000	65.3793	0.458272	24.6207	-0.000156404
399.106	32.2585	64.8958	72.4712	-63.5689	1695.87	-0.000231673	-0.512684	6.1449	4.92739	1	39	0.00484885	6.69073e-05	0	-0.0136987	1.38562	0.996325	26.6184	2.5932e-05	2.4676e-05	2.06768e-05	2.50136e-05	3.07373e-05	2.56148e-05	1.03552	0.644192	20.1759	2.83015e-07	3.01694e-07	8.84833e-08	2.8643e-07	2.42854e-07	2.75648e-07	0.00614205	0.0123562	0.0137986	63.5689	4927.39	2449.32	5502.58	-26.4311	0.0000000E+000	0.0000000E+000	0.0000000E+000	26.4311	0.0000000E+000	0.0000000E+000	0.0000000E+000	-26.4311	0.0000000E+000	0.0000000E+000	0.0000000E+000	-63.5689	0.0000000E+000	0.0000000E+000	0.0000000E+000	63.5689	0.497082	26.4311	-0.000156561
199.936	57.5782	102.637	117.684	-60.708	1699.18	-0.000218736	-0.513033	7.75578	5.89924	1	39	0.00478131	4.06283e-05	0	-0.0141671	1.61386	0.807381	27.8744	2.68838e-05	3.20667e-05	3.62302e-05	1.88289e-05	3.23359e-05	3.16019e-05	1.57608	0.844987	33.6093	2.16143e-07	1.6577e-07	2.07735e-07	1.52391e-07	3.443e-07	2.82033e-07	0.00415741	0.00741084	0.00849733	60.708	5899.24	3309.41	6764.11	-29.292	0.0000000E+000	0.0000000E+000	0.0000000E+000	29.292	0.0000000E+000	0.0000000E+000	0.0000000E+000	-29.292	0.0000000E+000	0.0000000E+000	0.0000000E+000	-60.708	0.0000000E+000	0.0000000E+000	0.0000000E+000	60.708	0.56099	29.292	-0.000156467
100.224	100.753	158.888	188.14	-57.6207	1702.5	-0.000249568	-0.513865	9.99435	7.12813	1	39	0.00477028	2.53549e-05	0	-0.0146358	1.22704	0.737302	26.9663	2.21645e-05	2.4383e-05	1.66932e-05	2.68178e-05	2.56454e-05	1.98672e-05	2.38455	1.28482	53.0694	2.56907e-07	3.37323e-07	1.6092e-07	2.32848e-07	1.73071e-07	1.7089e-07	0.0028464	0.00448879	0.00531519	57.6207	7128.13	4520.04	8440.44	-32.3793	0.0000000E+000	0.0000000E+000	0.0000000E+000	32.3793	0.0000000E+000	0.0000000E+000	0.0000000E+000	-32.3793	0.0000000E+000	0.0000000E+000	0.0000000E+000	-57.6207	0.0000000E+000	0.0000000E+000	0.0000000E+000	57.6207	0.634113	32.3793	-0.000156223
50.2089	162.599	234.714	285.533	-55.2876	1705.73	-0.000231692	-0.51327	13.5052	9.1257	1	39	0.00474501	1.66181e-05	0	-0.0150902	1.59559	0.808712	26.7492	3.03927e-05	3.00539e-05	2.31562e-05	2.55695e-05	3.36791e-05	2.76651e-05	3.4415	2.4228	79.1717	2.18673e-07	1.87945e-07	1.66318e-07	1.42721e-07	3.23469e-07	2.11119e-07	0.00199437	0.0028789	0.00350222	55.2876	9125.7	6321.86	11101.5	-34.7124	0.0000000E+000	0.0000000E+000	0.0000000E+000	34.7124	0.0000000E+000	0.0000000E+000	0.0000000E+000	-34.7124	0.0000000E+000	0.0000000E+000	0.0000000E+000	-55.2876	0.0000000E+000	0.0000000E+000	0.0000000E+000	55.2876	0.692753	34.7124	-0.000150837
25.1691	250.913	348.344	429.302	-54.2347	1708.9	-0.000267705	-0.513118	18.1528	11.9518	1	39	0.00473892	1.10387e-05	0	-0.0155394	1.45653	0.677484	27.4899	1.88792e-05	2.47176e-05	2.81717e-05	1.91769e-05	1.81543e-05	3.37429e-05	6.13715	3.27614	123.306	3.6962e-07	2.02494e-07	2.50171e-07	1.70775e-07	1.54717e-07	3.43746e-07	0.00136143	0.00189008	0.00232936	54.2347	11951.8	8608.93	14729.5	-35.7653	0.0000000E+000	0.0000000E+000	0.0000000E+000	35.7653	0.0000000E+000	0.0000000E+000	0.0000000E+000	-35.7653	0.0000000E+000	0.0000000E+000	0.0000000E+000	-54.2347	0.0000000E+000	0.0000000E+000	0.0000000E+000	54.2347	0.720303	35.7653	-0.00015058
12.6144	393.247	498.408	634.866	-51.7263	1712.18	-0.000244321	-0.51382	25.3145	15.6019	1	39	0.00474056	7.46702e-06	0	-0.0160021	0.914335	0.501392	19.1515	9.90169e-06	2.03744e-05	1.29587e-05	2.27093e-05	1.14255e-05	1.50569e-05	5.81852	5.30365	128.849	1.26696e-07	1.79533e-07	1.41711e-07	1.92465e-07	1.87247e-07	1.48139e-07	0.000975669	0.00123658	0.00157514	51.7263	15601.9	12310	19873.5	-38.2737	0.0000000E+000	0.0000000E+000	0.0000000E+000	38.2737	0.0000000E+000	0.0000000E+000	0.0000000E+000	-38.2737	0.0000000E+000	0.0000000E+000	0.0000000E+000	-51.7263	0.0000000E+000	0.0000000E+000	0.0000000E+000	51.7263	0.789007	38.2737	-0.000164099
6.31569	609.386	795.941	1002.43	-52.5617	1715.83	-0.000251302	-0.51455	31.6606	19.9604	1	39	0.00475567	4.74413e-06	0	-0.0165173	1.08559	0.63262	19.2519	2.60402e-05	2.41022e-05	1.77515e-05	2.17039e-05	1.16881e-05	1.52479e-05	11.8058	17.5831	202.843	3.01038e-07	2.77507e-07	8.55846e-08	2.42155e-07	1.46698e-07	1.30513e-07	0.00060643	0.000792081	0.000997572	52.5617	19960.4	15282	25138.8	-37.4383	0.0000000E+000	0.0000000E+000	0.0000000E+000	37.4383	0.0000000E+000	0.0000000E+000	0.0000000E+000	-37.4383	0.0000000E+000	0.0000000E+000	0.0000000E+000	-52.5617	0.0000000E+000	0.0000000E+000	0.0000000E+000	52.5617	0.765616	37.4383	-0.00019492
3.16616	832.348	982.389	1287.59	-49.7264	1721.67	-0.000259503	-0.512726	51.1686	29.7862	1	39	0.00475079	3.68967e-06	0	-0.017345	0.553412	0.32916	12.24	1.32583e-05	1.10868e-05	1.16737e-05	8.05404e-06	7.56272e-06	6.1623e-06	15.0909	24.5646	162.291	4.2777e-07	1.54122e-07	1.84004e-07	9.69564e-08	1.01538e-07	9.87366e-08	0.000502052	0.000592553	0.000776644	49.7264	29786.2	25236.9	39039.9	-40.2736	0.0000000E+000	0.0000000E+000	0.0000000E+000	40.2736	0.0000000E+000	0.0000000E+000	0.0000000E+000	-40.2736	0.0000000E+000	0.0000000E+000	0.0000000E+000	-49.7264	0.0000000E+000	0.0000000E+000	0.0000000E+000	49.7264	0.84727	40.2736	-0.000327096
1.5871	1532.08	1288.15	2001.64	-40.0566	1732.11	-0.000255745	-0.51306	77.8485	32.2409	1	39	0.00475082	2.37346e-06	0	-0.0188272	0.430582	0.277398	8.21408	7.95591e-06	7.30449e-06	7.10785e-06	5.01622e-06	8.34944e-06	9.24366e-06	22.5231	41.3433	177.758	2.53362e-07	3.02466e-07	2.21456e-07	1.17193e-07	8.92502e-08	1.07897e-07	0.00038239	0.000321508	0.000499589	40.0566	32240.9	38346.2	50099	-49.9434	0.0000000E+000	0.0000000E+000	0.0000000E+000	49.9434	0.0000000E+000	0.0000000E+000	0.0000000E+000	-49.9434	0.0000000E+000	0.0000000E+000	0.0000000E+000	-40.0566	0.0000000E+000	0.0000000E+000	0.0000000E+000	40.0566	1.18936	49.9434	-0.000598338
0.79456	2177.48	1072.3	2427.19	-26.2179	1751.78	-0.000249142	-0.513131	186.8	36.4588	1	39	0.00474938	1.95674e-06	0	-0.0216232	0.339792	0.107199	5.20658	4.82218e-06	7.31556e-06	7.58264e-06	6.3808e-06	4.74344e-06	4.7552e-06	42.8582	25.7539	138.751	5.35984e-07	4.97409e-07	1.5132e-07	2.01335e-07	2.02606e-07	2.08627e-07	0.000369612	0.000182015	0.000411998	26.2179	36458.8	74035.5	82525.7	-63.7821	0.0000000E+000	0.0000000E+000	0.0000000E+000	63.7821	0.0000000E+000	0.0000000E+000	0.0000000E+000	-63.7821	0.0000000E+000	0.0000000E+000	0.0000000E+000	-26.2179	0.0000000E+000	0.0000000E+000	0.0000000E+000	26.2179	2.03066	63.7821	-0.00113883
0.398211	2899.73	655.161	2972.82	-12.7316	1789.91	-0.000270984	-0.51261	610.041	29.629	1	39	0.00474725	1.59688e-06	0	-0.0270484	0.237612	0.124944	3.67752	3.76295e-06	6.92801e-06	3.15927e-06	5.08434e-06	3.24528e-06	2.15754e-06	44.5368	46.746	138.931	3.8026e-07	2.60485e-07	2.5991e-07	2.46487e-07	2.48467e-07	2.10988e-07	0.000328111	7.41328e-05	0.000336381	12.7316	29629	131137	134443	-77.2684	0.0000000E+000	0.0000000E+000	0.0000000E+000	77.2684	0.0000000E+000	0.0000000E+000	0.0000000E+000	-77.2684	0.0000000E+000	0.0000000E+000	0.0000000E+000	-12.7316	0.0000000E+000	0.0000000E+000	0.0000000E+000	12.7316	4.42598	77.2684	-0.00222695
0.199573	2684.71	527.925	2736.12	-11.1248	1865.06	-0.000277902	-0.512284	1510.58	56.2365	1	39	0.00474766	1.73518e-06	0	-0.037738	0.171398	0.108279	2.73099	2.29441e-06	3.70819e-06	3.15409e-06	3.326e-06	2.46884e-06	3.81806e-06	35.2782	36.5751	107.861	1.57754e-07	2.17729e-07	1.92399e-07	2.65932e-07	2.82844e-07	2.33934e-07	0.000358613	7.05181e-05	0.00036548	11.1248	56236.5	285985	291462	-78.8752	0.0000000E+000	0.0000000E+000	0.0000000E+000	78.8752	0.0000000E+000	0.0000000E+000	0.0000000E+000	-78.8752	0.0000000E+000	0.0000000E+000	0.0000000E+000	-11.1248	0.0000000E+000	0.0000000E+000	0.0000000E+000	11.1248	5.0854	78.8752	-0.00439528
0.0999518	3222.49	143.208	3225.67	-2.54455	2014.12	-0.000257746	-0.51155	11119	21.9158	1	39	0.00474827	1.47203e-06	0	-0.0589151	0.160774	0.120383	2.3165	2.81222e-06	3.13273e-06	2.36726e-06	4.38563e-06	2.29636e-06	1.33576e-06	30.8173	15.3954	110.462	5.93474e-08	2.67451e-07	2.03988e-07	1.63851e-07	8.71244e-08	1.9858e-07	0.000309708	1.37634e-05	0.000310013	2.54455	21915.8	493153	493640	-87.4554	0.0000000E+000	0.0000000E+000	0.0000000E+000	87.4554	0.0000000E+000	0.0000000E+000	0.0000000E+000	-87.4554	0.0000000E+000	0.0000000E+000	0.0000000E+000	-2.54455	0.0000000E+000	0.0000000E+000	0.0000000E+000	2.54455	22.5022	87.4554	-0.00872134
252347	3.44812	1.13658	3.63062	-18.2435	2018.16	-0.000175919	-0.512891	0.554906	0.0543829	2	38	0.00514781	0.00141789	0	-0.0595015	-1	-1	-1	0	0	0	0	0	0	-1	-1	-1	0	0	0	0	0	0	0.261591	0.0862266	0.275435	18.2435	54.3829	164.985	173.716	-71.7565	0.0000000E+000	0.0000000E+000	0.0000000E+000	71.7565	0.0000000E+000	0.0000000E+000	0.0000000E+000	-71.7565	0.0000000E+000	0.0000000E+000	0.0000000E+000	-18.2435	0.0000000E+000	0.0000000E+000	0.0000000E+000	18.2435	3.03376	71.7565	-0.000164114
126447	3.42729	0.939268	3.55367	-15.3259	2021.6	-0.000144956	-0.514555	1.34005	0.0936151	2	38	0.00515746	0.00145131	0	-0.0599921	-1	-1	-1	0	0	0	0	0	0	-1	-1	-1	0	0	0	0	0	0	0.271392	0.0743765	0.281399	15.3259	93.6151	341.592	354.188	-74.6741	0.0000000E+000	0.0000000E+000	0.0000000E+000	74.6741	0.0000000E+000	0.0000000E+000	0.0000000E+000	-74.6741	0.0000000E+000	0.0000000E+000	0.0000000E+000	-15.3259	0.0000000E+000	0.0000000E+000	0.0000000E+000	15.3259	3.6489	74.6741	-0.000164247
63362.9	3.50767	1.16654	3.69656	-18.3956	2025.04	-0.000166803	-0.515287	2.1532	0.214432	2	38	0.00518807	0.00140349	0	-0.0604826	1.69095	0.727185	26.1951	3.95722e-05	3.29824e-05	2.98305e-05	2.3823e-05	4.47403e-05	2.73006e-05	0.127235	0.0977297	2.05585	1.07423e-06	6.94904e-07	4.90988e-07	5.46847e-07	6.50639e-07	4.70812e-07	0.256698	0.0853699	0.270521	18.3956	214.432	644.774	679.496	-71.6044	0.0000000E+000	0.0000000E+000	0.0000000E+000	71.6044	0.0000000E+000	0.0000000E+000	0.0000000E+000	-71.6044	0.0000000E+000	0.0000000E+000	0.0000000E+000	-18.3956	0.0000000E+000	0.0000000E+000	0.0000000E+000	18.3956	3.00689	71.6044	-0.000164123
31751	3.64645	1.9012	4.11232	-27.5368	2028.48	-0.00018522	-0.516207	2.63654	0.563529	2	38	0.00523515	0.00127304	0	-0.0609703	1.3462	0.742857	25.7366	3.02976e-05	1.97879e-05	2.49284e-05	2.15363e-05	3.56431e-05	3.18656e-05	0.147728	0.0788082	2.29445	8.58237e-07	9.4867e-07	6.53244e-07	7.35122e-07	6.69754e-07	3.73082e-07	0.215624	0.112423	0.243172	27.5368	563.529	1080.83	1218.92	-62.4632	0.0000000E+000	0.0000000E+000	0.0000000E+000	62.4632	0.0000000E+000	0.0000000E+000	0.0000000E+000	-62.4632	0.0000000E+000	0.0000000E+000	0.0000000E+000	-27.5368	0.0000000E+000	0.0000000E+000	0.0000000E+000	27.5368	1.91797	62.4632	-0.000163722
15912.6	3.93944	3.35819	5.17654	-40.446	2031.92	-0.000184307	-0.516499	2.97833	1.25344	2	38	0.00525666	0.00101548	0	-0.0614586	1.57261	0.62579	26.3218	4.16416e-05	3.72122e-05	3.13945e-05	2.86123e-05	1.73834e-05	3.12885e-05	0.122449	0.0639401	2.92999	3.55888e-07	3.38584e-07	4.73225e-07	5.95672e-07	6.52749e-07	3.58311e-07	0.147013	0.125321	0.193179	40.446	1253.44	1470.39	1932.14	-49.554	0.0000000E+000	0.0000000E+000	0.0000000E+000	49.554	0.0000000E+000	0.0000000E+000	0.0000000E+000	-49.554	0.0000000E+000	0.0000000E+000	0.0000000E+000	-40.446	0.0000000E+000	0.0000000E+000	0.0000000E+000	40.446	1.17309	49.554	-0.000161083
7967.67	4.57579	6.12434	7.64496	-53.2348	2035.39	-0.00032853	-0.516333	3.26159	2.09314	2	38	0.00515034	0.00067369	0	-0.0619457	1.32883	0.953715	26.4146	2.78771e-05	2.78601e-05	2.27895e-05	1.53726e-05	1.91201e-05	4.26436e-05	0.286122	0.202495	4.31871	1.40987e-06	5.21609e-07	6.67882e-07	6.06298e-07	6.46688e-07	3.133e-07	0.0782916	0.104787	0.130805	53.2348	2093.14	1563.88	2612.84	-36.7652	0.0000000E+000	0.0000000E+000	0.0000000E+000	36.7652	0.0000000E+000	0.0000000E+000	0.0000000E+000	-36.7652	0.0000000E+000	0.0000000E+000	0.0000000E+000	-53.2348	0.0000000E+000	0.0000000E+000	0.0000000E+000	53.2348	0.747148	36.7652	-0.000162969
3993.72	6.04113	11.1539	12.6848	-61.5593	2038.67	-0.000303794	-0.514278	3.57286	2.76249	2	38	0.004896	0.000385973	0	-0.0624057	1.27354	0.801077	27.5915	3.02171e-05	2.73213e-05	2.51828e-05	1.93455e-05	2.45363e-05	1.89607e-05	0.398742	0.1844	7.70771	7.47877e-07	6.57606e-07	4.50793e-07	5.63807e-07	5.02362e-07	2.69766e-07	0.0375448	0.0693199	0.0788344	61.5593	2762.49	1496.21	3141.65	-28.4407	0.0000000E+000	0.0000000E+000	0.0000000E+000	28.4407	0.0000000E+000	0.0000000E+000	0.0000000E+000	-28.4407	0.0000000E+000	0.0000000E+000	0.0000000E+000	-61.5593	0.0000000E+000	0.0000000E+000	0.0000000E+000	61.5593	0.541616	28.4407	-0.000157243
2001.92	9.1601	19.6514	21.6814	-65.0083	2042.21	-0.00029343	-0.514894	4.04558	3.32347	2	38	0.00495864	0.000228705	0	-0.0629089	1.71236	0.708039	27.5762	2.80912e-05	3.70743e-05	2.19773e-05	4.44264e-05	3.60672e-05	2.4034e-05	0.76633	0.339061	12.8714	9.18907e-07	7.83798e-07	8.55706e-07	6.53667e-07	4.8057e-07	2.91582e-07	0.0194861	0.041804	0.0461225	65.0083	3323.47	1549.17	3666.79	-24.9917	0.0000000E+000	0.0000000E+000	0.0000000E+000	24.9917	0.0000000E+000	0.0000000E+000	0.0000000E+000	-24.9917	0.0000000E+000	0.0000000E+000	0.0000000E+000	-65.0083	0.0000000E+000	0.0000000E+000	0.0000000E+000	65.0083	0.466131	24.9917	-0.000188521
1002.75	15.4444	33.5597	36.9429	-65.2878	2045.78	-0.000338894	-0.51168	4.72944	3.90285	2	39	0.0052687	0.000142617	0	-0.0634107	1.55544	0.555015	24.5608	1.82149e-05	3.55893e-05	2.16814e-05	2.49524e-05	4.02403e-05	4.28268e-05	0.887888	0.259512	9.28693	6.98721e-07	6.59276e-07	2.80234e-07	3.32817e-07	3.84619e-07	4.11407e-07	0.0113164	0.0245898	0.0270688	65.2878	3902.85	1796.12	4296.31	-24.7123	0.0000000E+000	0.0000000E+000	0.0000000E+000	24.7123	0.0000000E+000	0.0000000E+000	0.0000000E+000	-24.7123	0.0000000E+000	0.0000000E+000	0.0000000E+000	-65.2878	0.0000000E+000	0.0000000E+000	0.0000000E+000	65.2878	0.460208	24.7123	-0.000187705
502.588	27.5184	55.5462	61.9891	-63.6456	2049.1	-0.000303141	-0.511464	5.70103	4.57754	2	39	0.00489934	7.90356e-05	0	-0.063879	1.47416	0.782819	25.6323	2.54565e-05	1.27937e-05	4.26214e-05	3.21863e-05	1.65287e-05	2.72798e-05	1.13299	0.51974	16.5558	5.69026e-07	2.39516e-07	2.20332e-07	3.89974e-07	1.56136e-07	3.83314e-07	0.00716131	0.0144552	0.0161319	63.6456	4577.54	2267.78	5108.49	-26.3544	0.0000000E+000	0.0000000E+000	0.0000000E+000	26.3544	0.0000000E+000	0.0000000E+000	0.0000000E+000	-26.3544	0.0000000E+000	0.0000000E+000	0.0000000E+000	-63.6456	0.0000000E+000	0.0000000E+000	0.0000000E+000	63.6456	0.495414	26.3544	-0.000156063
251.853	48.7773	87.9667	100.585	-60.9917	2052.42	-0.000262803	-0.5126	7.1838	5.49444	2	39	0.00478366	4.75583e-05	0	-0.0643463	1.38932	0.618551	26.7328	1.03867e-05	1.86005e-05	3.09316e-05	2.12271e-05	3.05881e-05	2.79386e-05	1.67906	0.500518	28.062	1.72835e-07	1.71077e-07	3.52935e-07	3.22858e-07	2.09206e-07	4.95194e-07	0.00482115	0.00869463	0.00994183	60.9917	5494.44	3046.65	6282.59	-29.0083	0.0000000E+000	0.0000000E+000	0.0000000E+000	29.0083	0.0000000E+000	0.0000000E+000	0.0000000E+000	-29.0083	0.0000000E+000	0.0000000E+000	0.0000000E+000	-60.9917	0.0000000E+000	0.0000000E+000	0.0000000E+000	60.9917	0.554498	29.0083	-0.00015564
126.171	85.8777	134.968	159.973	-57.5321	2055.73	-0.000276709	-0.511073	9.34611	6.65271	2	39	0.00476024	2.97566e-05	0	-0.0648136	1.32864	0.816471	27.1497	3.15111e-05	1.68989e-05	2.68746e-05	2.28934e-05	1.97776e-05	2.04304e-05	1.95987	1.43888	44.4836	3.2014e-07	2.34725e-07	2.76309e-07	1.16928e-07	1.91925e-07	1.44899e-07	0.00335575	0.00527398	0.00625107	57.5321	6652.71	4233.01	7885.23	-32.4679	0.0000000E+000	0.0000000E+000	0.0000000E+000	32.4679	0.0000000E+000	0.0000000E+000	0.0000000E+000	-32.4679	0.0000000E+000	0.0000000E+000	0.0000000E+000	-57.5321	0.0000000E+000	0.0000000E+000	0.0000000E+000	57.5321	0.636284	32.4679	-0.000154813
63.2394	137.633	202.66	244.978	-55.8183	2059	-0.000268414	-0.510518	12.4183	8.4986	2	39	0.00474312	1.93614e-05	0	-0.065272	1.41791	0.587957	27.3847	2.05176e-05	2.7573e-05	1.93067e-05	1.62767e-05	3.08829e-05	3.31506e-05	3.14185	1.33061	67.5458	2.0194e-07	1.86526e-07	2.56556e-07	9.08321e-08	2.31629e-07	3.1284e-07	0.00229335	0.00337688	0.004082	55.8183	8498.6	5771.68	10273.2	-34.1817	0.0000000E+000	0.0000000E+000	0.0000000E+000	34.1817	0.0000000E+000	0.0000000E+000	0.0000000E+000	-34.1817	0.0000000E+000	0.0000000E+000	0.0000000E+000	-55.8183	0.0000000E+000	0.0000000E+000	0.0000000E+000	55.8183	0.679133	34.1817	-0.00015198
31.6723	226.391	298.085	374.31	-52.7839	2062.18	-0.000241925	-0.513032	16.8578	10.691	2	39	0.00475459	1.27023e-05	0	-0.0657195	1.53362	0.662753	26.7683	3.33898e-05	2.01028e-05	4.11831e-05	2.29843e-05	2.76312e-05	1.9601e-05	5.72342	2.24669	106.329	3.66999e-07	2.13591e-07	3.19859e-07	2.03717e-07	2.49193e-07	2.65444e-07	0.00161584	0.00212754	0.00267158	52.7839	10691	8119.67	13424.9	-37.2161	0.0000000E+000	0.0000000E+000	0.0000000E+000	37.2161	0.0000000E+000	0.0000000E+000	0.0000000E+000	-37.2161	0.0000000E+000	0.0000000E+000	0.0000000E+000	-52.7839	0.0000000E+000	0.0000000E+000	0.0000000E+000	52.7839	0.759486	37.2161	-0.000146956
15.879	334.968	432.533	547.072	-52.2446	2065.35	-0.000271452	-0.512023	23.1727	14.4852	2	39	0.00475358	8.68913e-06	0	-0.0661668	1.25059	0.914901	27.3742	1.24744e-05	3.50747e-05	1.83629e-05	2.26574e-05	1.23285e-05	2.51075e-05	8.96904	4.3672	158.236	3.32519e-07	3.6103e-07	3.65245e-07	1.21687e-07	1.42379e-07	3.45021e-07	0.00111922	0.0014452	0.00182791	52.2446	14485.2	11217.9	18321.1	-37.7554	0.0000000E+000	0.0000000E+000	0.0000000E+000	37.7554	0.0000000E+000	0.0000000E+000	0.0000000E+000	-37.7554	0.0000000E+000	0.0000000E+000	0.0000000E+000	-52.2446	0.0000000E+000	0.0000000E+000	0.0000000E+000	52.2446	0.774435	37.7554	-0.000146808
7.95573	514.077	600.45	790.453	-49.4314	2068.79	-0.000264714	-0.510959	33.3168	19.2249	2	39	0.00474581	6.00391e-06	0	-0.0666488	1.02878	0.435194	18.7284	1.33562e-05	2.26759e-05	2.09434e-05	1.70584e-05	2.02319e-05	1.59215e-05	8.21894	7.53243	159.87	2.19693e-07	2.4336e-07	1.89597e-07	1.2333e-07	1.61835e-07	1.21561e-07	0.000822766	0.000961003	0.0012651	49.4314	19224.9	16459.5	25308.4	-40.5686	0.0000000E+000	0.0000000E+000	0.0000000E+000	40.5686	0.0000000E+000	0.0000000E+000	0.0000000E+000	-40.5686	0.0000000E+000	0.0000000E+000	0.0000000E+000	-49.4314	0.0000000E+000	0.0000000E+000	0.0000000E+000	49.4314	0.856153	40.5686	-0.000168506
3.98597	793.438	932.504	1224.38	-49.6066	2073.71	-0.000263194	-0.511315	42.8189	24.8373	2	39	0.00474557	3.87589e-06	0	-0.0673407	0.794037	0.522741	12.9958	1.7606e-05	1.37568e-05	1.96575e-05	1.16243e-05	1.39575e-05	8.47329e-06	15.1904	32.0271	170.072	4.68416e-07	2.1755e-07	8.26658e-08	1.1292e-07	1.5386e-07	1.28813e-07	0.000529274	0.000622039	0.00081674	49.6066	24837.3	21133.2	32611.4	-40.3934	0.0000000E+000	0.0000000E+000	0.0000000E+000	40.3934	0.0000000E+000	0.0000000E+000	0.0000000E+000	-40.3934	0.0000000E+000	0.0000000E+000	0.0000000E+000	-49.6066	0.0000000E+000	0.0000000E+000	0.0000000E+000	49.6066	0.850869	40.3934	-0.000270768
1.99783	1363.64	1243.21	1845.29	-42.3549	2082.24	-0.000264221	-0.511379	64.0793	29.0856	2	39	0.00474702	2.57251e-06	0	-0.0685468	0.506182	0.169707	9.15336	1.29063e-05	9.37023e-06	9.22844e-06	7.6781e-06	8.22631e-06	8.04056e-06	14.5325	31.4114	175.706	2.3643e-07	1.34594e-07	1.26552e-07	1.45122e-07	5.76399e-08	1.04914e-07	0.000400472	0.000365103	0.000541921	42.3549	29085.6	31903.2	43171.6	-47.6451	0.0000000E+000	0.0000000E+000	0.0000000E+000	47.6451	0.0000000E+000	0.0000000E+000	0.0000000E+000	-47.6451	0.0000000E+000	0.0000000E+000	0.0000000E+000	-42.3549	0.0000000E+000	0.0000000E+000	0.0000000E+000	42.3549	1.09687	47.6451	-0.000484286
1.00122	1883.2	975.806	2121	-27.3916	2098.1	-0.000271753	-0.511204	162.903	34.4806	2	39	0.00474682	2.23801e-06	0	-0.0707933	0.330538	0.162506	6.188	6.36623e-06	2.40193e-06	6.31027e-06	6.42096e-06	6.67816e-06	7.68084e-06	21.8699	20.7573	143.575	3.29299e-07	1.87426e-07	2.0306e-07	6.63071e-08	1.20466e-07	1.31762e-07	0.000418616	0.000216912	0.000471476	27.3916	34480.6	66543.8	74946.6	-62.6084	0.0000000E+000	0.0000000E+000	0.0000000E+000	62.6084	0.0000000E+000	0.0000000E+000	0.0000000E+000	-62.6084	0.0000000E+000	0.0000000E+000	0.0000000E+000	-27.3916	0.0000000E+000	0.0000000E+000	0.0000000E+000	27.3916	1.92989	62.6084	-0.000914033
0.501541	2370.16	677.425	2465.07	-15.9507	2128.6	-0.000266939	-0.510897	468.439	35.3766	2	39	0.00475388	1.9285e-06	0	-0.0751128	0.27553	0.131492	4.38325	4.45387e-06	4.49124e-06	4.48184e-06	5.59737e-06	4.83559e-06	5.64222e-06	34.5676	18.7083	123.608	3.33655e-07	3.23162e-07	2.89031e-07	2.44139e-07	1.79109e-07	1.39372e-07	0.000390049	0.000111481	0.000405668	15.9507	35376.6	123775	128731	-74.0493	0.0000000E+000	0.0000000E+000	0.0000000E+000	74.0493	0.0000000E+000	0.0000000E+000	0.0000000E+000	-74.0493	0.0000000E+000	0.0000000E+000	0.0000000E+000	-15.9507	0.0000000E+000	0.0000000E+000	0.0000000E+000	15.9507	3.49878	74.0493	-0.00177091
0.251222	2425.49	501.411	2476.78	-11.68	2188.49	-0.000250515	-0.510268	1263.48	51.7825	2	39	0.00474762	1.91685e-06	0	-0.0836016	0.207593	0.119587	3.28928	4.73077e-06	3.75525e-06	3.11181e-06	4.02896e-06	3.1528e-06	3.63702e-06	37.9703	22.1837	98.6491	2.74121e-07	2.28742e-07	3.4133e-07	2.55654e-07	2.05579e-07	3.52781e-07	0.00039539	8.17373e-05	0.000403751	11.68	51782.5	250489	255786	-78.32	0.0000000E+000	0.0000000E+000	0.0000000E+000	78.32	0.0000000E+000	0.0000000E+000	0.0000000E+000	-78.32	0.0000000E+000	0.0000000E+000	0.0000000E+000	-11.68	0.0000000E+000	0.0000000E+000	0.0000000E+000	11.68	4.83733	78.32	-0.00348902
0.125939	2762.76	230.869	2772.39	-4.77682	2307.05	-0.000247871	-0.510397	5473.87	37.9595	2	39	0.00474974	1.71323e-06	0	-0.100399	0.162698	0.0681856	2.23576	2.65861e-06	4.52573e-06	2.61547e-06	2.96301e-06	2.81721e-06	2.14451e-06	27.9504	15.7526	102.226	1.58044e-07	1.92825e-07	1.43455e-07	1.75373e-07	1.6525e-07	2.22918e-07	0.000359447	3.00372e-05	0.0003607	4.77682	37959.5	454251	455835	-85.2232	0.0000000E+000	0.0000000E+000	0.0000000E+000	85.2232	0.0000000E+000	0.0000000E+000	0.0000000E+000	-85.2232	0.0000000E+000	0.0000000E+000	0.0000000E+000	-4.77682	0.0000000E+000	0.0000000E+000	0.0000000E+000	4.77682	11.9667	85.2232	-0.00691125
317705	3.46078	1.3456	3.71317	-21.2468	2371.35	-0.000148349	-0.512274	0.372289	0.0488902	3	38	0.00508674	0.00136992	0	-0.109514	-1	-1	-1	0	0	0	0	0	0	-1	-1	-1	0	0	0	0	0	0	0.251006	0.0975947	0.269312	21.2468	48.8902	125.742	134.912	-68.7532	0.0000000E+000	0.0000000E+000	0.0000000E+000	68.7532	0.0000000E+000	0.0000000E+000	0.0000000E+000	-68.7532	0.0000000E+000	0.0000000E+000	0.0000000E+000	-21.2468	0.0000000E+000	0.0000000E+000	0.0000000E+000	21.2468	2.57192	68.7532	-0.000161251
159201	3.41945	0.964878	3.55298	-15.7576	2374.79	-0.000133026	-0.511934	1.0361	0.0764123	3	38	0.00516176	0.0014528	0	-0.109997	-1	-1	-1	0	0	0	0	0	0	-1	-1	-1	0	0	0	0	0	0	0.270877	0.0764342	0.281454	15.7576	76.4123	270.799	281.373	-74.2424	0.0000000E+000	0.0000000E+000	0.0000000E+000	74.2424	0.0000000E+000	0.0000000E+000	0.0000000E+000	-74.2424	0.0000000E+000	0.0000000E+000	0.0000000E+000	-15.7576	0.0000000E+000	0.0000000E+000	0.0000000E+000	15.7576	3.54392	74.2424	-0.000160341
79767.3	3.45671	1.05026	3.61274	-16.9005	2378.23	-0.00012762	-0.513153	1.89976	0.160553	3	38	0.00518618	0.00143552	0	-0.110485	1.25405	1.49158	25.6813	2.95366e-05	2.43483e-05	1.49118e-05	1.97769e-05	4.2356e-05	1.24552e-05	0.119181	0.0740788	2.01476	4.43586e-07	8.11385e-07	6.90569e-07	6.24962e-07	5.33083e-07	7.09761e-07	0.264843	0.0804679	0.276798	16.9005	160.553	528.426	552.278	-73.0995	0.0000000E+000	0.0000000E+000	0.0000000E+000	73.0995	0.0000000E+000	0.0000000E+000	0.0000000E+000	-73.0995	0.0000000E+000	0.0000000E+000	0.0000000E+000	-16.9005	0.0000000E+000	0.0000000E+000	0.0000000E+000	16.9005	3.29129	73.0995	-0.00016091
39971.8	3.56272	1.59756	3.90451	-24.152	2381.67	-0.000146056	-0.512153	2.49235	0.417245	3	38	0.00516663	0.00132325	0	-0.110968	1.30668	0.727066	25.9192	2.39594e-05	2.67533e-05	3.29119e-05	2.83382e-05	2.35031e-05	1.41571e-05	0.128534	0.0579843	2.22616	4.30793e-07	6.71717e-07	8.1107e-07	2.6457e-07	1.05218e-06	3.96055e-07	0.233695	0.104791	0.256114	24.152	417.245	930.498	1019.76	-65.848	0.0000000E+000	0.0000000E+000	0.0000000E+000	65.848	0.0000000E+000	0.0000000E+000	0.0000000E+000	-65.848	0.0000000E+000	0.0000000E+000	0.0000000E+000	-24.152	0.0000000E+000	0.0000000E+000	0.0000000E+000	24.152	2.2301	65.848	-0.000160392
20032.3	3.79274	2.78519	4.70554	-36.2916	2385.11	-0.000139942	-0.508973	2.85256	0.999367	3	38	0.00522529	0.00111046	0	-0.111454	1.17168	0.681487	26.3477	2.0036e-05	2.38788e-05	1.62194e-05	1.58772e-05	3.06942e-05	3.04433e-05	0.161549	0.0668786	2.61718	6.96122e-07	5.01546e-07	6.60318e-07	5.62231e-07	1.03899e-06	4.78579e-07	0.171291	0.125787	0.212515	36.2916	999.367	1360.89	1688.42	-53.7084	0.0000000E+000	0.0000000E+000	0.0000000E+000	53.7084	0.0000000E+000	0.0000000E+000	0.0000000E+000	-53.7084	0.0000000E+000	0.0000000E+000	0.0000000E+000	-36.2916	0.0000000E+000	0.0000000E+000	0.0000000E+000	36.2916	1.36175	53.7084	-0.000162013
10039.3	4.31435	5.0433	6.6369	-49.4543	2388.55	-0.000156308	-0.513176	3.1434	1.81509	3	38	0.00516132	0.000777669	0	-0.111942	1.3229	0.52497	26.0181	2.66296e-05	3.44271e-05	2.20917e-05	2.5423e-05	2.51104e-05	2.60669e-05	0.259464	0.100874	3.78132	1.22071e-06	8.60019e-07	6.5797e-07	6.50737e-07	6.7653e-07	4.43723e-07	0.0979454	0.114494	0.150673	49.4543	1815.09	1552.74	2388.63	-40.5457	0.0000000E+000	0.0000000E+000	0.0000000E+000	40.5457	0.0000000E+000	0.0000000E+000	0.0000000E+000	-40.5457	0.0000000E+000	0.0000000E+000	0.0000000E+000	-49.4543	0.0000000E+000	0.0000000E+000	0.0000000E+000	49.4543	0.855461	40.5457	-0.000161968
5028.39	5.4394	9.16117	10.6543	-59.3005	2391.9	-0.000305565	-0.515442	3.45494	2.55442	3	38	0.00511741	0.000480314	0	-0.112407	1.18551	1.00692	27.0104	1.20789e-05	2.26724e-05	2.52112e-05	2.38804e-05	2.48523e-05	2.82487e-05	0.422578	0.20502	6.15797	1.20647e-06	4.83776e-07	5.93434e-07	5.88577e-07	7.02083e-07	7.56782e-07	0.0479183	0.0807051	0.0938588	59.3005	2554.42	1516.68	2970.75	-30.6995	0.0000000E+000	0.0000000E+000	0.0000000E+000	30.6995	0.0000000E+000	0.0000000E+000	0.0000000E+000	-30.6995	0.0000000E+000	0.0000000E+000	0.0000000E+000	-59.3005	0.0000000E+000	0.0000000E+000	0.0000000E+000	59.3005	0.593746	30.6996	-0.000156804
2519.19	7.86244	16.3625	18.1535	-64.335	2395.22	-0.000269868	-0.511729	3.86109	3.13681	3	38	0.00457682	0.000252118	0	-0.112877	1.80078	1.05864	29.6016	3.50094e-05	3.7398e-05	1.91223e-05	3.0456e-05	3.82646e-05	2.7216e-05	0.747481	0.271622	11.7541	8.28097e-07	5.00765e-07	5.78035e-07	8.416e-07	7.98074e-07	7.81835e-07	0.0238582	0.0496511	0.0550858	64.335	3136.81	1507.29	3480.16	-25.665	0.0000000E+000	0.0000000E+000	0.0000000E+000	25.665	0.0000000E+000	0.0000000E+000	0.0000000E+000	-25.665	0.0000000E+000	0.0000000E+000	0.0000000E+000	-64.335	0.0000000E+000	0.0000000E+000	0.0000000E+000	64.335	0.480516	25.665	-0.000156425
1262.98	12.929	28.1077	30.9387	-65.2984	2398.76	-0.000310449	-0.51533	4.48331	3.70038	3	38	0.00498113	0.000161	0	-0.113378	1.43301	0.741347	27.1264	2.65033e-05	2.14972e-05	3.67149e-05	3.78874e-05	1.8474e-05	9.3619e-06	0.932816	0.403706	18.2047	6.70873e-07	6.52706e-07	3.86177e-07	5.93243e-07	5.83068e-07	6.38879e-07	0.0135071	0.0293644	0.032322	65.2984	3700.38	1702.11	4073.07	-24.7016	0.0000000E+000	0.0000000E+000	0.0000000E+000	24.7016	0.0000000E+000	0.0000000E+000	0.0000000E+000	-24.7016	0.0000000E+000	0.0000000E+000	0.0000000E+000	-65.2984	0.0000000E+000	0.0000000E+000	0.0000000E+000	65.2984	0.459982	24.7016	-0.000156795
632.773	23.1429	46.8839	52.2847	-63.7281	2402.34	-0.000286122	-0.509207	5.36474	4.31367	3	39	0.00513038	9.81239e-05	0	-0.113876	1.42121	0.556384	25.7084	3.17938e-05	2.65545e-05	2.1043e-05	3.79314e-05	2.444e-05	2.52252e-05	0.860987	0.282888	14.285	3.60408e-07	2.98218e-07	3.2202e-07	3.88231e-07	2.86763e-07	2.29791e-07	0.0084658	0.0171504	0.0191261	63.7281	4313.67	2129.32	4810.59	-26.2719	0.0000000E+000	0.0000000E+000	0.0000000E+000	26.2719	0.0000000E+000	0.0000000E+000	0.0000000E+000	-26.2719	0.0000000E+000	0.0000000E+000	0.0000000E+000	-63.7281	0.0000000E+000	0.0000000E+000	0.0000000E+000	63.7281	0.493621	26.2719	-0.000155305
316.927	40.6132	75.8447	86.034	-61.8319	2405.66	-0.000256856	-0.509303	6.62119	5.14572	3	39	0.00497937	5.78768e-05	0	-0.114342	1.26454	0.685634	26.0963	2.20961e-05	3.14209e-05	1.92477e-05	2.8358e-05	6.34531e-06	2.4456e-05	1.22029	0.731964	22.6061	2.74432e-07	2.89913e-07	1.21424e-07	3.17121e-07	2.2457e-07	3.17077e-07	0.0054869	0.0102467	0.0116233	61.8319	5145.72	2755.42	5837.02	-28.1681	0.0000000E+000	0.0000000E+000	0.0000000E+000	28.1681	0.0000000E+000	0.0000000E+000	0.0000000E+000	-28.1681	0.0000000E+000	0.0000000E+000	0.0000000E+000	-61.8319	0.0000000E+000	0.0000000E+000	0.0000000E+000	61.8319	0.535479	28.1681	-0.000155188
158.831	72.2112	116.643	137.186	-58.2392	2408.98	-0.000269458	-0.509638	8.59068	6.21046	3	39	0.00492661	3.59118e-05	0	-0.114809	1.49154	0.967804	25.8611	2.72091e-05	1.9738e-05	3.00929e-05	2.81045e-05	3.44349e-05	2.61431e-05	2.08016	0.914617	36.9503	3.99694e-07	1.16153e-07	3.2198e-07	2.40215e-07	3.02172e-07	2.22586e-07	0.00383694	0.00619781	0.00728937	58.2392	6210.46	3844.77	7304.25	-31.7608	0.0000000E+000	0.0000000E+000	0.0000000E+000	31.7608	0.0000000E+000	0.0000000E+000	0.0000000E+000	-31.7608	0.0000000E+000	0.0000000E+000	0.0000000E+000	-58.2392	0.0000000E+000	0.0000000E+000	0.0000000E+000	58.2392	0.619079	31.7608	-0.000155664
79.6177	117.407	174.924	210.672	-56.1308	2412.26	-0.00019825	-0.510089	11.4278	7.87853	3	39	0.00490703	2.32922e-05	0	-0.115269	1.71725	0.853464	25.7809	2.36565e-05	4.55347e-05	4.12321e-05	3.46333e-05	2.4515e-05	1.41183e-05	3.2268	1.61662	55.8344	3.79468e-07	2.52217e-07	3.24546e-07	2.52388e-07	2.58958e-07	2.60391e-07	0.00264534	0.00394125	0.00474671	56.1308	7878.53	5288	9488.64	-33.8692	0.0000000E+000	0.0000000E+000	0.0000000E+000	33.8692	0.0000000E+000	0.0000000E+000	0.0000000E+000	-33.8692	0.0000000E+000	0.0000000E+000	0.0000000E+000	-56.1308	0.0000000E+000	0.0000000E+000	0.0000000E+000	56.1308	0.671192	33.8692	-0.000149945
39.8851	189.014	254.723	317.191	-53.4231	2415.48	-0.000258348	-0.509992	15.6654	10.1027	3	39	0.00489353	1.54277e-05	0	-0.11572	1.50911	0.633289	26.3619	2.88262e-05	1.94462e-05	1.54052e-05	3.75849e-05	4.11089e-05	1.37469e-05	5.24158	2.21088	87.8628	3.43421e-07	2.98924e-07	2.15601e-07	3.47148e-07	3.8026e-07	2.25254e-07	0.00187868	0.00253178	0.00315268	53.4231	10102.7	7496.57	12580.2	-36.5769	0.0000000E+000	0.0000000E+000	0.0000000E+000	36.5769	0.0000000E+000	0.0000000E+000	0.0000000E+000	-36.5769	0.0000000E+000	0.0000000E+000	0.0000000E+000	-53.4231	0.0000000E+000	0.0000000E+000	0.0000000E+000	53.4231	0.742039	36.5769	-0.000150004
19.9808	293.199	381.309	481.002	-52.4423	2418.66	-0.000254209	-0.510338	20.8896	13.1278	3	39	0.00492009	1.02288e-05	0	-0.116166	1.99711	1.07349	26.1834	3.98453e-05	5.53478e-05	2.13744e-05	3.98041e-05	2.8248e-05	3.71509e-05	8.19243	4.68756	127.043	3.11295e-07	3.97021e-07	2.52331e-07	3.07472e-07	1.81823e-07	3.53796e-07	0.00126727	0.0016481	0.002079	52.4423	13127.8	10094.3	16560	-37.5577	0.0000000E+000	0.0000000E+000	0.0000000E+000	37.5577	0.0000000E+000	0.0000000E+000	0.0000000E+000	-37.5577	0.0000000E+000	0.0000000E+000	0.0000000E+000	-52.4423	0.0000000E+000	0.0000000E+000	0.0000000E+000	52.4423	0.768927	37.5577	-0.000149966
10.016	472.933	505.772	692.438	-46.9217	2421.92	-0.000245187	-0.510356	31.4174	16.7617	3	39	0.00489872	7.07459e-06	0	-0.116625	1.52075	0.669118	27.6323	3.2898e-05	2.06809e-05	1.81679e-05	4.38638e-05	1.76993e-05	2.8732e-05	10.3903	5.71666	197.709	3.7387e-07	1.4595e-07	1.25681e-07	4.39611e-07	2.1021e-07	2.98225e-07	0.000986365	0.00105486	0.00144417	46.9217	16761.7	15673.4	22947.9	-43.0783	0.0000000E+000	0.0000000E+000	0.0000000E+000	43.0783	0.0000000E+000	0.0000000E+000	0.0000000E+000	-43.0783	0.0000000E+000	0.0000000E+000	0.0000000E+000	-46.9217	0.0000000E+000	0.0000000E+000	0.0000000E+000	46.9217	0.935072	43.0782	-0.000149626
5.01766	721.38	742.14	1034.97	-45.8127	2426.13	-0.000243684	-0.509243	42.7398	21.9761	3	39	0.004893	4.72767e-06	0	-0.117213	0.744849	0.466356	15.6652	1.80232e-05	9.67608e-06	1.33584e-05	1.4366e-05	1.48429e-05	1.08217e-05	9.27306	17.026	159.822	2.4464e-07	2.08046e-07	1.0812e-07	1.22825e-07	1.76952e-07	1.00338e-07	0.000673456	0.000692837	0.000966212	45.8127	21976.1	21361.3	30647.2	-44.1873	0.0000000E+000	0.0000000E+000	0.0000000E+000	44.1873	0.0000000E+000	0.0000000E+000	0.0000000E+000	-44.1873	0.0000000E+000	0.0000000E+000	0.0000000E+000	-45.8127	0.0000000E+000	0.0000000E+000	0.0000000E+000	45.8127	0.972027	44.1873	-0.000226846
2.51368	1089.36	1026.46	1496.77	-43.297	2433.16	-0.000251381	-0.510156	61.6837	29.0095	3	39	0.0048986	3.27278e-06	0	-0.118202	0.536349	0.165797	10.2501	1.23889e-05	9.62411e-06	7.59422e-06	8.25572e-06	1.4868e-05	8.01647e-06	12.2953	23.0666	160.57	3.15851e-07	1.57693e-07	9.01441e-08	8.81268e-08	1.19459e-07	6.44263e-08	0.000486253	0.000458174	0.000668105	43.297	29009.5	30787.4	42301.5	-46.703	0.0000000E+000	0.0000000E+000	0.0000000E+000	46.703	0.0000000E+000	0.0000000E+000	0.0000000E+000	-46.703	0.0000000E+000	0.0000000E+000	0.0000000E+000	-43.297	0.0000000E+000	0.0000000E+000	0.0000000E+000	43.297	1.06129	46.703	-0.00039476
1.25968	1946.53	502.281	2010.29	-14.469	2445.99	-0.000247388	-0.509249	251.544	15.7033	3	39	0.00490375	2.43933e-06	0	-0.120013	0.418434	0.172995	7.28788	5.9865e-06	7.43076e-06	8.4433e-06	6.51342e-06	8.07561e-06	9.43937e-06	24.5772	20.9292	153.639	3.6373e-07	3.03673e-07	2.20756e-07	1.54342e-07	1.28602e-07	8.11951e-08	0.000481664	0.000124288	0.000497442	14.469	15703.3	60856.3	62849.7	-75.531	0.0000000E+000	0.0000000E+000	0.0000000E+000	75.531	0.0000000E+000	0.0000000E+000	0.0000000E+000	-75.531	0.0000000E+000	0.0000000E+000	0.0000000E+000	-14.469	0.0000000E+000	0.0000000E+000	0.0000000E+000	14.469	3.87537	75.531	-0.000735206
0.631645	2083.02	470.778	2135.56	-12.7353	2470.45	-0.000240301	-0.509076	535.219	26.0099	3	39	0.00490439	2.29653e-06	0	-0.123465	0.271738	0.150026	4.48659	6.19105e-06	4.85906e-06	6.22541e-06	5.32389e-06	4.45879e-06	1.94219e-06	34.3958	28.1558	107.174	3.22571e-07	3.99732e-07	3.89943e-07	3.36897e-07	2.0878e-07	7.15333e-08	0.000456741	0.000103227	0.000468261	12.7353	26009.9	115085	117987	-77.2647	0.0000000E+000	0.0000000E+000	0.0000000E+000	77.2647	0.0000000E+000	0.0000000E+000	0.0000000E+000	-77.2647	0.0000000E+000	0.0000000E+000	0.0000000E+000	-12.7353	0.0000000E+000	0.0000000E+000	0.0000000E+000	12.7353	4.42465	77.2647	-0.00141009
0.316193	2458.17	992.969	2651.15	-21.996	2518.21	-0.000248443	-0.509249	506.912	71.1106	3	39	0.00490088	1.84858e-06	0	-0.130213	0.203223	0.146773	3.53986	2.17845e-06	3.19309e-06	3.00117e-06	4.69191e-06	5.82071e-06	2.91495e-06	31.5428	23.1528	109.083	2.19821e-07	3.09423e-07	1.65122e-07	1.78775e-07	2.27627e-07	2.36444e-07	0.000349738	0.000141275	0.000377194	21.996	71110.6	176040	189860	-68.004	0.0000000E+000	0.0000000E+000	0.0000000E+000	68.004	0.0000000E+000	0.0000000E+000	0.0000000E+000	-68.004	0.0000000E+000	0.0000000E+000	0.0000000E+000	-21.996	0.0000000E+000	0.0000000E+000	0.0000000E+000	21.996	2.47558	68.004	-0.00277328
0.158419	2753.43	281.092	2767.74	-5.82901	2612.6	-0.000262839	-0.508924	3574.08	36.8647	3	39	0.00490256	1.77132e-06	0	-0.143546	0.180376	0.106754	2.38443	2.74176e-06	3.9074e-06	3.17788e-06	2.71126e-06	4.34407e-06	3.01345e-06	33.2286	13.122	100.624	2.87391e-07	2.26197e-07	1.13192e-07	3.58965e-07	9.33354e-08	2.34542e-07	0.000359437	3.66942e-05	0.000361305	5.82901	36864.7	361107	362984	-84.171	0.0000000E+000	0.0000000E+000	0.0000000E+000	84.171	0.0000000E+000	0.0000000E+000	0.0000000E+000	-84.171	0.0000000E+000	0.0000000E+000	0.0000000E+000	-5.82901	0.0000000E+000	0.0000000E+000	0.0000000E+000	5.82901	9.79548	84.171	-0.00548836
0.0999518	2454.37	41.4669	2454.72	-0.967926	2722.8	-0.000248004	-0.508797	38399.8	10.9579	3	39	0.00490243	1.99714e-06	0	-0.159109	0.114379	0.147658	2.1724	1.56552e-06	3.55555e-06	1.40968e-06	2.81822e-06	1.99442e-06	1.20651e-06	23.6799	13.0166	83.8081	2.28889e-07	1.26193e-07	2.81287e-07	1.58849e-07	1.25289e-07	1.32518e-07	0.00040732	6.88171e-06	0.000407378	0.967926	10957.9	648583	648675	-89.0321	0.0000000E+000	0.0000000E+000	0.0000000E+000	89.0321	0.0000000E+000	0.0000000E+000	0.0000000E+000	-89.0321	0.0000000E+000	0.0000000E+000	0.0000000E+000	-0.967926	0.0000000E+000	0.0000000E+000	0.0000000E+000	0.967926	59.1888	89.0321	-0.00866989