File: Python/Data/RDE/240223-OCV-EIS-Fe2Fe3_5mM-HCl1M-2000RPM-Ag_AgCl_BLF8-GC-RDE-1minRest-3ppf-14p1mVAmplitude_02_PEIS_C15.mpt
EC-Lab ASCII FILE
Nb header lines : 67

Potentio Electrochemical Impedance Spectroscopy

Run on channel : 15 (SN 19485)
User :
Electrode connection : standard
Potential control : Ewe
Ewe ctrl range : min = -1.00 V, max = 1.00 V
Ewe,I filtering : 50 kHz
Safety Limits :
	Do not start on E overload
Channel : Floating
Acquisition started on : 02/23/2024 14:08:11.747
Loaded Setting File :  NONE
Saved on :
	File : 240223-OCV-EIS-Fe2Fe3_5mM-HCl1M-2000RPM-Ag_AgCl_BLF8-GC-RDE-1minRest-3ppf-14p1mVAmplitude_02_PEIS_C15.mpr
	Directory : C:\Data\mathias\RDE-RPM-variation\
	Host : 192.168.0.1
Device : VMP-300 (SN 0826)
Address : USB
EC-Lab for windows v11.52 (software)
Internet server v11.52 (firmware)
Command interpretor v11.52 (firmware)
Electrode material :
Initial state :
Electrolyte :
Comments :
Cable : special
Reference electrode : SCE Saturated Calomel Electrode (0.241 V)
Electrode surface area : 0.001 cm²
Characteristic mass : 0.001 g
Equivalent Weight : 0.000 g/eq.
Density : 0.000 g/cm3
Volume (V) : 0.001 cm³
Record EIS quality indicators
Cycle Definition : Charge/Discharge alternance
Mode                Single sine
E (V)               0.0000
vs.                 Ref
tE (h:m:s)          0:01:0.0000
record              0
dI                  0.000
unit dI             mA
dt (s)              0.000
fi                  1.000
unit fi             MHz
ff                  100.000
unit ff             mHz
Nd                  10
Points              per decade
spacing             Logarithmic
Va (mV)             14.1
pw                  0.10
Na                  3
corr                0
E range min (V)     -1.000
E range max (V)     1.000
I Range             Auto
Bandwidth           8
nc cycles           0
goto Ns'            0
nr cycles           0
inc. cycle          1

freq/Hz	Re(Z)/Ohm	-Im(Z)/Ohm	|Z|/Ohm	Phase(Z)/deg	time/s	<Ewe>/V	<I>/mA	Cs/µF	Cp/µF	cycle number	I Range	|Ewe|/V	|I|/A	Ns	(Q-Qo)/mA.h	THD Ewe/%	NSD Ewe/%	NSR Ewe/%	|Ewe h2|/V	|Ewe h3|/V	|Ewe h4|/V	|Ewe h5|/V	|Ewe h6|/V	|Ewe h7|/V	THD I/%	NSD I/%	NSR I/%	|I h2|/A	|I h3|/A	|I h4|/A	|I h5|/A	|I h6|/A	|I h7|/A	Re(Y)/Ohm-1	Im(Y)/Ohm-1	|Y|/Ohm-1	Phase(Y)/deg	Re(C)/nF	Im(C)/nF	|C|/nF	Phase(C)/deg	Re(M)	Im(M)	|M|	Phase(M)/deg	Re(Permittivity)	Im(Permittivity)	|Permittivity|	Phase(Permittivity)/deg	Re(Resistivity)/Ohm.cm	Im(Resistivity)/Ohm.cm	|Resistivity|/Ohm.cm	Phase(Resistivity)/deg	Re(Conductivity)/mS/cm	Im(Conductivity)/mS/cm	|Conductivity|/mS/cm	Phase(Conductivity)/deg	Tan(Delta)	Loss Angle(Delta)/deg	dq/mA.h
1.00002e+06	3.55003	4.08875	5.41485	-49.0341	118.281	-0.000173439	-0.51249	0.0389244	0.0221937	1	38	0.0111289	0.00205525	0	-0.00867094	-1	-1	-1	0	0	0	0	0	0	-1	-1	-1	0	0	0	0	0	0	0.121076	0.13945	0.184677	49.0341	22.1937	19.2695	29.3918	-40.9659	0.0000000E+000	0.0000000E+000	0.0000000E+000	40.9659	0.0000000E+000	0.0000000E+000	0.0000000E+000	-40.9659	0.0000000E+000	0.0000000E+000	0.0000000E+000	-49.0341	0.0000000E+000	0.0000000E+000	0.0000000E+000	49.0341	0.868243	40.9659	-0.00867094
794333	3.58488	3.20096	4.80599	-41.7619	119.293	-0.000159738	-0.512835	0.0625946	0.0277672	1	38	0.0138585	0.00288359	0	-0.00881611	-1	-1	-1	0	0	0	0	0	0	-1	-1	-1	0	0	0	0	0	0	0.155206	0.138584	0.208074	41.7619	27.7672	31.0976	41.6903	-48.2381	0.0000000E+000	0.0000000E+000	0.0000000E+000	48.2381	0.0000000E+000	0.0000000E+000	0.0000000E+000	-48.2381	0.0000000E+000	0.0000000E+000	0.0000000E+000	-41.7619	0.0000000E+000	0.0000000E+000	0.0000000E+000	41.7619	1.11994	48.2381	-0.000145171
630957	3.56701	2.50425	4.3583	-35.0711	120.442	-0.000167362	-0.51117	0.100726	0.0332555	1	38	0.0144229	0.00330929	0	-0.00898518	-1	-1	-1	0	0	0	0	0	0	-1	-1	-1	0	0	0	0	0	0	0.187789	0.131839	0.229447	35.0711	33.2555	47.3685	57.8766	-54.9289	0.0000000E+000	0.0000000E+000	0.0000000E+000	54.9289	0.0000000E+000	0.0000000E+000	0.0000000E+000	-54.9289	0.0000000E+000	0.0000000E+000	0.0000000E+000	-35.0711	0.0000000E+000	0.0000000E+000	0.0000000E+000	35.0711	1.42438	54.9289	-0.000169073
501206	3.53637	1.97952	4.0527	-29.2383	121.589	-0.000191446	-0.512336	0.160415	0.0382713	1	38	0.0145511	0.00359046	0	-0.00914387	-1	-1	-1	0	0	0	0	0	0	-1	-1	-1	0	0	0	0	0	0	0.215312	0.120523	0.246749	29.2383	38.2713	68.371	78.3536	-60.7617	0.0000000E+000	0.0000000E+000	0.0000000E+000	60.7617	0.0000000E+000	0.0000000E+000	0.0000000E+000	-60.7617	0.0000000E+000	0.0000000E+000	0.0000000E+000	-29.2383	0.0000000E+000	0.0000000E+000	0.0000000E+000	29.2383	1.78648	60.7617	-0.000158687
398103	3.49276	1.59248	3.83867	-24.5099	122.735	-0.000178509	-0.512427	0.251045	0.0432052	1	38	0.0145543	0.00379149	0	-0.00929541	-1	-1	-1	0	0	0	0	0	0	-1	-1	-1	0	0	0	0	0	0	0.237032	0.108072	0.260507	24.5099	43.2052	94.7615	104.146	-65.4901	0.0000000E+000	0.0000000E+000	0.0000000E+000	65.4901	0.0000000E+000	0.0000000E+000	0.0000000E+000	-65.4901	0.0000000E+000	0.0000000E+000	0.0000000E+000	-24.5099	0.0000000E+000	0.0000000E+000	0.0000000E+000	24.5099	2.19329	65.4901	-0.000151547
316230	3.45537	1.31351	3.69661	-20.8136	123.882	-0.000179945	-0.51331	0.383162	0.0483777	1	38	0.014537	0.00393253	0	-0.00946548	-1	-1	-1	0	0	0	0	0	0	-1	-1	-1	0	0	0	0	0	0	0.252864	0.0961231	0.270518	20.8136	48.3777	127.264	136.149	-69.1864	0.0000000E+000	0.0000000E+000	0.0000000E+000	69.1864	0.0000000E+000	0.0000000E+000	0.0000000E+000	-69.1864	0.0000000E+000	0.0000000E+000	0.0000000E+000	-20.8136	0.0000000E+000	0.0000000E+000	0.0000000E+000	20.8136	2.63063	69.1864	-0.000170069
251188	3.4295	1.12161	3.60825	-18.1102	125.029	-0.000156756	-0.511431	0.564913	0.0545845	1	38	0.0145574	0.00403447	0	-0.00962714	-1	-1	-1	0	0	0	0	0	0	-1	-1	-1	0	0	0	0	0	0	0.263413	0.0861484	0.277143	18.1102	54.5845	166.901	175.6	-71.8898	0.0000000E+000	0.0000000E+000	0.0000000E+000	71.8898	0.0000000E+000	0.0000000E+000	0.0000000E+000	-71.8898	0.0000000E+000	0.0000000E+000	0.0000000E+000	-18.1102	0.0000000E+000	0.0000000E+000	0.0000000E+000	18.1102	3.05767	71.8898	-0.000161659
199544	3.41543	0.988742	3.55567	-16.1454	126.177	-0.000173085	-0.510597	0.806677	0.0623769	1	38	0.0145395	0.00408911	0	-0.00978827	-1	-1	-1	0	0	0	0	0	0	-1	-1	-1	0	0	0	0	0	0	0.270149	0.0782062	0.281241	16.1454	62.3769	215.469	224.317	-73.8547	0.0000000E+000	0.0000000E+000	0.0000000E+000	73.8547	0.0000000E+000	0.0000000E+000	0.0000000E+000	-73.8547	0.0000000E+000	0.0000000E+000	0.0000000E+000	-16.1454	0.0000000E+000	0.0000000E+000	0.0000000E+000	16.1454	3.45432	73.8547	-0.00016113
158486	3.41332	0.929092	3.53751	-15.2268	127.324	-0.000150716	-0.512047	1.08086	0.0745577	1	38	0.0145632	0.0041168	0	-0.00995606	-1	-1	-1	0	0	0	0	0	0	-1	-1	-1	0	0	0	0	0	0	0.272761	0.0742444	0.282685	15.2268	74.5577	273.912	283.878	-74.7732	0.0000000E+000	0.0000000E+000	0.0000000E+000	74.7732	0.0000000E+000	0.0000000E+000	0.0000000E+000	-74.7732	0.0000000E+000	0.0000000E+000	0.0000000E+000	-15.2268	0.0000000E+000	0.0000000E+000	0.0000000E+000	15.2268	3.67382	74.7732	-0.000167792
125909	3.40958	0.903395	3.52723	-14.84	128.472	-0.000174818	-0.512105	1.39922	0.0917851	1	38	0.0145439	0.00412333	0	-0.0101182	-1	-1	-1	0	0	0	0	0	0	-1	-1	-1	0	0	0	0	0	0	0.274052	0.0726122	0.283509	14.84	91.7851	346.414	358.367	-75.16	0.0000000E+000	0.0000000E+000	0.0000000E+000	75.16	0.0000000E+000	0.0000000E+000	0.0000000E+000	-75.16	0.0000000E+000	0.0000000E+000	0.0000000E+000	-14.84	0.0000000E+000	0.0000000E+000	0.0000000E+000	14.84	3.77419	75.16	-0.000162185
100004	3.43029	0.924891	3.55279	-15.0895	129.619	-0.000179721	-0.511437	1.72073	0.116615	1	38	0.0145495	0.00409522	0	-0.010287	0.54417	0.248948	8.94771	3.15789e-05	3.79611e-05	2.52578e-05	2.82257e-05	2.77469e-05	2.35447e-05	0.0648094	0.0346234	0.696548	1.71986e-06	1.22179e-06	9.2525e-07	7.56404e-07	4.5362e-07	6.49395e-07	0.271764	0.0732742	0.281469	15.0895	116.615	432.51	447.955	-74.9105	0.0000000E+000	0.0000000E+000	0.0000000E+000	74.9105	0.0000000E+000	0.0000000E+000	0.0000000E+000	-74.9105	0.0000000E+000	0.0000000E+000	0.0000000E+000	-15.0895	0.0000000E+000	0.0000000E+000	0.0000000E+000	15.0895	3.70886	74.9105	-0.000168725
79433.3	3.44608	0.993418	3.58641	-16.0809	130.768	-0.000163448	-0.510766	2.01691	0.154749	1	38	0.0145425	0.00405489	0	-0.0104513	0.487352	0.307585	8.80192	3.04083e-05	2.0093e-05	3.22933e-05	3.56665e-05	2.23063e-05	1.6553e-05	0.0726466	0.0287513	0.714413	1.60675e-06	1.64666e-06	1.22349e-06	6.56444e-07	4.70491e-07	6.36673e-07	0.26792	0.0772345	0.27883	16.0809	154.749	536.812	558.673	-73.9191	0.0000000E+000	0.0000000E+000	0.0000000E+000	73.9191	0.0000000E+000	0.0000000E+000	0.0000000E+000	-73.9191	0.0000000E+000	0.0000000E+000	0.0000000E+000	-16.0809	0.0000000E+000	0.0000000E+000	0.0000000E+000	16.0809	3.46891	73.9191	-0.00016433
63093.8	3.48395	1.10333	3.65448	-17.5724	131.915	-0.000168238	-0.510485	2.28628	0.208394	1	38	0.0145827	0.00399036	0	-0.0106133	0.496489	0.246444	8.90017	3.11257e-05	3.94348e-05	1.74997e-05	2.46973e-05	3.14975e-05	1.98166e-05	0.0645937	0.0400104	0.715403	1.36727e-06	1.47704e-06	7.24905e-07	9.83025e-07	4.77409e-07	5.43038e-07	0.260868	0.0826138	0.273637	17.5724	208.394	658.042	690.252	-72.4276	0.0000000E+000	0.0000000E+000	0.0000000E+000	72.4276	0.0000000E+000	0.0000000E+000	0.0000000E+000	-72.4276	0.0000000E+000	0.0000000E+000	0.0000000E+000	-17.5724	0.0000000E+000	0.0000000E+000	0.0000000E+000	17.5724	3.15768	72.4276	-0.000162044
50122.5	3.52716	1.26771	3.74806	-19.7691	133.062	-0.000194186	-0.51179	2.50477	0.286546	1	38	0.0145769	0.00388919	0	-0.0107701	0.512897	0.231601	8.91953	1.33754e-05	2.97338e-05	1.87898e-05	3.01828e-05	4.22342e-05	3.40983e-05	0.0596758	0.0165895	0.721294	9.9796e-07	1.47562e-06	8.10209e-07	8.62714e-07	2.91944e-07	5.04532e-07	0.25108	0.0902417	0.266805	19.7691	286.546	797.26	847.191	-70.2309	0.0000000E+000	0.0000000E+000	0.0000000E+000	70.2309	0.0000000E+000	0.0000000E+000	0.0000000E+000	-70.2309	0.0000000E+000	0.0000000E+000	0.0000000E+000	-19.7691	0.0000000E+000	0.0000000E+000	0.0000000E+000	19.7691	2.78231	70.2309	-0.000156725
39814.1	3.58466	1.47598	3.87664	-22.3794	134.21	-0.000175098	-0.510217	2.70834	0.392604	1	38	0.0146168	0.00377048	0	-0.0109299	0.510851	0.389914	8.849	3.78426e-05	1.16182e-05	2.18284e-05	1.78058e-05	3.23899e-05	3.72093e-05	0.0555997	0.0575785	0.765237	3.91254e-07	1.13235e-06	8.3109e-07	8.00587e-07	6.83899e-07	7.27727e-07	0.238527	0.0982135	0.257956	22.3794	392.604	953.502	1031.17	-67.6206	0.0000000E+000	0.0000000E+000	0.0000000E+000	67.6206	0.0000000E+000	0.0000000E+000	0.0000000E+000	-67.6206	0.0000000E+000	0.0000000E+000	0.0000000E+000	-22.3794	0.0000000E+000	0.0000000E+000	0.0000000E+000	22.3794	2.42866	67.6206	-0.000159781
31621.1	3.64696	1.74745	4.04399	-25.6015	135.356	-0.000161397	-0.50947	2.8803	0.537807	1	38	0.0146524	0.00362325	0	-0.0110906	0.540583	0.207097	8.86074	2.51812e-05	2.38337e-05	4.31838e-05	2.65568e-05	2.64941e-05	3.16103e-05	0.0532206	0.0551089	0.797606	6.36987e-07	8.61568e-07	8.58967e-07	5.85355e-07	2.4115e-07	8.23983e-07	0.223003	0.106852	0.24728	25.6015	537.807	1122.41	1244.61	-64.3985	0.0000000E+000	0.0000000E+000	0.0000000E+000	64.3985	0.0000000E+000	0.0000000E+000	0.0000000E+000	-64.3985	0.0000000E+000	0.0000000E+000	0.0000000E+000	-25.6015	0.0000000E+000	0.0000000E+000	0.0000000E+000	25.6015	2.08702	64.3985	-0.000160749
25116.9	3.72758	2.09085	4.27393	-29.2887	136.503	-0.000172395	-0.511729	3.03061	0.725308	1	38	0.0147003	0.00343952	0	-0.0112535	0.416432	0.255274	8.81234	2.25839e-05	1.75559e-05	1.97311e-05	2.47806e-05	3.36789e-05	1.46218e-05	0.0477728	0.0590342	0.85262	5.02395e-07	1.05871e-06	6.86337e-07	4.19746e-07	5.01285e-07	4.39726e-07	0.204066	0.114464	0.233977	29.2887	725.308	1293.08	1482.61	-60.7113	0.0000000E+000	0.0000000E+000	0.0000000E+000	60.7113	0.0000000E+000	0.0000000E+000	0.0000000E+000	-60.7113	0.0000000E+000	0.0000000E+000	0.0000000E+000	-29.2887	0.0000000E+000	0.0000000E+000	0.0000000E+000	29.2887	1.7828	60.7113	-0.000162942
19948.8	3.82804	2.51682	4.5813	-33.3237	137.651	-0.000140109	-0.510537	3.16994	0.956706	1	38	0.0146893	0.00320636	0	-0.0114183	0.422407	0.241713	8.81163	2.45731e-05	2.38102e-05	2.54086e-05	2.08748e-05	2.60575e-05	2.39052e-05	0.0574374	0.040197	0.909347	9.59988e-07	8.28845e-07	5.14846e-07	4.704e-07	5.59861e-07	8.302e-07	0.182389	0.119915	0.218279	33.3237	956.706	1455.13	1741.47	-56.6763	0.0000000E+000	0.0000000E+000	0.0000000E+000	56.6763	0.0000000E+000	0.0000000E+000	0.0000000E+000	-56.6763	0.0000000E+000	0.0000000E+000	0.0000000E+000	-33.3237	0.0000000E+000	0.0000000E+000	0.0000000E+000	33.3237	1.52098	56.6763	-0.000164746
15847.7	3.95562	3.04808	4.99377	-37.6167	138.797	-0.000177316	-0.508608	3.29479	1.22751	1	38	0.0147262	0.00294891	0	-0.0115778	0.513423	0.227097	8.83908	2.24428e-05	3.94937e-05	3.79882e-05	1.73324e-05	2.21046e-05	2.71425e-05	0.08301	0.0294964	0.986586	1.69633e-06	7.87387e-07	4.28796e-07	1.23651e-06	4.6528e-07	5.00357e-07	0.15862	0.122228	0.20025	37.6167	1227.51	1592.99	2011.06	-52.3833	0.0000000E+000	0.0000000E+000	0.0000000E+000	52.3833	0.0000000E+000	0.0000000E+000	0.0000000E+000	-52.3833	0.0000000E+000	0.0000000E+000	0.0000000E+000	-37.6167	0.0000000E+000	0.0000000E+000	0.0000000E+000	37.6167	1.29774	52.3833	-0.000159462
12590.9	4.11177	3.70557	5.53515	-42.0255	139.944	-0.00018248	-0.510373	3.4112	1.52883	1	38	0.0147003	0.0026558	0	-0.0117354	0.423524	0.230906	8.76872	2.63049e-05	1.51367e-05	2.29674e-05	3.65019e-05	1.75516e-05	1.47208e-05	0.118924	0.042353	1.0903	2.56869e-06	1.12384e-06	9.30421e-07	5.07223e-07	7.3087e-07	4.80735e-07	0.134205	0.120947	0.180664	42.0255	1528.83	1696.42	2283.67	-47.9745	0.0000000E+000	0.0000000E+000	0.0000000E+000	47.9745	0.0000000E+000	0.0000000E+000	0.0000000E+000	-47.9745	0.0000000E+000	0.0000000E+000	0.0000000E+000	-42.0255	0.0000000E+000	0.0000000E+000	0.0000000E+000	42.0255	1.10962	47.9745	-0.000157631
10002.2	4.32671	4.49533	6.23927	-46.095	141.092	-0.00016822	-0.511548	3.53966	1.83746	1	38	0.0145867	0.00233789	0	-0.0118976	0.470795	0.228643	8.9633	4.13519e-05	1.63471e-05	2.68462e-05	1.83706e-05	2.87533e-05	2.11958e-05	0.165362	0.0460553	1.23429	3.45002e-06	9.26174e-07	7.3483e-07	6.12761e-07	8.19759e-07	5.58524e-07	0.111145	0.115477	0.160275	46.095	1837.46	1768.54	2550.29	-43.905	0.0000000E+000	0.0000000E+000	0.0000000E+000	43.905	0.0000000E+000	0.0000000E+000	0.0000000E+000	-43.905	0.0000000E+000	0.0000000E+000	0.0000000E+000	-46.095	0.0000000E+000	0.0000000E+000	0.0000000E+000	46.095	0.96249	43.905	-0.000162206
7944	4.58408	5.46591	7.13372	-50.0146	142.268	-0.000296244	-0.510429	3.66538	2.15185	1	38	0.0146479	0.00205333	0	-0.0120569	0.613877	0.339197	8.89448	3.79615e-05	1.71735e-05	1.96383e-05	4.38564e-05	2.22828e-05	4.88833e-05	0.243962	0.0476349	1.41346	4.61213e-06	6.03088e-07	1.14571e-06	9.79438e-07	4.1346e-07	7.60624e-07	0.0900782	0.107406	0.140179	50.0146	2151.85	1804.68	2808.44	-39.9854	0.0000000E+000	0.0000000E+000	0.0000000E+000	39.9854	0.0000000E+000	0.0000000E+000	0.0000000E+000	-39.9854	0.0000000E+000	0.0000000E+000	0.0000000E+000	-50.0146	0.0000000E+000	0.0000000E+000	0.0000000E+000	50.0146	0.838667	39.9854	-0.000159306
6307.74	4.90811	6.63774	8.25525	-53.5199	143.32	-0.000265766	-0.51115	3.80125	2.45757	1	38	0.0154283	0.0018689	0	-0.0122009	0.562378	0.266074	8.50234	3.94592e-05	1.64833e-05	3.48745e-05	4.3063e-05	2.59784e-05	2.54648e-05	0.409321	0.0551396	1.5601	7.36733e-06	1.14858e-06	6.63898e-07	7.81654e-07	9.59328e-07	7.09567e-07	0.0720201	0.0974002	0.121135	53.5199	2457.57	1817.19	3056.44	-36.4801	0.0000000E+000	0.0000000E+000	0.0000000E+000	36.4801	0.0000000E+000	0.0000000E+000	0.0000000E+000	-36.4801	0.0000000E+000	0.0000000E+000	0.0000000E+000	-53.5199	0.0000000E+000	0.0000000E+000	0.0000000E+000	53.5199	0.739424	36.4801	-0.000144007
5011.6	5.33997	8.05555	9.66474	-56.4599	144.439	-0.00030027	-0.512679	3.94229	2.73879	1	38	0.0151211	0.00156456	0	-0.0123561	0.539013	0.170947	8.5311	5.44315e-05	2.29193e-05	1.52424e-05	1.80787e-05	4.01371e-05	1.83398e-05	0.640709	0.0402231	1.85588	9.84029e-06	1.14519e-06	5.99896e-07	9.56777e-07	5.92481e-07	3.30596e-07	0.0571687	0.0862412	0.103469	56.4599	2738.79	1815.52	3285.89	-33.5401	0.0000000E+000	0.0000000E+000	0.0000000E+000	33.5401	0.0000000E+000	0.0000000E+000	0.0000000E+000	-33.5401	0.0000000E+000	0.0000000E+000	0.0000000E+000	-56.4599	0.0000000E+000	0.0000000E+000	0.0000000E+000	56.4599	0.662893	33.5401	-0.000155159
3981.28	5.901	9.77462	11.4177	-58.8804	145.545	-0.000264368	-0.510938	4.08976	2.99735	1	38	0.0145387	0.00127335	0	-0.0125126	0.482546	0.288579	8.97939	3.47378e-05	2.26429e-05	2.93334e-05	3.10002e-05	2.55736e-05	1.98923e-05	0.790997	0.110835	2.30691	9.83404e-06	1.52645e-06	5.42079e-07	8.67696e-07	5.91955e-07	8.74138e-07	0.0452652	0.0749789	0.087583	58.8804	2997.35	1809.52	3501.2	-31.1196	0.0000000E+000	0.0000000E+000	0.0000000E+000	31.1196	0.0000000E+000	0.0000000E+000	0.0000000E+000	-31.1196	0.0000000E+000	0.0000000E+000	0.0000000E+000	-58.8804	0.0000000E+000	0.0000000E+000	0.0000000E+000	58.8804	0.603706	31.1196	-0.000156557
3163.04	6.59109	11.8217	13.535	-60.8586	146.65	-0.000302153	-0.511515	4.25632	3.24699	1	38	0.0139963	0.00103408	0	-0.0126686	0.59063	0.33284	9.21705	3.9089e-05	4.01654e-05	2.36412e-05	1.61537e-05	2.329e-05	4.40303e-05	0.92282	0.0953758	2.8297	9.13074e-06	2.21048e-06	7.06362e-07	1.18522e-06	6.02495e-07	5.17899e-07	0.0359783	0.0645306	0.0738826	60.8586	3246.99	1810.33	3717.56	-29.1414	0.0000000E+000	0.0000000E+000	0.0000000E+000	29.1414	0.0000000E+000	0.0000000E+000	0.0000000E+000	-29.1414	0.0000000E+000	0.0000000E+000	0.0000000E+000	-60.8586	0.0000000E+000	0.0000000E+000	0.0000000E+000	60.8586	0.55754	29.1414	-0.00015603
2512.41	7.52177	14.2489	16.1123	-62.1711	147.755	-0.000286532	-0.51102	4.44579	3.47691	1	38	0.0135896	0.000843428	0	-0.0128236	0.495896	0.36414	9.46302	2.9568e-05	2.02962e-05	2.80473e-05	2.65703e-05	2.65241e-05	2.18435e-05	0.937124	0.101958	3.50638	7.40152e-06	2.11852e-06	5.72728e-07	1.14926e-06	7.51364e-07	7.86015e-07	0.0289736	0.0548862	0.0620642	62.1711	3476.91	1835.4	3931.61	-27.8289	0.0000000E+000	0.0000000E+000	0.0000000E+000	27.8289	0.0000000E+000	0.0000000E+000	0.0000000E+000	-27.8289	0.0000000E+000	0.0000000E+000	0.0000000E+000	-62.1711	0.0000000E+000	0.0000000E+000	0.0000000E+000	62.1711	0.527884	27.8289	-0.000154975
1995.64	8.64659	17.19	19.2421	-63.2975	148.861	-0.000266307	-0.511276	4.63941	3.70261	1	38	0.0133153	0.000691989	0	-0.012979	0.727788	0.2276	9.75924	4.14487e-05	2.86004e-05	4.51697e-05	2.93403e-05	3.70787e-05	3.49007e-05	1.0061	0.111444	4.18044	6.14455e-06	2.28734e-06	5.22332e-07	1.75393e-06	8.26205e-07	9.68735e-07	0.0233528	0.0464269	0.0519693	63.2975	3702.61	1862.42	4144.63	-26.7025	0.0000000E+000	0.0000000E+000	0.0000000E+000	26.7025	0.0000000E+000	0.0000000E+000	0.0000000E+000	-26.7025	0.0000000E+000	0.0000000E+000	0.0000000E+000	-63.2975	0.0000000E+000	0.0000000E+000	0.0000000E+000	63.2975	0.503002	26.7025	-0.000155349
1584.49	10.0996	20.6182	22.959	-63.9025	149.967	-0.000270557	-0.510485	4.87168	3.92895	1	38	0.0131202	0.000571462	0	-0.0131346	0.538882	0.346697	9.89844	2.74083e-05	2.97413e-05	1.81597e-05	3.69382e-05	3.06528e-05	2.16944e-05	1.06955	0.0703694	5.01935	5.30887e-06	2.06963e-06	4.91097e-07	1.94169e-06	5.59611e-07	6.08196e-07	0.0191603	0.0391153	0.043556	63.9025	3928.95	1924.56	4375	-26.0975	0.0000000E+000	0.0000000E+000	0.0000000E+000	26.0975	0.0000000E+000	0.0000000E+000	0.0000000E+000	-26.0975	0.0000000E+000	0.0000000E+000	0.0000000E+000	-63.9025	0.0000000E+000	0.0000000E+000	0.0000000E+000	63.9025	0.489841	26.0975	-0.000155598
1258.79	11.9494	24.6535	27.3968	-64.1408	151.073	-0.000284724	-0.510033	5.12847	4.15285	1	38	0.0129866	0.00047402	0	-0.0132909	0.529639	0.221481	9.92532	3.36119e-05	3.26531e-05	2.48433e-05	2.94032e-05	1.69381e-05	2.04977e-05	0.953106	0.186985	6.13944	4.03538e-06	7.25507e-07	7.03494e-07	1.48559e-06	7.11796e-07	3.80005e-07	0.0159202	0.0328458	0.0365006	64.1408	4152.85	2012.86	4614.95	-25.8592	0.0000000E+000	0.0000000E+000	0.0000000E+000	25.8592	0.0000000E+000	0.0000000E+000	0.0000000E+000	-25.8592	0.0000000E+000	0.0000000E+000	0.0000000E+000	-64.1408	0.0000000E+000	0.0000000E+000	0.0000000E+000	64.1408	0.484695	25.8593	-0.000156329
999.682	14.2057	29.4607	32.7068	-64.2571	152.433	-0.000303085	-0.505219	5.40401	4.38456	1	39	0.0142985	0.000437172	0	-0.0134759	0.60479	0.240446	8.58188	6.22562e-05	2.54128e-05	2.01912e-05	2.60498e-05	3.05301e-05	1.7895e-05	1.52046	0.0670862	2.98589	6.26156e-06	1.96056e-06	2.43863e-07	8.81469e-07	3.3829e-07	3.02529e-07	0.0132797	0.0275402	0.0305747	64.2571	4384.56	2114.2	4867.67	-25.743	0.0000000E+000	0.0000000E+000	0.0000000E+000	25.743	0.0000000E+000	0.0000000E+000	0.0000000E+000	-25.743	0.0000000E+000	0.0000000E+000	0.0000000E+000	-64.2571	0.0000000E+000	0.0000000E+000	0.0000000E+000	64.2571	0.482191	25.743	-0.000185043
794.239	17.0695	34.9995	38.9401	-64.0011	153.539	-0.000289832	-0.505321	5.72541	4.62525	1	39	0.0137548	0.000353229	0	-0.0136301	0.53613	0.33669	9.22007	1.85464e-05	3.33359e-05	1.57447e-05	3.42191e-05	3.2428e-05	2.8163e-05	1.38134	0.132494	3.74059	4.47114e-06	1.6637e-06	2.71583e-07	8.04884e-07	3.75563e-07	2.54439e-07	0.0112571	0.0230816	0.0256804	64.0011	4625.25	2255.77	5146.02	-25.9989	0.0000000E+000	0.0000000E+000	0.0000000E+000	25.9989	0.0000000E+000	0.0000000E+000	0.0000000E+000	-25.9989	0.0000000E+000	0.0000000E+000	0.0000000E+000	-64.0011	0.0000000E+000	0.0000000E+000	0.0000000E+000	64.0011	0.487708	25.9989	-0.00015411
631.01	20.5876	41.2362	46.0899	-63.4688	154.643	-0.000263399	-0.505841	6.11653	4.89612	1	39	0.0133706	0.000290099	0	-0.0137838	0.553844	0.219236	9.54972	1.78707e-05	3.62195e-05	2.3122e-05	3.44446e-05	2.68245e-05	3.01635e-05	1.36387	0.145345	4.6225	3.47429e-06	1.2417e-06	1.54983e-07	1.30327e-06	2.30697e-07	3.42737e-07	0.0096916	0.0194119	0.0216967	63.4688	4896.12	2444.44	5472.41	-26.5312	0.0000000E+000	0.0000000E+000	0.0000000E+000	26.5312	0.0000000E+000	0.0000000E+000	0.0000000E+000	-26.5312	0.0000000E+000	0.0000000E+000	0.0000000E+000	-63.4688	0.0000000E+000	0.0000000E+000	0.0000000E+000	63.4688	0.499261	26.5312	-0.000153776
501.122	24.8881	48.5768	54.5814	-62.8719	155.748	-0.000262206	-0.504164	6.53804	5.17865	1	39	0.0131474	0.000240878	0	-0.0139375	0.623358	0.404898	9.54575	3.36323e-05	3.54732e-05	3.60421e-05	2.49071e-05	3.0591e-05	2.91272e-05	1.29727	0.209634	5.38527	2.80535e-06	7.99143e-07	4.40617e-07	8.68046e-07	4.12418e-07	2.16952e-07	0.00835416	0.0163057	0.0183213	62.8719	5178.65	2653.26	5818.78	-27.1281	0.0000000E+000	0.0000000E+000	0.0000000E+000	27.1281	0.0000000E+000	0.0000000E+000	0.0000000E+000	-27.1281	0.0000000E+000	0.0000000E+000	0.0000000E+000	-62.8719	0.0000000E+000	0.0000000E+000	0.0000000E+000	62.8719	0.512345	27.1281	-0.000153683
398.089	30.3082	56.8235	64.401	-61.9256	156.857	-0.000300065	-0.505307	7.03578	5.47749	1	39	0.012998	0.000201828	0	-0.0140919	0.615217	0.263822	9.77594	2.21439e-05	2.71148e-05	2.40423e-05	3.64394e-05	3.61474e-05	2.65589e-05	1.25078	0.197265	6.54993	2.19119e-06	7.98316e-07	1.36664e-07	8.17984e-07	2.64985e-07	3.119e-07	0.0073076	0.0137007	0.0155277	61.9256	5477.49	2921.56	6207.93	-28.0744	0.0000000E+000	0.0000000E+000	0.0000000E+000	28.0744	0.0000000E+000	0.0000000E+000	0.0000000E+000	-28.0744	0.0000000E+000	0.0000000E+000	0.0000000E+000	-61.9256	0.0000000E+000	0.0000000E+000	0.0000000E+000	61.9256	0.533375	28.0744	-0.000154381
316.316	36.857	66.1965	75.7656	-60.8917	157.961	-0.000268525	-0.504796	7.60088	5.80217	1	39	0.0129067	0.00017035	0	-0.0142453	0.550175	0.267203	9.83459	2.52768e-05	3.36583e-05	2.59988e-05	3.14694e-05	1.92523e-05	2.69915e-05	1.23937	0.191595	7.90767	1.88178e-06	6.14823e-07	1.86309e-07	4.8949e-07	2.02989e-07	2.34921e-07	0.00642061	0.0115316	0.0131986	60.8917	5802.17	3230.54	6640.9	-29.1083	0.0000000E+000	0.0000000E+000	0.0000000E+000	29.1083	0.0000000E+000	0.0000000E+000	0.0000000E+000	-29.1083	0.0000000E+000	0.0000000E+000	0.0000000E+000	-60.8917	0.0000000E+000	0.0000000E+000	0.0000000E+000	60.8917	0.556782	29.1083	-0.000153431
251.206	44.4961	76.6625	88.64	-59.8685	159.066	-0.000257826	-0.505096	8.26432	6.18178	1	39	0.0128346	0.000144795	0	-0.0143992	0.597126	0.337473	9.88903	2.69232e-05	4.48528e-05	2.91321e-05	1.62089e-05	1.99721e-05	3.28241e-05	1.18646	0.404212	9.46352	1.56419e-06	3.09074e-07	2.51427e-07	3.80392e-07	2.38104e-07	2.64665e-07	0.00566321	0.00975716	0.0112816	59.8685	6181.78	3588	7147.6	-30.1315	0.0000000E+000	0.0000000E+000	0.0000000E+000	30.1315	0.0000000E+000	0.0000000E+000	0.0000000E+000	-30.1315	0.0000000E+000	0.0000000E+000	0.0000000E+000	-59.8685	0.0000000E+000	0.0000000E+000	0.0000000E+000	59.8685	0.580415	30.1315	-0.000153838
199.553	53.724	88.7031	103.704	-58.7983	160.174	-0.000270539	-0.504849	8.9913	6.57823	1	39	0.0128095	0.00012352	0	-0.0145534	0.484533	0.286049	9.55392	2.81872e-05	1.76272e-05	1.91884e-05	3.36617e-05	2.43314e-05	6.90829e-06	1.27115	0.330826	10.3205	1.4435e-06	2.37863e-07	9.75323e-08	2.50978e-07	1.85082e-07	3.35343e-07	0.00499549	0.00824799	0.00964283	58.7983	6578.23	3984.18	7690.7	-31.2017	0.0000000E+000	0.0000000E+000	0.0000000E+000	31.2017	0.0000000E+000	0.0000000E+000	0.0000000E+000	-31.2017	0.0000000E+000	0.0000000E+000	0.0000000E+000	-58.7983	0.0000000E+000	0.0000000E+000	0.0000000E+000	58.7983	0.605661	31.2017	-0.00015419
158.529	64.3117	101.585	120.231	-57.6628	161.286	-0.000268712	-0.504707	9.88286	7.05518	1	39	0.0127712	0.000106222	0	-0.0147078	0.609514	0.271003	9.87751	1.25831e-05	2.97351e-05	2.13109e-05	5.18015e-05	2.27297e-05	1.82523e-05	1.36624	0.403454	12.5291	1.22239e-06	2.63877e-07	2.60075e-07	5.70971e-07	1.81016e-07	2.45959e-07	0.00444895	0.00702743	0.00831733	57.6628	7055.18	4466.52	8350.17	-32.3372	0.0000000E+000	0.0000000E+000	0.0000000E+000	32.3372	0.0000000E+000	0.0000000E+000	0.0000000E+000	-32.3372	0.0000000E+000	0.0000000E+000	0.0000000E+000	-57.6628	0.0000000E+000	0.0000000E+000	0.0000000E+000	57.6628	0.633083	32.3372	-0.000154464
125.927	76.9687	116.372	139.523	-56.5194	162.388	-0.000255197	-0.504966	10.8606	7.55543	1	39	0.0127763	9.15711e-05	0	-0.0148612	0.560189	0.387094	10.0544	3.25021e-05	3.02921e-05	1.7898e-05	3.63948e-05	2.09803e-05	2.67437e-05	1.21931	0.554686	14.823	8.61327e-07	3.38629e-07	1.4229e-07	4.41474e-07	1.54866e-07	2.35675e-07	0.00395386	0.00597802	0.00716727	56.5194	7555.44	4997.16	9058.49	-33.4806	0.0000000E+000	0.0000000E+000	0.0000000E+000	33.4806	0.0000000E+000	0.0000000E+000	0.0000000E+000	-33.4806	0.0000000E+000	0.0000000E+000	0.0000000E+000	-56.5194	0.0000000E+000	0.0000000E+000	0.0000000E+000	56.5194	0.6614	33.4807	-0.000153415
99.9682	90.9316	132.039	160.321	-55.4459	163.47	-0.000262933	-0.503344	12.0575	8.1786	1	39	0.0127401	7.94663e-05	0	-0.0150098	0.590133	0.208273	9.95523	2.71482e-05	2.18099e-05	1.97939e-05	3.37365e-05	3.63776e-05	2.70114e-05	1.22802	0.601906	16.7908	7.20333e-07	1.19594e-07	1.91631e-07	2.95513e-07	2.39735e-07	4.3898e-07	0.00353779	0.00513713	0.00623748	55.4459	8178.6	5632.37	9930.41	-34.5541	0.0000000E+000	0.0000000E+000	0.0000000E+000	34.5541	0.0000000E+000	0.0000000E+000	0.0000000E+000	-34.5541	0.0000000E+000	0.0000000E+000	0.0000000E+000	-55.4459	0.0000000E+000	0.0000000E+000	0.0000000E+000	55.4459	0.688671	34.5541	-0.00014854
79.4157	108.57	149.136	184.469	-53.9456	164.54	-0.000256483	-0.505664	13.4379	8.78309	1	39	0.0127358	6.90403e-05	0	-0.0151588	0.579297	0.327874	10.0033	2.83975e-05	3.37009e-05	2.12847e-05	3.30626e-05	2.21952e-05	2.6652e-05	1.744	0.496156	20.2576	1.06355e-06	2.11403e-07	2.00233e-07	2.67683e-07	2.26686e-07	2.75809e-07	0.00319052	0.00438262	0.00542096	53.9456	8783.09	6394.04	10864	-36.0544	0.0000000E+000	0.0000000E+000	0.0000000E+000	36.0544	0.0000000E+000	0.0000000E+000	0.0000000E+000	-36.0544	0.0000000E+000	0.0000000E+000	0.0000000E+000	-53.9456	0.0000000E+000	0.0000000E+000	0.0000000E+000	53.9456	0.727994	36.0544	-0.000149064
63.0823	125.206	168.78	210.15	-53.431	165.624	-0.000250593	-0.50517	14.9483	9.64215	1	39	0.0127218	6.05368e-05	0	-0.0153093	0.540942	0.19437	9.84573	3.17683e-05	1.71549e-05	2.90171e-05	3.77493e-05	1.72521e-05	2.61629e-05	1.62873	0.651541	21.5519	8.24586e-07	1.87113e-07	2.30195e-07	1.97242e-07	1.06325e-07	3.06836e-07	0.00283506	0.00382174	0.00475849	53.431	9642.15	7152.79	12005.6	-36.569	0.0000000E+000	0.0000000E+000	0.0000000E+000	36.569	0.0000000E+000	0.0000000E+000	0.0000000E+000	-36.569	0.0000000E+000	0.0000000E+000	0.0000000E+000	-53.431	0.0000000E+000	0.0000000E+000	0.0000000E+000	53.431	0.741826	36.569	-0.000150455
50.1122	146.682	190.034	240.059	-52.3365	166.689	-0.000264574	-0.502738	16.7126	10.473	1	39	0.0127236	5.3002e-05	0	-0.0154572	0.493056	0.335273	9.88051	2.03408e-05	1.84883e-05	2.35846e-05	3.02134e-05	2.04538e-05	2.52686e-05	1.90778	0.728435	24.4464	6.55786e-07	2.91836e-07	2.99842e-07	2.32502e-07	2.43578e-07	4.43403e-07	0.0025453	0.00329757	0.00416564	52.3365	10473	8083.79	13229.9	-37.6635	0.0000000E+000	0.0000000E+000	0.0000000E+000	37.6635	0.0000000E+000	0.0000000E+000	0.0000000E+000	-37.6635	0.0000000E+000	0.0000000E+000	0.0000000E+000	-52.3365	0.0000000E+000	0.0000000E+000	0.0000000E+000	52.3365	0.77187	37.6635	-0.000147916
39.8089	171.692	215.558	275.578	-51.4626	167.759	-0.000251618	-0.505387	18.5471	11.3478	1	39	0.0127211	4.61616e-05	0	-0.0156058	0.534097	0.34111	9.98185	8.89628e-06	2.56916e-05	2.79577e-05	3.04437e-05	2.44804e-05	2.8145e-05	2.27284	0.939362	29.013	7.05966e-07	3.49204e-07	4.65129e-07	1.39183e-07	1.46698e-07	3.33682e-07	0.00226079	0.0028384	0.00362873	51.4626	11347.8	9038.58	14507.6	-38.5374	0.0000000E+000	0.0000000E+000	0.0000000E+000	38.5374	0.0000000E+000	0.0000000E+000	0.0000000E+000	-38.5374	0.0000000E+000	0.0000000E+000	0.0000000E+000	-51.4626	0.0000000E+000	0.0000000E+000	0.0000000E+000	51.4626	0.796502	38.5374	-0.000148622
31.6296	196.92	242.902	312.696	-50.9684	168.799	-0.000239483	-0.505529	20.7155	12.5001	1	39	0.0127277	4.0703e-05	0	-0.0157509	0.518032	0.177048	9.66311	2.17957e-05	3.98967e-05	1.66955e-05	1.92449e-05	1.52212e-05	2.84961e-05	2.05299	0.591054	31.3598	6.12521e-07	1.69523e-07	1.63059e-07	1.91505e-07	2.12212e-07	3.6916e-07	0.00201393	0.0024842	0.00319799	50.9684	12500.1	10133.8	16091.8	-39.0316	0.0000000E+000	0.0000000E+000	0.0000000E+000	39.0316	0.0000000E+000	0.0000000E+000	0.0000000E+000	-39.0316	0.0000000E+000	0.0000000E+000	0.0000000E+000	-50.9684	0.0000000E+000	0.0000000E+000	0.0000000E+000	50.9684	0.810697	39.0316	-0.000145027
25.1206	226.429	267.684	350.607	-49.7727	169.868	-0.000255029	-0.505998	23.6683	13.7966	1	39	0.0127011	3.62261e-05	0	-0.0158992	0.486361	0.341901	10.0421	1.66893e-05	2.32933e-05	1.54077e-05	2.84999e-05	3.74387e-05	1.4528e-05	2.49683	1.31289	36.8868	6.63692e-07	3.43509e-07	1.89959e-07	1.19267e-07	3.7236e-07	2.00239e-07	0.00184201	0.00217762	0.0028522	49.7727	13796.6	11670.3	18070.5	-40.2273	0.0000000E+000	0.0000000E+000	0.0000000E+000	40.2273	0.0000000E+000	0.0000000E+000	0.0000000E+000	-40.2273	0.0000000E+000	0.0000000E+000	0.0000000E+000	-49.7727	0.0000000E+000	0.0000000E+000	0.0000000E+000	49.7727	0.845883	40.2273	-0.000148345
19.9553	258.617	301.884	397.513	-49.4141	170.937	-0.000248263	-0.503352	26.4192	15.237	1	39	0.0126937	3.19328e-05	0	-0.0160473	0.567415	0.283976	9.84216	3.34921e-05	2.60326e-05	3.37347e-05	2.62529e-05	1.55666e-05	2.94044e-05	2.46593	0.831818	42.3357	5.55876e-07	1.32726e-07	1.89216e-07	2.64e-07	1.70154e-07	3.67167e-07	0.00163664	0.00191046	0.00251564	49.4141	15237	13053.1	20063.6	-40.5859	0.0000000E+000	0.0000000E+000	0.0000000E+000	40.5859	0.0000000E+000	0.0000000E+000	0.0000000E+000	-40.5859	0.0000000E+000	0.0000000E+000	0.0000000E+000	-49.4141	0.0000000E+000	0.0000000E+000	0.0000000E+000	49.4141	0.856675	40.5858	-0.000148127
15.8469	297.185	344.244	454.778	-49.196	171.978	-0.00023376	-0.506613	29.1749	16.7165	1	39	0.0127187	2.79669e-05	0	-0.0161926	0.4906	0.367498	9.94933	3.08857e-05	2.16128e-05	1.70036e-05	2.26594e-05	2.02301e-05	2.35452e-05	3.16643	2.43653	47.0567	6.5024e-07	1.94287e-07	1.18501e-07	2.5805e-07	2.65361e-07	3.14039e-07	0.0014369	0.00166444	0.00219887	49.196	16716.5	14431.3	22084	-40.804	0.0000000E+000	0.0000000E+000	0.0000000E+000	40.804	0.0000000E+000	0.0000000E+000	0.0000000E+000	-40.804	0.0000000E+000	0.0000000E+000	0.0000000E+000	-49.196	0.0000000E+000	0.0000000E+000	0.0000000E+000	49.196	0.863297	40.804	-0.00014532
12.5873	343.217	385.633	516.247	-48.3306	173.149	-0.000243733	-0.504422	32.7879	18.2956	1	39	0.0127138	2.46274e-05	0	-0.0163539	0.522487	0.20416	6.80423	2.04683e-05	2.9222e-05	1.35337e-05	2.8291e-05	2.52802e-05	2.56072e-05	3.03562	2.13825	37.3333	4.98528e-07	1.33294e-07	1.72338e-07	3.07301e-07	2.27128e-07	2.35718e-07	0.00128782	0.00144697	0.00193706	48.3306	18295.6	16283.3	24492.3	-41.6694	0.0000000E+000	0.0000000E+000	0.0000000E+000	41.6694	0.0000000E+000	0.0000000E+000	0.0000000E+000	-41.6694	0.0000000E+000	0.0000000E+000	0.0000000E+000	-48.3306	0.0000000E+000	0.0000000E+000	0.0000000E+000	48.3306	0.890009	41.6694	-0.0001613
9.99682	393.542	432.912	585.054	-47.7274	174.209	-0.000278666	-0.504587	36.7755	20.1357	1	39	0.0127146	2.17324e-05	0	-0.0165022	0.478835	0.142096	9.72051	1.74085e-05	1.12497e-05	2.78918e-05	3.15469e-05	2.85022e-05	1.70247e-05	4.27331	3.79943	60.0436	5.4482e-07	3.32091e-07	2.78896e-07	2.41448e-07	3.23158e-07	2.98908e-07	0.00114974	0.00126476	0.00170924	47.7274	20135.7	18304.5	27212.1	-42.2726	0.0000000E+000	0.0000000E+000	0.0000000E+000	42.2726	0.0000000E+000	0.0000000E+000	0.0000000E+000	-42.2726	0.0000000E+000	0.0000000E+000	0.0000000E+000	-47.7274	0.0000000E+000	0.0000000E+000	0.0000000E+000	47.7274	0.909056	42.2726	-0.000148264
7.93956	452.096	497.618	672.32	-47.7443	175.418	-0.000251199	-0.505231	40.2835	22.0682	1	39	0.0127207	1.89206e-05	0	-0.0166692	0.415619	0.196677	6.81039	1.74825e-05	2.06327e-05	1.20295e-05	2.24926e-05	1.63683e-05	2.81781e-05	3.77595	3.69822	48.2353	6.02982e-07	1.62615e-07	1.2916e-07	1.43638e-07	1.87722e-07	1.32689e-07	0.00100018	0.00110089	0.00148739	47.7443	22068.2	20049.4	29815.9	-42.2557	0.0000000E+000	0.0000000E+000	0.0000000E+000	42.2557	0.0000000E+000	0.0000000E+000	0.0000000E+000	-42.2557	0.0000000E+000	0.0000000E+000	0.0000000E+000	-47.7443	0.0000000E+000	0.0000000E+000	0.0000000E+000	47.7443	0.908519	42.2557	-0.000166992
6.31058	515.184	544.756	749.783	-46.5981	176.802	-0.000254163	-0.504691	46.2965	24.4389	1	39	0.0127045	1.69442e-05	0	-0.0168607	0.403762	0.174002	6.91992	9.71948e-06	2.14244e-05	2.31856e-05	2.8509e-05	1.78064e-05	1.37089e-05	4.04589	3.61076	54.9038	4.53285e-07	3.04845e-07	2.78192e-07	1.94196e-07	1.22434e-07	1.0424e-07	0.000916414	0.000969017	0.00133372	46.5981	24438.9	23112.3	33636.8	-43.4019	0.0000000E+000	0.0000000E+000	0.0000000E+000	43.4019	0.0000000E+000	0.0000000E+000	0.0000000E+000	-43.4019	0.0000000E+000	0.0000000E+000	0.0000000E+000	-46.5981	0.0000000E+000	0.0000000E+000	0.0000000E+000	46.5981	0.945716	43.4019	-0.000191474
5.01283	616.081	623.476	876.515	-45.3418	178.42	-0.000259217	-0.503561	50.9234	25.7655	1	39	0.0127174	1.4509e-05	0	-0.0170853	0.322824	0.112228	5.69214	2.34488e-05	1.15659e-05	1.6734e-05	9.80593e-06	1.27793e-05	1.88723e-05	4.24343	7.49602	51.5244	4.46936e-07	1.36362e-07	2.06403e-07	1.37438e-07	1.8302e-07	1.86853e-07	0.000801899	0.000811523	0.00114088	45.3418	25765.5	25459.9	36222.4	-44.6582	0.0000000E+000	0.0000000E+000	0.0000000E+000	44.6582	0.0000000E+000	0.0000000E+000	0.0000000E+000	-44.6582	0.0000000E+000	0.0000000E+000	0.0000000E+000	-45.3418	0.0000000E+000	0.0000000E+000	0.0000000E+000	45.3418	0.98814	44.6582	-0.000224593
3.9819	681.035	700.793	977.2	-45.8192	180.341	-0.000255985	-0.503396	57.0348	29.3327	1	39	0.0127186	1.30154e-05	0	-0.0173524	0.280012	0.157871	4.7792	7.84289e-06	1.22017e-05	8.40356e-06	1.95664e-05	1.97042e-05	9.8904e-06	3.90225	6.88533	49.4695	3.41264e-07	2.00432e-07	9.20389e-08	2.2579e-07	1.30546e-07	1.01372e-07	0.000713186	0.000733876	0.00102333	45.8192	29332.7	28505.7	40902.1	-44.1808	0.0000000E+000	0.0000000E+000	0.0000000E+000	44.1808	0.0000000E+000	0.0000000E+000	0.0000000E+000	-44.1808	0.0000000E+000	0.0000000E+000	0.0000000E+000	-45.8192	0.0000000E+000	0.0000000E+000	0.0000000E+000	45.8192	0.971807	44.1808	-0.000267171
3.16296	795.674	762.789	1102.24	-43.7912	182.65	-0.000240292	-0.504744	65.9664	31.5918	1	39	0.0127091	1.15302e-05	0	-0.0176745	0.258385	0.114858	4.49555	9.84082e-06	1.7556e-05	1.01777e-05	1.13646e-05	1.52464e-05	8.03652e-06	3.89367	4.31578	51.2824	2.3454e-07	2.05317e-07	9.86107e-08	1.53242e-07	1.4969e-07	9.49176e-08	0.000654906	0.000627839	0.000907239	43.7912	31591.8	32953.8	45650.8	-46.2088	0.0000000E+000	0.0000000E+000	0.0000000E+000	46.2088	0.0000000E+000	0.0000000E+000	0.0000000E+000	-46.2088	0.0000000E+000	0.0000000E+000	0.0000000E+000	-43.7912	0.0000000E+000	0.0000000E+000	0.0000000E+000	43.7912	1.04311	46.2088	-0.000322048
2.51085	987.442	820.431	1283.8	-39.722	185.454	-0.000249716	-0.504026	77.2606	31.5533	1	39	0.0127142	9.90355e-06	0	-0.0180655	0.237765	0.106136	3.72826	1.40026e-05	1.21462e-05	7.16223e-06	1.5916e-05	1.09275e-05	7.29289e-06	5.92364	8.46073	50.1613	4.18319e-07	2.78434e-07	1.07809e-07	1.0512e-07	1.18634e-07	6.97305e-08	0.000599122	0.000497789	0.000778936	39.722	31553.4	37976.5	49374.4	-50.278	0.0000000E+000	0.0000000E+000	0.0000000E+000	50.278	0.0000000E+000	0.0000000E+000	0.0000000E+000	-50.278	0.0000000E+000	0.0000000E+000	0.0000000E+000	-39.722	0.0000000E+000	0.0000000E+000	0.0000000E+000	39.722	1.20357	50.278	-0.00039106
1.99553	1086.74	917.194	1422.06	-40.1638	188.878	-0.000253455	-0.504876	86.956	36.1731	1	39	0.0127108	8.93829e-06	0	-0.0185435	0.234273	0.0861354	3.2336	1.0561e-05	1.31491e-05	8.50791e-06	1.60483e-05	1.22092e-05	7.60211e-06	5.17327	8.05576	49.1918	3.51093e-07	1.7496e-07	8.09524e-08	1.31564e-07	1.18818e-07	9.54302e-08	0.000537392	0.00045355	0.000703205	40.1638	36173.1	42860	56084.5	-49.8362	0.0000000E+000	0.0000000E+000	0.0000000E+000	49.8362	0.0000000E+000	0.0000000E+000	0.0000000E+000	-49.8362	0.0000000E+000	0.0000000E+000	0.0000000E+000	-40.1638	0.0000000E+000	0.0000000E+000	0.0000000E+000	40.1638	1.18486	49.8362	-0.000477994
1.58533	1322.94	823.843	1558.49	-31.9121	193.09	-0.000242135	-0.504343	121.859	34.0518	1	39	0.0127141	8.15796e-06	0	-0.0191324	0.177361	0.0859635	3.03183	4.59753e-06	1.50832e-05	5.38947e-06	1.20278e-05	5.08547e-06	5.72925e-06	7.40363	8.35487	48.9628	4.67077e-07	2.74982e-07	1.10365e-07	1.56628e-07	1.30732e-07	5.138e-08	0.00054467	0.000339187	0.000641648	31.9121	34051.8	54680.7	64416.7	-58.0879	0.0000000E+000	0.0000000E+000	0.0000000E+000	58.0879	0.0000000E+000	0.0000000E+000	0.0000000E+000	-58.0879	0.0000000E+000	0.0000000E+000	0.0000000E+000	-31.9121	0.0000000E+000	0.0000000E+000	0.0000000E+000	31.9121	1.60581	58.0879	-0.000588808
1.25825	1421.63	753.257	1608.86	-27.9171	198.3	-0.000245811	-0.503987	167.922	36.8094	1	39	0.0127099	7.89993e-06	0	-0.0198603	0.186067	0.0589027	2.97191	1.05046e-05	9.61129e-06	4.79405e-06	1.41125e-05	5.54256e-06	8.63125e-06	8.39533	7.68335	47.7115	4.73513e-07	3.32461e-07	1.61802e-07	1.51026e-07	8.36736e-08	8.29639e-08	0.000549225	0.000291009	0.000621559	27.9171	36809.4	69470.8	78620.1	-62.0829	0.0000000E+000	0.0000000E+000	0.0000000E+000	62.0829	0.0000000E+000	0.0000000E+000	0.0000000E+000	-62.0829	0.0000000E+000	0.0000000E+000	0.0000000E+000	-27.9171	0.0000000E+000	0.0000000E+000	0.0000000E+000	27.9171	1.88731	62.0829	-0.000727983
1.00006	1631.54	702.916	1776.52	-23.3078	204.76	-0.000243132	-0.503657	226.407	35.4451	1	39	0.012709	7.15389e-06	0	-0.0207633	0.157482	0.0592533	2.44189	3.86206e-06	1.13586e-05	4.64549e-06	9.89458e-06	8.40663e-06	5.91058e-06	8.29982	14.4269	45.4054	3.40118e-07	2.37463e-07	2.66431e-07	1.95077e-07	2.0219e-07	8.95456e-08	0.000516962	0.000222722	0.000562898	23.3078	35445.1	82271.9	89582.5	-66.6922	0.0000000E+000	0.0000000E+000	0.0000000E+000	66.6922	0.0000000E+000	0.0000000E+000	0.0000000E+000	-66.6922	0.0000000E+000	0.0000000E+000	0.0000000E+000	-23.3078	0.0000000E+000	0.0000000E+000	0.0000000E+000	23.3078	2.32111	66.6922	-0.000902973
0.79456	1773.79	700.486	1907.1	-21.5495	212.777	-0.000250264	-0.504906	285.953	38.5788	1	39	0.0127134	6.66638e-06	0	-0.0218828	0.150853	0.079591	1.89166	5.22127e-06	1.40898e-05	4.59539e-06	7.56499e-06	4.88837e-06	4.33639e-06	10.916	15.4071	41.4976	3.86031e-07	4.359e-07	2.10866e-07	1.12097e-07	1.61543e-07	2.08464e-07	0.000487705	0.000192599	0.000524358	21.5495	38578.8	97690.2	105032	-68.4505	0.0000000E+000	0.0000000E+000	0.0000000E+000	68.4505	0.0000000E+000	0.0000000E+000	0.0000000E+000	-68.4505	0.0000000E+000	0.0000000E+000	0.0000000E+000	-21.5495	0.0000000E+000	0.0000000E+000	0.0000000E+000	21.5495	2.53223	68.4505	-0.00111948
0.630906	1955.85	581.415	2040.44	-16.5556	222.775	-0.000241755	-0.504031	433.88	35.2286	1	39	0.0127131	6.2306e-06	0	-0.0232812	0.150248	0.0452521	1.76033	4.60695e-06	1.37008e-05	3.40501e-06	9.23308e-06	4.76985e-06	4.28108e-06	11.9087	10.9068	40.5937	4.78793e-07	2.68258e-07	3.79526e-07	1.56521e-07	2.06099e-07	1.58666e-07	0.000469773	0.00013965	0.000490091	16.5556	35228.6	118507	123632	-73.4444	0.0000000E+000	0.0000000E+000	0.0000000E+000	73.4444	0.0000000E+000	0.0000000E+000	0.0000000E+000	-73.4444	0.0000000E+000	0.0000000E+000	0.0000000E+000	-16.5556	0.0000000E+000	0.0000000E+000	0.0000000E+000	16.5556	3.36395	73.4444	-0.00139844
0.500946	2061.95	392.394	2098.95	-10.7747	235.281	-0.0002574	-0.503807	809.669	28.2973	1	39	0.012712	6.05635e-06	0	-0.0250292	0.121256	0.0500387	1.58939	2.77414e-06	1.18842e-05	2.78939e-06	6.93892e-06	3.11527e-06	3.61791e-06	15.9858	9.624	38.8989	7.10967e-07	3.58438e-07	2.39441e-07	2.48423e-07	2.72647e-07	2.46562e-07	0.000468028	8.90669e-05	0.000476428	10.7747	28297.3	148697	151365	-79.2253	0.0000000E+000	0.0000000E+000	0.0000000E+000	79.2253	0.0000000E+000	0.0000000E+000	0.0000000E+000	-79.2253	0.0000000E+000	0.0000000E+000	0.0000000E+000	-10.7747	0.0000000E+000	0.0000000E+000	0.0000000E+000	10.7747	5.2548	79.2253	-0.00174795
0.398211	2019.68	452.792	2069.81	-12.6362	250.931	-0.000261255	-0.50366	882.69	42.2418	1	39	0.0127107	6.14098e-06	0	-0.0272157	0.131798	0.0660869	1.34931	5.0709e-06	8.72365e-06	3.54074e-06	9.92991e-06	5.00199e-06	3.89192e-06	9.47444	6.94383	34.0346	2.66828e-07	2.65938e-07	2.06025e-07	1.94103e-07	2.05004e-07	1.76925e-07	0.000471433	0.000105691	0.000483135	12.6362	42241.8	188420	193097	-77.3638	0.0000000E+000	0.0000000E+000	0.0000000E+000	77.3638	0.0000000E+000	0.0000000E+000	0.0000000E+000	-77.3638	0.0000000E+000	0.0000000E+000	0.0000000E+000	-12.6362	0.0000000E+000	0.0000000E+000	0.0000000E+000	12.6362	4.4605	77.3638	-0.00218655
0.316193	2064.41	308.56	2087.34	-8.50088	270.558	-0.000261506	-0.503812	1631.28	35.6469	1	39	0.0127123	6.09018e-06	0	-0.0299583	0.153891	0.0437816	1.27326	4.54348e-06	1.21695e-05	3.22581e-06	1.25471e-05	3.51432e-06	4.22583e-06	13.149	5.23186	32.0957	4.00935e-07	1.95604e-07	3.58197e-07	2.94724e-07	2.81969e-07	2.79277e-07	0.000473816	7.08196e-05	0.000479079	8.50088	35646.9	238494	241143	-81.4991	0.0000000E+000	0.0000000E+000	0.0000000E+000	81.4991	0.0000000E+000	0.0000000E+000	0.0000000E+000	-81.4991	0.0000000E+000	0.0000000E+000	0.0000000E+000	-8.50088	0.0000000E+000	0.0000000E+000	0.0000000E+000	8.50088	6.69046	81.4991	-0.00274259