File: Python/Data/RDE/240223-OCV-EIS-Fe2Fe3_5mM-HCl1M-625RPM-Ag_AgCl_BLF8-GC-RDE-1minRestVSEoc-3ppf-14p1mVAmplitude_06_PEIS_C15.mpt
EC-Lab ASCII FILE
Nb header lines : 67

Potentio Electrochemical Impedance Spectroscopy

Run on channel : 15 (SN 19485)
User :
Electrode connection : standard
Potential control : Ewe
Ewe ctrl range : min = -1.00 V, max = 1.00 V
Ewe,I filtering : 50 kHz
Safety Limits :
	Do not start on E overload
Channel : Floating
Acquisition started on : 02/23/2024 15:19:09.853
Loaded Setting File :  NONE
Saved on :
	File : 240223-OCV-EIS-Fe2Fe3_5mM-HCl1M-625RPM-Ag_AgCl_BLF8-GC-RDE-1minRestVSEoc-3ppf-14p1mVAmplitude_06_PEIS_C15.mpr
	Directory : C:\Data\mathias\RDE-RPM-variation\
	Host : 192.168.0.1
Device : VMP-300 (SN 0826)
Address : USB
EC-Lab for windows v11.52 (software)
Internet server v11.52 (firmware)
Command interpretor v11.52 (firmware)
Electrode material :
Initial state :
Electrolyte :
Comments :
Cable : special
Reference electrode : SCE Saturated Calomel Electrode (0.241 V)
Electrode surface area : 0.001 cm²
Characteristic mass : 0.001 g
Equivalent Weight : 0.000 g/eq.
Density : 0.000 g/cm3
Volume (V) : 0.001 cm³
Record EIS quality indicators
Cycle Definition : Charge/Discharge alternance
Mode                Single sine
E (V)               0.0000
vs.                 Eoc
tE (h:m:s)          0:01:0.0000
record              0
dI                  0.000
unit dI             mA
dt (s)              0.000
fi                  1.000
unit fi             MHz
ff                  100.000
unit ff             mHz
Nd                  10
Points              per decade
spacing             Logarithmic
Va (mV)             14.1
pw                  0.10
Na                  3
corr                0
E range min (V)     -1.000
E range max (V)     1.000
I Range             Auto
Bandwidth           8
nc cycles           0
goto Ns'            0
nr cycles           0
inc. cycle          1

freq/Hz	Re(Z)/Ohm	-Im(Z)/Ohm	|Z|/Ohm	Phase(Z)/deg	time/s	<Ewe>/V	<I>/mA	Cs/µF	Cp/µF	cycle number	I Range	|Ewe|/V	|I|/A	Ns	(Q-Qo)/mA.h	THD Ewe/%	NSD Ewe/%	NSR Ewe/%	|Ewe h2|/V	|Ewe h3|/V	|Ewe h4|/V	|Ewe h5|/V	|Ewe h6|/V	|Ewe h7|/V	THD I/%	NSD I/%	NSR I/%	|I h2|/A	|I h3|/A	|I h4|/A	|I h5|/A	|I h6|/A	|I h7|/A	Re(Y)/Ohm-1	Im(Y)/Ohm-1	|Y|/Ohm-1	Phase(Y)/deg	Re(C)/nF	Im(C)/nF	|C|/nF	Phase(C)/deg	Re(M)	Im(M)	|M|	Phase(M)/deg	Re(Permittivity)	Im(Permittivity)	|Permittivity|	Phase(Permittivity)/deg	Re(Resistivity)/Ohm.cm	Im(Resistivity)/Ohm.cm	|Resistivity|/Ohm.cm	Phase(Resistivity)/deg	Re(Conductivity)/mS/cm	Im(Conductivity)/mS/cm	|Conductivity|/mS/cm	Phase(Conductivity)/deg	Tan(Delta)	Loss Angle(Delta)/deg	dq/mA.h
1.00002e+06	3.53269	4.08752	5.40257	-49.1644	1085.19	0.459503	-0.0104513	0.038936	0.022288	1	38	0.0111613	0.00206592	0	-7.75551e-06	-1	-1	-1	0	0	0	0	0	0	-1	-1	-1	0	0	0	0	0	0	0.121033	0.140042	0.185097	49.1644	22.288	19.2627	29.4586	-40.8356	0.0000000E+000	0.0000000E+000	0.0000000E+000	40.8356	0.0000000E+000	0.0000000E+000	0.0000000E+000	-40.8356	0.0000000E+000	0.0000000E+000	0.0000000E+000	-49.1644	0.0000000E+000	0.0000000E+000	0.0000000E+000	49.1644	0.864262	40.8356	-7.75551e-06
794333	3.55902	3.2047	4.78923	-42.0013	1086.2	0.459539	-0.00132408	0.0625216	0.0279946	1	38	0.0138948	0.00290125	0	-7.72857e-06	-1	-1	-1	0	0	0	0	0	0	-1	-1	-1	0	0	0	0	0	0	0.155167	0.139719	0.208802	42.0013	27.9946	31.0897	41.8362	-47.9987	0.0000000E+000	0.0000000E+000	0.0000000E+000	47.9987	0.0000000E+000	0.0000000E+000	0.0000000E+000	-47.9987	0.0000000E+000	0.0000000E+000	0.0000000E+000	-42.0013	0.0000000E+000	0.0000000E+000	0.0000000E+000	42.0013	1.11056	47.9987	2.69327e-08
630957	3.54937	2.52379	4.35518	-35.4149	1087.35	0.459528	-0.00134639	0.0999463	0.0335632	1	38	0.0144579	0.0033197	0	-7.36287e-06	-1	-1	-1	0	0	0	0	0	0	-1	-1	-1	0	0	0	0	0	0	0.187128	0.133058	0.229612	35.4149	33.5632	47.202	57.9182	-54.5851	0.0000000E+000	0.0000000E+000	0.0000000E+000	54.5851	0.0000000E+000	0.0000000E+000	0.0000000E+000	-54.5851	0.0000000E+000	0.0000000E+000	0.0000000E+000	-35.4149	0.0000000E+000	0.0000000E+000	0.0000000E+000	35.4149	1.40636	54.5851	3.65709e-07
501206	3.51841	2.00871	4.05144	-29.7227	1088.49	0.45952	-0.0014432	0.158083	0.03886	1	38	0.0145767	0.00359791	0	-2.54717e-06	-1	-1	-1	0	0	0	0	0	0	-1	-1	-1	0	0	0	0	0	0	0.214352	0.122377	0.246826	29.7227	38.86	68.0663	78.378	-60.2773	0.0000000E+000	0.0000000E+000	0.0000000E+000	60.2773	0.0000000E+000	0.0000000E+000	0.0000000E+000	-60.2773	0.0000000E+000	0.0000000E+000	0.0000000E+000	-29.7227	0.0000000E+000	0.0000000E+000	0.0000000E+000	29.7227	1.75158	60.2773	4.8157e-06
398103	3.47428	1.6283	3.83693	-25.1112	1089.64	0.459535	-0.00179696	0.245521	0.0442173	1	38	0.0145753	0.00379869	0	3.68438e-06	-1	-1	-1	0	0	0	0	0	0	-1	-1	-1	0	0	0	0	0	0	0.235992	0.110603	0.260625	25.1112	44.2173	94.3458	104.194	-64.8888	0.0000000E+000	0.0000000E+000	0.0000000E+000	64.8888	0.0000000E+000	0.0000000E+000	0.0000000E+000	-64.8888	0.0000000E+000	0.0000000E+000	0.0000000E+000	-25.1112	0.0000000E+000	0.0000000E+000	0.0000000E+000	25.1112	2.13368	64.8888	6.23155e-06
316230	3.43789	1.35918	3.69682	-21.5716	1090.79	0.459514	-0.00202598	0.370287	0.050054	1	38	0.0145456	0.00393462	0	1.06151e-05	-1	-1	-1	0	0	0	0	0	0	-1	-1	-1	0	0	0	0	0	0	0.251556	0.0994539	0.270503	21.5716	50.054	126.606	136.141	-68.4284	0.0000000E+000	0.0000000E+000	0.0000000E+000	68.4284	0.0000000E+000	0.0000000E+000	0.0000000E+000	-68.4284	0.0000000E+000	0.0000000E+000	0.0000000E+000	-21.5716	0.0000000E+000	0.0000000E+000	0.0000000E+000	21.5716	2.52938	68.4284	6.93071e-06
251188	3.41801	1.17371	3.61392	-18.9519	1091.94	0.459492	-0.00250262	0.539837	0.056941	1	38	0.0145517	0.00402658	0	1.80562e-06	-1	-1	-1	0	0	0	0	0	0	-1	-1	-1	0	0	0	0	0	0	0.261708	0.0898676	0.276708	18.9519	56.941	165.821	175.325	-71.0481	0.0000000E+000	0.0000000E+000	0.0000000E+000	71.0481	0.0000000E+000	0.0000000E+000	0.0000000E+000	-71.0481	0.0000000E+000	0.0000000E+000	0.0000000E+000	-18.9519	0.0000000E+000	0.0000000E+000	0.0000000E+000	18.9519	2.91215	71.0481	-8.80946e-06
199544	3.40403	1.05364	3.56336	-17.1987	1093.08	0.459515	-0.00152139	0.756991	0.0661842	1	38	0.0145589	0.00408572	0	8.45132e-06	-1	-1	-1	0	0	0	0	0	0	-1	-1	-1	0	0	0	0	0	0	0.268085	0.0829797	0.280634	17.1987	66.1842	213.824	223.832	-72.8013	0.0000000E+000	0.0000000E+000	0.0000000E+000	72.8013	0.0000000E+000	0.0000000E+000	0.0000000E+000	-72.8013	0.0000000E+000	0.0000000E+000	0.0000000E+000	-17.1987	0.0000000E+000	0.0000000E+000	0.0000000E+000	17.1987	3.23073	72.8013	6.64569e-06
158486	3.4039	1.00836	3.55012	-16.5012	1094.23	0.459511	-0.00039306	0.995896	0.0803448	1	38	0.0145925	0.00411041	0	1.51742e-06	-1	-1	-1	0	0	0	0	0	0	-1	-1	-1	0	0	0	0	0	0	0.270079	0.0800072	0.281681	16.5012	80.3448	271.219	282.869	-73.4988	0.0000000E+000	0.0000000E+000	0.0000000E+000	73.4988	0.0000000E+000	0.0000000E+000	0.0000000E+000	-73.4988	0.0000000E+000	0.0000000E+000	0.0000000E+000	-16.5012	0.0000000E+000	0.0000000E+000	0.0000000E+000	16.5012	3.37569	73.4988	-6.9339e-06
125909	3.40784	1.00799	3.55379	-16.4775	1095.38	0.459507	-0.00102053	1.25402	0.100887	1	38	0.0145756	0.00410143	0	6.35049e-07	-1	-1	-1	0	0	0	0	0	0	-1	-1	-1	0	0	0	0	0	0	0.269833	0.0798132	0.28139	16.4775	100.887	341.082	355.689	-73.5225	0.0000000E+000	0.0000000E+000	0.0000000E+000	73.5225	0.0000000E+000	0.0000000E+000	0.0000000E+000	-73.5225	0.0000000E+000	0.0000000E+000	0.0000000E+000	-16.4775	0.0000000E+000	0.0000000E+000	0.0000000E+000	16.4775	3.38081	73.5225	-8.8237e-07
100004	3.42016	1.0605	3.5808	-17.2272	1096.52	0.459501	-0.00124955	1.5007	0.13163	1	38	0.0145874	0.00407379	0	6.22616e-07	0.468391	0.262439	9.15807	1.12708e-05	2.47088e-05	2.94344e-05	3.45055e-05	1.5961e-05	3.10124e-05	0.0637318	0.0480874	0.703355	1.86432e-06	1.22052e-06	5.73234e-07	7.71939e-07	4.49012e-07	4.05022e-07	0.266739	0.0827084	0.279267	17.2272	131.63	424.512	444.451	-72.7728	0.0000000E+000	0.0000000E+000	0.0000000E+000	72.7728	0.0000000E+000	0.0000000E+000	0.0000000E+000	-72.7728	0.0000000E+000	0.0000000E+000	0.0000000E+000	-17.2272	0.0000000E+000	0.0000000E+000	0.0000000E+000	17.2272	3.22505	72.7728	-1.24324e-08
79433.3	3.44048	1.15521	3.62924	-18.5606	1097.67	0.459507	-0.00143947	1.73442	0.175731	1	38	0.0145985	0.00402246	0	-1.06226e-07	0.511239	0.358867	9.10791	3.45571e-05	2.82898e-05	2.26672e-05	4.51098e-05	1.49759e-05	1.81483e-05	0.0616859	0.0526024	0.72151	1.66715e-06	1.24108e-06	7.76262e-07	5.1477e-07	5.94117e-07	6.70921e-07	0.261208	0.0877062	0.275539	18.5606	175.731	523.364	552.079	-71.4394	0.0000000E+000	0.0000000E+000	0.0000000E+000	71.4394	0.0000000E+000	0.0000000E+000	0.0000000E+000	-71.4394	0.0000000E+000	0.0000000E+000	0.0000000E+000	-18.5606	0.0000000E+000	0.0000000E+000	0.0000000E+000	18.5606	2.97822	71.4394	-7.28842e-07
63093.8	3.46669	1.30854	3.70543	-20.6796	1098.82	0.459534	-0.00142644	1.92773	0.240405	1	38	0.0146019	0.00394069	0	-3.77068e-06	0.509688	0.24152	9.05365	4.3145e-05	3.43563e-05	1.98427e-05	2.59747e-05	2.73059e-05	1.91257e-05	0.0562738	0.0403057	0.735213	7.87407e-07	1.20768e-06	5.7695e-07	7.72677e-07	9.99118e-07	3.78711e-07	0.252486	0.0953038	0.269874	20.6796	240.405	636.9	680.761	-69.3204	0.0000000E+000	0.0000000E+000	0.0000000E+000	69.3204	0.0000000E+000	0.0000000E+000	0.0000000E+000	-69.3204	0.0000000E+000	0.0000000E+000	0.0000000E+000	-20.6796	0.0000000E+000	0.0000000E+000	0.0000000E+000	20.6796	2.64928	69.3204	-3.66445e-06
50122.5	3.50502	1.51157	3.81707	-23.3286	1099.97	0.459482	-0.00108757	2.10067	0.329425	1	38	0.0145675	0.0038164	0	-8.12982e-06	0.580008	0.359801	9.04412	2.91515e-05	3.28488e-05	3.20092e-05	2.85691e-05	3.36852e-05	3.87183e-05	0.0592039	0.052796	0.7582	1.05731e-06	1.36551e-06	4.37757e-07	8.39409e-07	3.50797e-07	8.21987e-07	0.240564	0.103746	0.261981	23.3286	329.425	763.867	831.874	-66.6714	0.0000000E+000	0.0000000E+000	0.0000000E+000	66.6714	0.0000000E+000	0.0000000E+000	0.0000000E+000	-66.6714	0.0000000E+000	0.0000000E+000	0.0000000E+000	-23.3286	0.0000000E+000	0.0000000E+000	0.0000000E+000	23.3286	2.31879	66.6714	-4.35914e-06
39814.1	3.55327	1.79589	3.98132	-26.8129	1101.11	0.459491	-0.000949784	2.22589	0.452907	1	38	0.0146221	0.00367267	0	-1.10082e-05	0.467926	0.279139	9.00768	1.68565e-05	1.58422e-05	3.66716e-05	2.32675e-05	2.33091e-05	3.4692e-05	0.05975	0.0841638	0.78962	8.97924e-07	1.40575e-06	6.57328e-07	5.2109e-07	8.64287e-07	5.80842e-07	0.224168	0.113299	0.251173	26.8129	452.906	896.101	1004.05	-63.1871	0.0000000E+000	0.0000000E+000	0.0000000E+000	63.1871	0.0000000E+000	0.0000000E+000	0.0000000E+000	-63.1871	0.0000000E+000	0.0000000E+000	0.0000000E+000	-26.8129	0.0000000E+000	0.0000000E+000	0.0000000E+000	26.8129	1.97856	63.1871	-2.87836e-06
31621.1	3.60841	2.15903	4.205	-30.8934	1102.26	0.459518	-0.00228107	2.33123	0.614566	1	38	0.014656	0.00348538	0	-1.25142e-05	0.516865	0.251512	9.02069	2.44802e-05	2.21437e-05	3.9684e-05	3.15851e-05	2.04178e-05	3.35915e-05	0.0706728	0.0913388	0.834592	9.1717e-07	1.39783e-06	1.05291e-06	8.64792e-07	6.14745e-07	6.16467e-07	0.204072	0.122103	0.237812	30.8934	614.566	1027.13	1196.95	-59.1066	0.0000000E+000	0.0000000E+000	0.0000000E+000	59.1066	0.0000000E+000	0.0000000E+000	0.0000000E+000	-59.1066	0.0000000E+000	0.0000000E+000	0.0000000E+000	-30.8934	0.0000000E+000	0.0000000E+000	0.0000000E+000	30.8934	1.67131	59.1066	-1.50604e-06
25116.9	3.67926	2.61427	4.51347	-35.3954	1103.41	0.459511	-0.00154748	2.42384	0.813174	1	38	0.0147373	0.00326519	0	-1.44704e-05	0.47139	0.330886	9.1619	4.05748e-05	1.69378e-05	2.53723e-05	3.07483e-05	1.59679e-05	2.37754e-05	0.0527022	0.0777186	0.893847	3.02909e-07	6.0776e-07	9.97533e-07	6.30205e-07	4.75954e-07	7.15129e-07	0.180609	0.12833	0.221559	35.3954	813.174	1144.44	1403.92	-54.6046	0.0000000E+000	0.0000000E+000	0.0000000E+000	54.6046	0.0000000E+000	0.0000000E+000	0.0000000E+000	-54.6046	0.0000000E+000	0.0000000E+000	0.0000000E+000	-35.3954	0.0000000E+000	0.0000000E+000	0.0000000E+000	35.3954	1.40738	54.6046	-1.95614e-06
19948.8	3.77553	3.18181	4.93746	-40.1224	1104.55	0.459534	-0.00212843	2.50744	1.04129	1	38	0.0148018	0.00299786	0	-1.97429e-05	0.501589	0.209753	8.87444	2.97867e-05	2.3632e-05	2.92628e-05	2.24514e-05	4.16644e-05	2.1847e-05	0.0671887	0.0784885	0.975169	8.13043e-07	9.94441e-07	9.90708e-07	6.9832e-07	3.83616e-07	6.70645e-07	0.154871	0.130517	0.202533	40.1224	1041.29	1235.59	1615.85	-49.8776	0.0000000E+000	0.0000000E+000	0.0000000E+000	49.8776	0.0000000E+000	0.0000000E+000	0.0000000E+000	-49.8776	0.0000000E+000	0.0000000E+000	0.0000000E+000	-40.1224	0.0000000E+000	0.0000000E+000	0.0000000E+000	40.1224	1.1866	49.8776	-5.27251e-06
15847.7	3.89059	3.88721	5.49974	-44.9751	1105.7	0.459496	-0.0021005	2.58355	1.29065	1	38	0.0147822	0.0026878	0	-2.37663e-05	0.541022	0.295717	8.9245	1.91758e-05	2.44728e-05	1.10479e-05	5.12367e-05	3.21267e-05	3.42391e-05	0.0939047	0.108083	1.07758	1.88771e-06	7.02394e-07	7.57854e-07	4.30498e-07	7.99107e-07	7.94318e-07	0.128627	0.128515	0.181827	44.9751	1290.65	1291.77	1826.05	-45.0249	0.0000000E+000	0.0000000E+000	0.0000000E+000	45.0249	0.0000000E+000	0.0000000E+000	0.0000000E+000	-45.0249	0.0000000E+000	0.0000000E+000	0.0000000E+000	-44.9751	0.0000000E+000	0.0000000E+000	0.0000000E+000	44.9751	1.00087	45.0249	-4.02342e-06
12590.9	4.03117	4.77475	6.24888	-49.8266	1106.85	0.459489	-0.00243938	2.64735	1.54564	1	38	0.0148586	0.00237781	0	-2.69118e-05	0.438179	0.257935	9.13257	7.75102e-06	1.49543e-05	2.64211e-05	3.50018e-05	2.90906e-05	2.29473e-05	0.130156	0.158037	1.22791	2.66366e-06	8.35028e-07	9.7874e-07	5.86728e-07	2.06256e-07	2.23006e-07	0.103235	0.122277	0.160029	49.8266	1545.64	1304.93	2022.83	-40.1734	0.0000000E+000	0.0000000E+000	0.0000000E+000	40.1734	0.0000000E+000	0.0000000E+000	0.0000000E+000	-40.1734	0.0000000E+000	0.0000000E+000	0.0000000E+000	-49.8266	0.0000000E+000	0.0000000E+000	0.0000000E+000	49.8266	0.844269	40.1734	-3.14551e-06
10002.2	4.22272	5.86179	7.2244	-54.2317	1108	0.4595	-0.00242822	2.71452	1.7871	1	38	0.0144949	0.00200638	0	-2.63013e-05	0.428382	0.306646	9.25595	3.41825e-05	2.68233e-05	2.62693e-05	1.38854e-05	1.41114e-05	1.92689e-05	0.22419	0.189682	1.46639	4.11541e-06	5.41488e-07	6.58997e-07	1.23952e-06	4.83724e-07	5.97317e-07	0.0809075	0.112312	0.13842	54.2317	1787.1	1287.4	2202.53	-35.7683	0.0000000E+000	0.0000000E+000	0.0000000E+000	35.7683	0.0000000E+000	0.0000000E+000	0.0000000E+000	-35.7683	0.0000000E+000	0.0000000E+000	0.0000000E+000	-54.2317	0.0000000E+000	0.0000000E+000	0.0000000E+000	54.2317	0.720382	35.7683	6.10478e-07
7944	4.47742	7.20163	8.48003	-58.1298	1109.17	0.459383	-0.00205584	2.78195	2.0064	1	38	0.0145075	0.00171078	0	-2.90094e-05	0.501936	0.191485	8.98598	3.97179e-05	1.81375e-05	2.43031e-05	4.41921e-05	2.38081e-05	9.787e-06	0.304323	0.113352	1.68768	5.00811e-06	7.31729e-07	5.35268e-07	3.12253e-07	7.74013e-07	4.27297e-07	0.0622635	0.100147	0.117924	58.1298	2006.4	1247.43	2362.57	-31.8702	0.0000000E+000	0.0000000E+000	0.0000000E+000	31.8702	0.0000000E+000	0.0000000E+000	0.0000000E+000	-31.8702	0.0000000E+000	0.0000000E+000	0.0000000E+000	-58.1298	0.0000000E+000	0.0000000E+000	0.0000000E+000	58.1298	0.621723	31.8702	-2.70811e-06
6307.74	4.77875	8.83916	10.0482	-61.6028	1110.23	0.459385	-0.00251016	2.85454	2.20891	1	38	0.0143132	0.00142445	0	-2.87231e-05	0.597474	0.23123	9.27776	5.35134e-05	1.84727e-05	2.49556e-05	3.19283e-05	3.33359e-05	2.83646e-05	0.449074	0.0769704	2.01649	6.23846e-06	8.20962e-07	5.34901e-07	6.70557e-07	3.62716e-07	5.34787e-07	0.0473297	0.0875448	0.0995199	61.6028	2208.91	1194.21	2511.06	-28.3972	0.0000000E+000	0.0000000E+000	0.0000000E+000	28.3972	0.0000000E+000	0.0000000E+000	0.0000000E+000	-28.3972	0.0000000E+000	0.0000000E+000	0.0000000E+000	-61.6028	0.0000000E+000	0.0000000E+000	0.0000000E+000	61.6028	0.540634	28.3972	2.86301e-07
5011.6	5.18301	10.8724	12.0446	-64.5123	1111.35	0.459391	-0.00249713	2.92091	2.38004	1	38	0.0136271	0.00113139	0	-3.00863e-05	0.57973	0.294515	9.90564	3.8099e-05	2.6644e-05	2.92779e-05	3.51978e-05	2.85178e-05	2.35805e-05	0.615417	0.118045	2.53151	6.50924e-06	1.53429e-06	8.65353e-07	1.08684e-06	6.0983e-07	6.81028e-07	0.035727	0.0749445	0.0830247	64.5123	2380.04	1134.59	2636.64	-25.4877	0.0000000E+000	0.0000000E+000	0.0000000E+000	25.4877	0.0000000E+000	0.0000000E+000	0.0000000E+000	-25.4877	0.0000000E+000	0.0000000E+000	0.0000000E+000	-64.5123	0.0000000E+000	0.0000000E+000	0.0000000E+000	64.5123	0.476713	25.4877	-1.36315e-06
3981.28	5.71574	13.3312	14.5049	-66.7928	1112.45	0.459382	-0.00253252	2.99867	2.53303	1	38	0.0129595	0.000893457	0	-3.1633e-05	0.596478	0.366549	10.3636	4.48044e-05	2.9628e-05	2.57434e-05	2.30685e-05	3.26907e-05	1.94197e-05	0.653696	0.127225	3.23307	5.45687e-06	1.60191e-06	6.34134e-07	6.48263e-07	6.48097e-07	5.19772e-07	0.0271672	0.063364	0.0689424	66.7928	2533.03	1086.03	2756.03	-23.2072	0.0000000E+000	0.0000000E+000	0.0000000E+000	23.2072	0.0000000E+000	0.0000000E+000	0.0000000E+000	-23.2072	0.0000000E+000	0.0000000E+000	0.0000000E+000	-66.7928	0.0000000E+000	0.0000000E+000	0.0000000E+000	66.7928	0.428749	23.2072	-1.54667e-06
3163.04	6.37507	16.3372	17.537	-68.6834	1113.78	0.45939	-0.00180078	3.0799	2.6729	1	38	0.0139789	0.000797109	0	-3.25362e-05	0.492904	0.250284	9.43419	1.94928e-05	1.71928e-05	3.47983e-05	3.11172e-05	1.42634e-05	3.0206e-05	0.85642	0.0750659	3.63006	6.04652e-06	2.67691e-06	6.55466e-07	1.06281e-06	6.54201e-07	6.57404e-07	0.0207288	0.0531211	0.0570223	68.6834	2672.9	1043.01	2869.19	-21.3166	0.0000000E+000	0.0000000E+000	0.0000000E+000	21.3166	0.0000000E+000	0.0000000E+000	0.0000000E+000	-21.3166	0.0000000E+000	0.0000000E+000	0.0000000E+000	-68.6834	0.0000000E+000	0.0000000E+000	0.0000000E+000	68.6834	0.390217	21.3166	-9.03258e-07
2512.41	7.21735	19.9858	21.249	-70.1441	1114.88	0.459379	-0.00214338	3.16963	2.80396	1	38	0.0136057	0.000640299	0	-3.34087e-05	0.561442	0.277975	9.82266	2.63718e-05	2.68078e-05	2.53731e-05	3.40332e-05	2.46861e-05	3.00603e-05	0.858644	0.120479	4.48372	4.57245e-06	2.36263e-06	6.83979e-07	1.41781e-06	5.53325e-07	5.2385e-07	0.0159845	0.0442632	0.047061	70.1441	2803.96	1012.58	2981.19	-19.8559	0.0000000E+000	0.0000000E+000	0.0000000E+000	19.8559	0.0000000E+000	0.0000000E+000	0.0000000E+000	-19.8559	0.0000000E+000	0.0000000E+000	0.0000000E+000	-70.1441	0.0000000E+000	0.0000000E+000	0.0000000E+000	70.1441	0.361124	19.8559	-8.72457e-07
1995.64	8.26931	24.4299	25.7915	-71.2995	1115.99	0.459382	-0.00319165	3.2645	2.92892	1	38	0.0133576	0.000517906	0	-3.41579e-05	0.578022	0.198286	10.1784	3.86101e-05	2.50358e-05	3.03891e-05	1.28286e-05	1.84784e-05	3.77964e-05	0.863604	0.0974472	5.60704	3.35858e-06	2.03589e-06	7.13776e-07	1.71311e-06	4.12352e-07	4.41785e-07	0.0124313	0.0367256	0.0387725	71.2995	2928.92	991.414	3092.16	-18.7005	0.0000000E+000	0.0000000E+000	0.0000000E+000	18.7005	0.0000000E+000	0.0000000E+000	0.0000000E+000	-18.7005	0.0000000E+000	0.0000000E+000	0.0000000E+000	-71.2995	0.0000000E+000	0.0000000E+000	0.0000000E+000	71.2995	0.338492	18.7005	-7.49219e-07
1584.49	9.70759	29.7182	31.2635	-71.9101	1117.1	0.459385	-0.00275968	3.37993	3.05405	1	38	0.0131883	0.000421844	0	-3.52952e-05	0.592757	0.356244	10.4287	1.95398e-05	2.94139e-05	2.51435e-05	2.97731e-05	4.47673e-05	2.87618e-05	0.931746	0.159533	6.87655	2.89983e-06	1.93121e-06	5.43895e-07	1.31588e-06	4.69187e-07	6.36966e-07	0.00993197	0.0304051	0.0319862	71.9101	3054.05	997.62	3212.86	-18.0899	0.0000000E+000	0.0000000E+000	0.0000000E+000	18.0899	0.0000000E+000	0.0000000E+000	0.0000000E+000	-18.0899	0.0000000E+000	0.0000000E+000	0.0000000E+000	-71.9101	0.0000000E+000	0.0000000E+000	0.0000000E+000	71.9101	0.326655	18.0899	-1.13736e-06
1258.79	11.3674	36.3436	38.0799	-72.6316	1118.45	0.459398	-0.000661106	3.47887	3.16887	1	39	0.0147637	0.000387704	0	-3.56488e-05	0.678389	0.210662	8.43763	6.95633e-05	3.40613e-05	1.98548e-05	2.71775e-05	1.5679e-05	3.69295e-05	1.34525	0.0952866	3.34937	4.65957e-06	2.21434e-06	2.20254e-07	5.11014e-07	2.77714e-07	2.70108e-07	0.00783919	0.0250632	0.0262606	72.6316	3168.87	991.146	3320.25	-17.3684	0.0000000E+000	0.0000000E+000	0.0000000E+000	17.3684	0.0000000E+000	0.0000000E+000	0.0000000E+000	-17.3684	0.0000000E+000	0.0000000E+000	0.0000000E+000	-72.6316	0.0000000E+000	0.0000000E+000	0.0000000E+000	72.6316	0.312776	17.3684	-3.53519e-07
999.682	13.6555	44.0991	46.1649	-72.7947	1119.56	0.459375	-0.000339606	3.61018	3.2943	1	39	0.0140358	0.000304037	0	-3.58272e-05	0.541885	0.267004	8.90962	3.16405e-05	4.55381e-05	1.72247e-05	2.09424e-05	2.98666e-05	2.78706e-05	1.17706	0.177909	4.16199	2.7605e-06	2.04157e-06	2.73748e-07	8.02198e-07	2.52339e-07	3.0729e-07	0.0064074	0.0206921	0.0216615	72.7947	3294.3	1020.09	3448.63	-17.2053	0.0000000E+000	0.0000000E+000	0.0000000E+000	17.2053	0.0000000E+000	0.0000000E+000	0.0000000E+000	-17.2053	0.0000000E+000	0.0000000E+000	0.0000000E+000	-72.7947	0.0000000E+000	0.0000000E+000	0.0000000E+000	72.7947	0.309654	17.2054	-1.78432e-07
794.239	16.4468	53.6325	56.0976	-72.9515	1120.67	0.459385	-0.00051089	3.73629	3.41514	1	39	0.0136441	0.00024322	0	-3.57953e-05	0.582477	0.42178	9.32948	4.02697e-05	1.83517e-05	2.84897e-05	2.85027e-05	2.62973e-05	3.5643e-05	1.07062	0.147221	5.42206	1.90772e-06	1.17287e-06	3.25075e-07	1.17718e-06	2.62525e-07	2.77124e-07	0.00522627	0.0170427	0.0178261	72.9515	3415.14	1047.28	3572.11	-17.0485	0.0000000E+000	0.0000000E+000	0.0000000E+000	17.0485	0.0000000E+000	0.0000000E+000	0.0000000E+000	-17.0485	0.0000000E+000	0.0000000E+000	0.0000000E+000	-72.9515	0.0000000E+000	0.0000000E+000	0.0000000E+000	72.9515	0.306657	17.0485	3.19431e-08
631.01	19.8237	64.9957	67.9515	-73.0383	1121.77	0.459431	-0.000101415	3.88061	3.55034	1	39	0.0133563	0.000196556	0	-3.59821e-05	0.509379	0.264095	9.4032	2.07973e-05	2.25726e-05	3.6123e-05	2.37248e-05	2.72791e-05	1.90406e-05	1.08808	0.188195	6.71899	1.41529e-06	9.12167e-07	4.17228e-07	1.16961e-06	3.20334e-07	2.35274e-07	0.00429324	0.0140762	0.0147164	73.0383	3550.34	1082.85	3711.8	-16.9617	0.0000000E+000	0.0000000E+000	0.0000000E+000	16.9617	0.0000000E+000	0.0000000E+000	0.0000000E+000	-16.9617	0.0000000E+000	0.0000000E+000	0.0000000E+000	-73.0383	0.0000000E+000	0.0000000E+000	0.0000000E+000	73.0383	0.305	16.9617	-1.86804e-07
501.122	24.1548	78.7612	82.3819	-72.9501	1122.88	0.459402	5.40232e-05	4.03241	3.68574	1	39	0.0131884	0.000160088	0	-3.60058e-05	0.478309	0.170873	9.68073	2.10605e-05	1.92268e-05	1.86966e-05	3.08218e-05	2.48698e-05	2.53334e-05	1.07293	0.183734	8.1934	1.21886e-06	9.04166e-07	1.26789e-07	6.8905e-07	2.48305e-07	2.31866e-07	0.0035591	0.0116051	0.0121386	72.9501	3685.74	1130.36	3855.18	-17.0499	0.0000000E+000	0.0000000E+000	0.0000000E+000	17.0499	0.0000000E+000	0.0000000E+000	0.0000000E+000	-17.0499	0.0000000E+000	0.0000000E+000	0.0000000E+000	-72.9501	0.0000000E+000	0.0000000E+000	0.0000000E+000	72.9501	0.306684	17.0499	-2.37802e-08
398.089	29.6022	95.031	99.5348	-72.6981	1123.99	0.459407	-0.00024959	4.20702	3.83491	1	39	0.0130713	0.000131324	0	-3.60875e-05	0.483073	0.37704	9.95386	2.99387e-05	1.97026e-05	2.79928e-05	2.31401e-05	1.61589e-05	2.76555e-05	1.19489	0.489373	10.2699	1.11084e-06	7.15462e-07	3.04794e-07	6.19483e-07	2.00189e-07	3.81042e-07	0.00298796	0.00959213	0.0100467	72.6981	3834.91	1194.58	4016.66	-17.3019	0.0000000E+000	0.0000000E+000	0.0000000E+000	17.3019	0.0000000E+000	0.0000000E+000	0.0000000E+000	-17.3019	0.0000000E+000	0.0000000E+000	0.0000000E+000	-72.6981	0.0000000E+000	0.0000000E+000	0.0000000E+000	72.6981	0.311501	17.3019	-8.16475e-08
316.316	36.7793	114.993	120.731	-72.2636	1125.09	0.4594	0.000185233	4.37552	3.96945	1	39	0.0130107	0.000107766	0	-3.61414e-05	0.590249	0.308162	9.78247	2.90477e-05	3.52496e-05	2.87079e-05	3.37772e-05	3.1165e-05	2.26757e-05	1.19968	0.490882	12.4314	8.20215e-07	6.12508e-07	3.79502e-07	4.85276e-07	2.2778e-07	2.81708e-07	0.00252328	0.00788917	0.00828287	72.2636	3969.45	1269.59	4167.54	-17.7364	0.0000000E+000	0.0000000E+000	0.0000000E+000	17.7364	0.0000000E+000	0.0000000E+000	0.0000000E+000	-17.7364	0.0000000E+000	0.0000000E+000	0.0000000E+000	-72.2636	0.0000000E+000	0.0000000E+000	0.0000000E+000	72.2636	0.319841	17.7364	-5.39473e-08
251.206	44.3533	138.214	145.156	-72.2084	1126.19	0.45942	-0.000134408	4.58392	4.15595	1	39	0.0129609	8.92892e-05	0	-3.62951e-05	0.574601	0.356632	9.96131	2.07376e-05	2.65137e-05	3.70705e-05	1.51099e-05	2.14866e-05	3.47979e-05	1.14803	0.533999	14.9375	7.57501e-07	3.19247e-07	2.18886e-07	4.29023e-07	1.8251e-07	2.41175e-07	0.00210501	0.00655964	0.00688912	72.2084	4155.95	1333.65	4364.69	-17.7916	0.0000000E+000	0.0000000E+000	0.0000000E+000	17.7916	0.0000000E+000	0.0000000E+000	0.0000000E+000	-17.7916	0.0000000E+000	0.0000000E+000	0.0000000E+000	-72.2084	0.0000000E+000	0.0000000E+000	0.0000000E+000	72.2084	0.320903	17.7916	-1.53641e-07
199.553	55.5384	165.772	174.828	-71.4777	1127.3	0.459414	-0.000278666	4.81116	4.32563	1	39	0.0129092	7.38391e-05	0	-3.63075e-05	0.479006	0.378434	9.84185	1.46946e-05	3.22664e-05	2.18374e-05	3.08352e-05	2.07725e-05	1.57922e-05	1.05227	0.441757	17.7249	4.30816e-07	3.82669e-07	2.503e-07	2.37806e-07	2.19491e-07	2.04289e-07	0.00181707	0.00542361	0.0057199	71.4777	4325.63	1449.21	4561.94	-18.5223	0.0000000E+000	0.0000000E+000	0.0000000E+000	18.5223	0.0000000E+000	0.0000000E+000	0.0000000E+000	-18.5223	0.0000000E+000	0.0000000E+000	0.0000000E+000	-71.4777	0.0000000E+000	0.0000000E+000	0.0000000E+000	71.4777	0.335029	18.5223	-1.23848e-08
158.529	68.5738	199.687	211.133	-71.0472	1128.41	0.459405	-0.000241204	5.02761	4.49726	1	39	0.0129026	6.1111e-05	0	-3.63531e-05	0.56235	0.238801	9.84187	1.79757e-05	2.61556e-05	1.27661e-05	3.19847e-05	3.02953e-05	3.90966e-05	1.60301	0.578117	21.3524	4.67758e-07	3.84995e-07	1.90112e-07	3.59255e-07	3.35051e-07	4.90524e-07	0.00153831	0.00447957	0.00473634	71.0472	4497.26	1544.39	4755.04	-18.9528	0.0000000E+000	0.0000000E+000	0.0000000E+000	18.9528	0.0000000E+000	0.0000000E+000	0.0000000E+000	-18.9528	0.0000000E+000	0.0000000E+000	0.0000000E+000	-71.0472	0.0000000E+000	0.0000000E+000	0.0000000E+000	71.0472	0.343406	18.9528	-4.5653e-08
125.927	85.3861	239.561	254.323	-70.3825	1129.77	0.459393	-7.3168e-05	5.27577	4.68108	1	40	0.0131864	5.18488e-05	0	-3.64536e-05	0.679205	0.435714	15.2879	3.19269e-05	4.04421e-05	1.48471e-05	4.67203e-05	3.30613e-05	3.42902e-05	0.925911	0.148293	5.12957	3.85253e-07	1.77328e-07	2.65759e-08	2.16137e-07	2.13151e-08	4.01347e-08	0.00132013	0.00370377	0.003932	70.3825	4681.08	1668.47	4969.54	-19.6175	0.0000000E+000	0.0000000E+000	0.0000000E+000	19.6175	0.0000000E+000	0.0000000E+000	0.0000000E+000	-19.6175	0.0000000E+000	0.0000000E+000	0.0000000E+000	-70.3825	0.0000000E+000	0.0000000E+000	0.0000000E+000	70.3825	0.356427	19.6175	-1.00453e-07
99.9682	105.665	285.777	304.686	-69.7082	1130.85	0.459375	-3.54114e-05	5.57098	4.90095	1	40	0.0130393	4.27958e-05	0	-3.64411e-05	0.918363	0.355032	15.4408	5.57536e-05	4.4365e-05	5.17239e-05	3.65804e-05	5.02347e-05	3.49164e-05	0.923996	0.164579	6.24059	2.90155e-07	1.76858e-07	7.04335e-08	1.501e-07	5.99275e-08	5.8921e-08	0.00113822	0.00307838	0.00328207	69.7082	4900.95	1812.12	5225.24	-20.2918	0.0000000E+000	0.0000000E+000	0.0000000E+000	20.2918	0.0000000E+000	0.0000000E+000	0.0000000E+000	-20.2918	0.0000000E+000	0.0000000E+000	0.0000000E+000	-69.7082	0.0000000E+000	0.0000000E+000	0.0000000E+000	69.7082	0.369748	20.2918	1.25004e-08
79.4157	132.228	342.608	367.239	-68.8962	1131.92	0.459354	-4.2434e-05	5.84946	5.09112	1	40	0.0130116	3.54308e-05	0	-3.65066e-05	0.868089	0.543098	15.6013	4.22429e-05	2.31408e-05	4.99156e-05	4.70979e-05	5.04196e-05	3.59804e-05	0.971933	0.261185	7.68767	2.61827e-07	1.31371e-07	5.99243e-08	1.21086e-07	7.73288e-08	5.17213e-08	0.000980448	0.00254038	0.00272302	68.8962	5091.12	1964.89	5457.13	-21.1038	0.0000000E+000	0.0000000E+000	0.0000000E+000	21.1038	0.0000000E+000	0.0000000E+000	0.0000000E+000	-21.1038	0.0000000E+000	0.0000000E+000	0.0000000E+000	-68.8962	0.0000000E+000	0.0000000E+000	0.0000000E+000	68.8962	0.385945	21.1038	-6.55674e-08
63.0823	164.634	406.579	438.647	-67.9557	1133.01	0.459418	-0.000104555	6.20537	5.33124	1	40	0.0129391	2.94978e-05	0	-3.65374e-05	0.935157	0.467585	15.2428	4.19748e-05	5.75333e-05	2.60594e-05	5.3982e-05	4.52593e-05	4.14543e-05	1.01089	0.284073	8.86929	2.51889e-07	9.82504e-08	3.52867e-08	7.6771e-08	5.32305e-08	2.91022e-08	0.000855638	0.00211308	0.00227974	67.9557	5331.24	2158.75	5751.72	-22.0443	0.0000000E+000	0.0000000E+000	0.0000000E+000	22.0443	0.0000000E+000	0.0000000E+000	0.0000000E+000	-22.0443	0.0000000E+000	0.0000000E+000	0.0000000E+000	-67.9557	0.0000000E+000	0.0000000E+000	0.0000000E+000	67.9557	0.404925	22.0443	-3.07497e-08
50.1122	209.663	483.159	526.689	-66.5419	1134.07	0.459395	-5.04812e-05	6.57334	5.53169	1	40	0.0129183	2.45274e-05	0	-3.65718e-05	0.815721	0.270354	15.2023	1.75182e-05	5.52496e-05	3.73547e-05	3.99964e-05	4.40193e-05	3.91576e-05	0.85488	0.227068	10.7543	1.62924e-07	7.23487e-08	2.96039e-08	4.43691e-08	5.64494e-08	5.91762e-08	0.000755811	0.00174173	0.00189865	66.5419	5531.69	2400.43	6030.06	-23.4581	0.0000000E+000	0.0000000E+000	0.0000000E+000	23.4581	0.0000000E+000	0.0000000E+000	0.0000000E+000	-23.4581	0.0000000E+000	0.0000000E+000	0.0000000E+000	-66.5419	0.0000000E+000	0.0000000E+000	0.0000000E+000	66.5419	0.433942	23.4581	-3.44392e-08
39.8089	261.395	570.606	627.629	-65.3874	1135.14	0.459417	-9.8762e-05	7.00655	5.79122	1	40	0.0128996	2.05529e-05	0	-3.65816e-05	0.634728	0.449229	15.2368	1.35323e-05	3.82225e-05	3.02928e-05	4.90358e-05	1.67568e-05	3.08649e-05	0.991748	0.37594	12.7272	1.45382e-07	7.65054e-08	4.63154e-08	9.43022e-08	2.79119e-08	3.91799e-08	0.000663577	0.00144854	0.0015933	65.3874	5791.22	2652.96	6369.97	-24.6126	0.0000000E+000	0.0000000E+000	0.0000000E+000	24.6126	0.0000000E+000	0.0000000E+000	0.0000000E+000	-24.6126	0.0000000E+000	0.0000000E+000	0.0000000E+000	-65.3874	0.0000000E+000	0.0000000E+000	0.0000000E+000	65.3874	0.458101	24.6125	-9.81534e-09
31.6296	328.217	670.663	746.669	-63.9232	1136.18	0.459399	-6.71524e-05	7.50279	6.05305	1	40	0.0128879	1.72605e-05	0	-3.66054e-05	0.841158	0.484061	15.3288	3.04938e-05	5.44922e-05	4.18427e-05	3.6871e-05	4.64223e-05	3.15804e-05	1.18531	0.463156	14.9151	1.26863e-07	1.01557e-07	5.36508e-08	6.49475e-08	6.03129e-08	5.58159e-08	0.000588715	0.00120295	0.00133928	63.9232	6053.05	2962.32	6739.05	-26.0768	0.0000000E+000	0.0000000E+000	0.0000000E+000	26.0768	0.0000000E+000	0.0000000E+000	0.0000000E+000	-26.0768	0.0000000E+000	0.0000000E+000	0.0000000E+000	-63.9232	0.0000000E+000	0.0000000E+000	0.0000000E+000	63.9232	0.489392	26.0768	-2.3727e-08
25.1206	411.105	781.411	882.955	-62.2508	1137.25	0.459428	-0.000128547	8.10794	6.35027	1	40	0.0128655	1.45709e-05	0	-3.65946e-05	0.758171	0.300559	15.9524	3.53308e-05	3.09973e-05	4.3714e-05	1.60774e-05	4.31097e-05	4.04424e-05	1.22836	0.408152	18.2231	1.2684e-07	5.34664e-08	5.45229e-08	4.7863e-08	5.70892e-08	4.53728e-08	0.000527322	0.00100231	0.00113256	62.2508	6350.27	3340.92	7175.49	-27.7492	0.0000000E+000	0.0000000E+000	0.0000000E+000	27.7492	0.0000000E+000	0.0000000E+000	0.0000000E+000	-27.7492	0.0000000E+000	0.0000000E+000	0.0000000E+000	-62.2508	0.0000000E+000	0.0000000E+000	0.0000000E+000	62.2508	0.526107	27.7492	1.07291e-08
19.9553	517.998	908.901	1046.15	-60.3204	1138.32	0.459406	-6.46752e-05	8.77495	6.62357	1	40	0.0128762	1.23082e-05	0	-3.66405e-05	0.747395	0.362295	15.737	3.68026e-05	3.19348e-05	3.76143e-05	2.34729e-05	2.75225e-05	5.55652e-05	1.44291	0.495743	21.6109	1.06055e-07	5.7722e-08	6.06442e-08	6.04373e-08	5.07121e-08	5.84487e-08	0.000473307	0.000830484	0.000955889	60.3204	6623.57	3774.89	7623.74	-29.6796	0.0000000E+000	0.0000000E+000	0.0000000E+000	29.6796	0.0000000E+000	0.0000000E+000	0.0000000E+000	-29.6796	0.0000000E+000	0.0000000E+000	0.0000000E+000	-60.3204	0.0000000E+000	0.0000000E+000	0.0000000E+000	60.3204	0.569917	29.6796	-4.58473e-08
15.8469	651.45	1044.74	1231.2	-58.0542	1139.36	0.459368	-6.46938e-05	9.61325	6.92188	1	40	0.0128796	1.0461e-05	0	-3.66358e-05	0.826859	0.290922	15.6504	2.92348e-05	4.30962e-05	5.06973e-05	4.93952e-05	3.99861e-05	2.54229e-05	1.51479	0.624555	24.8712	6.65347e-08	8.85917e-08	4.76867e-08	6.92775e-08	4.90097e-08	3.41965e-08	0.000429756	0.000689203	0.000812214	58.0542	6921.88	4316.17	8157.31	-31.9458	0.0000000E+000	0.0000000E+000	0.0000000E+000	31.9458	0.0000000E+000	0.0000000E+000	0.0000000E+000	-31.9458	0.0000000E+000	0.0000000E+000	0.0000000E+000	-58.0542	0.0000000E+000	0.0000000E+000	0.0000000E+000	58.0542	0.623554	31.9458	4.68368e-09
12.5873	816.681	1189.01	1442.46	-55.5164	1140.82	0.459451	-7.566e-05	10.6342	7.22539	1	41	0.0129152	8.95355e-06	0	-3.67447e-05	0.755624	0.391058	13.8512	4.37167e-05	3.3019e-05	2.85113e-05	3.88189e-05	3.22298e-05	3.61662e-05	0.863071	0.107096	4.02865	6.08952e-08	3.49672e-08	1.59908e-08	2.3853e-08	6.29876e-09	4.94993e-09	0.000392502	0.000571445	0.000693258	55.5164	7225.39	4962.83	8765.61	-34.4836	0.0000000E+000	0.0000000E+000	0.0000000E+000	34.4836	0.0000000E+000	0.0000000E+000	0.0000000E+000	-34.4836	0.0000000E+000	0.0000000E+000	0.0000000E+000	-55.5164	0.0000000E+000	0.0000000E+000	0.0000000E+000	55.5164	0.68686	34.4836	-1.08902e-07
9.99682	1017.13	1326.27	1671.39	-52.5149	1141.88	0.45946	-8.67126e-05	12.004	7.55846	1	41	0.0128763	7.70391e-06	0	-3.67243e-05	0.949451	0.653319	19.1891	3.11077e-05	6.65707e-05	4.7659e-05	5.74e-05	3.59011e-05	4.32078e-05	0.968594	0.159413	6.30708	6.36827e-08	2.31815e-08	8.6372e-09	2.7207e-08	7.15059e-09	6.24402e-09	0.000364101	0.000474761	0.000598304	52.5149	7558.46	5796.69	9525.33	-37.4851	0.0000000E+000	0.0000000E+000	0.0000000E+000	37.4851	0.0000000E+000	0.0000000E+000	0.0000000E+000	-37.4851	0.0000000E+000	0.0000000E+000	0.0000000E+000	-52.5149	0.0000000E+000	0.0000000E+000	0.0000000E+000	52.5149	0.766913	37.4851	2.04005e-08
7.93956	1249.59	1457.99	1920.21	-49.4013	1143.09	0.459416	-7.94861e-05	13.7489	7.92647	1	41	0.0128623	6.69837e-06	0	-3.67598e-05	0.784595	0.464344	14.2225	3.99132e-05	3.08006e-05	4.1818e-05	2.70711e-05	4.96318e-05	3.81009e-05	0.858034	0.158284	5.4413	4.8583e-08	2.27767e-08	5.89864e-09	1.21647e-08	1.0106e-08	6.6188e-09	0.000338898	0.000395418	0.000520775	49.4013	7926.46	6793.49	10439.4	-40.5987	0.0000000E+000	0.0000000E+000	0.0000000E+000	40.5987	0.0000000E+000	0.0000000E+000	0.0000000E+000	-40.5987	0.0000000E+000	0.0000000E+000	0.0000000E+000	-49.4013	0.0000000E+000	0.0000000E+000	0.0000000E+000	49.4013	0.857064	40.5987	-3.55374e-08
6.31058	1528.01	1568.04	2189.42	-45.7408	1144.47	0.45949	-8.94018e-05	16.084	8.24991	1	41	0.0128658	5.87636e-06	0	-3.68362e-05	0.680996	0.271045	13.8784	3.66116e-05	2.68853e-05	3.73807e-05	3.59763e-05	3.89813e-05	2.5026e-05	0.891031	0.10628	6.12398	4.28741e-08	2.34441e-08	5.6484e-09	1.37678e-08	6.53694e-09	6.09316e-09	0.000318762	0.000327114	0.000456741	45.7408	8249.92	8039.29	11519.2	-44.2592	0.0000000E+000	0.0000000E+000	0.0000000E+000	44.2592	0.0000000E+000	0.0000000E+000	0.0000000E+000	-44.2592	0.0000000E+000	0.0000000E+000	0.0000000E+000	-45.7408	0.0000000E+000	0.0000000E+000	0.0000000E+000	45.7408	0.974469	44.2592	-7.63142e-08
5.01283	1838.05	1652.11	2471.42	-41.9504	1146.09	0.45942	-7.75266e-05	19.2175	8.58783	1	41	0.0128862	5.2141e-06	0	-3.68732e-05	0.431024	0.39093	11.1869	2.20333e-05	1.60583e-05	2.47823e-05	1.70304e-05	2.93336e-05	1.67151e-05	0.895639	0.17074	5.57531	4.0458e-08	1.8632e-08	3.67474e-09	1.09428e-08	4.74238e-09	2.38508e-09	0.00030093	0.000270487	0.000404626	41.9504	8587.83	9554.37	12846.7	-48.0496	0.0000000E+000	0.0000000E+000	0.0000000E+000	48.0496	0.0000000E+000	0.0000000E+000	0.0000000E+000	-48.0496	0.0000000E+000	0.0000000E+000	0.0000000E+000	-41.9504	0.0000000E+000	0.0000000E+000	0.0000000E+000	41.9504	1.11255	48.0496	-3.70892e-08
3.9819	2154.89	1693.36	2740.63	-38.1611	1148.01	0.459423	-7.9407e-05	23.6036	9.01113	1	41	0.0128776	4.69877e-06	0	-3.6844e-05	0.461341	0.265796	9.89128	3.49958e-05	2.26102e-05	1.52494e-05	1.06506e-05	2.64108e-05	1.65294e-05	0.794085	0.140308	5.59372	2.96969e-08	1.75808e-08	3.443e-09	9.87654e-09	6.90919e-09	3.65275e-09	0.000286896	0.00022545	0.00036488	38.1611	9011.13	11467.1	14584.1	-51.8389	0.0000000E+000	0.0000000E+000	0.0000000E+000	51.8389	0.0000000E+000	0.0000000E+000	0.0000000E+000	-51.8389	0.0000000E+000	0.0000000E+000	0.0000000E+000	-38.1611	0.0000000E+000	0.0000000E+000	0.0000000E+000	38.1611	1.27255	51.8389	2.92236e-08
3.16296	2495.32	1679.38	3007.82	-33.9411	1150.32	0.459423	-8.33925e-05	29.9624	9.34059	1	41	0.0128802	4.28223e-06	0	-3.69784e-05	0.427257	0.242752	8.85875	2.12553e-05	2.4213e-05	1.31303e-05	2.83135e-05	1.81871e-05	1.76471e-05	0.878985	0.176215	5.46932	3.28093e-08	1.51716e-08	2.22372e-09	6.0497e-09	4.22281e-09	3.88276e-09	0.000275819	0.00018563	0.000332467	33.9411	9340.59	13878.8	16729.2	-56.0589	0.0000000E+000	0.0000000E+000	0.0000000E+000	56.0589	0.0000000E+000	0.0000000E+000	0.0000000E+000	-56.0589	0.0000000E+000	0.0000000E+000	0.0000000E+000	-33.9411	0.0000000E+000	0.0000000E+000	0.0000000E+000	33.9411	1.48585	56.0589	-1.34334e-07
2.51085	2810.19	1632.01	3249.71	-30.1458	1153.13	0.459392	-8.13054e-05	38.8398	9.79566	1	41	0.0128744	3.9617e-06	0	-3.70426e-05	0.33633	0.169985	7.47712	2.21726e-05	2.0874e-05	1.4879e-05	1.05006e-05	1.32307e-05	1.07214e-05	0.952932	0.132874	5.14427	3.29887e-08	1.6303e-08	2.8345e-09	5.56195e-09	3.14919e-09	2.2008e-09	0.000266101	0.000154537	0.00030772	30.1458	9795.66	16867.3	19505.4	-59.8542	0.0000000E+000	0.0000000E+000	0.0000000E+000	59.8542	0.0000000E+000	0.0000000E+000	0.0000000E+000	-59.8542	0.0000000E+000	0.0000000E+000	0.0000000E+000	-30.1458	0.0000000E+000	0.0000000E+000	0.0000000E+000	30.1458	1.72192	59.8542	-6.42557e-08
1.99553	3101.88	1552.28	3468.61	-26.5848	1156.55	0.459416	-8.60291e-05	51.3798	10.2901	1	41	0.0128845	3.71461e-06	0	-3.70873e-05	0.410613	0.218229	6.54827	1.50357e-05	1.76214e-05	2.41951e-05	1.19873e-05	2.49382e-05	1.95022e-05	0.891172	0.145337	4.89325	2.71805e-08	1.44623e-08	5.6251e-09	7.11151e-09	5.76676e-09	3.40034e-09	0.000257819	0.000129021	0.0002883	26.5848	10290.1	20562.5	22993.6	-63.4152	0.0000000E+000	0.0000000E+000	0.0000000E+000	63.4152	0.0000000E+000	0.0000000E+000	0.0000000E+000	-63.4152	0.0000000E+000	0.0000000E+000	0.0000000E+000	-26.5848	0.0000000E+000	0.0000000E+000	0.0000000E+000	26.5848	1.99828	63.4152	-4.46576e-08
1.58533	3358.7	1437.02	3653.2	-23.1637	1162.08	0.459411	-8.70818e-05	69.8616	10.8098	1	42	0.0128769	3.52483e-06	0	-3.70867e-05	0.329164	0.12712	6.09773	1.23244e-05	1.98755e-05	1.64189e-05	1.19085e-05	1.71601e-05	1.69387e-05	0.78938	0.0234489	1.22479	2.47583e-08	1.16873e-08	4.83389e-10	4.82061e-09	7.34716e-10	3.95187e-10	0.000251665	0.000107675	0.000273732	23.1637	10809.8	25265.3	27480.7	-66.8363	0.0000000E+000	0.0000000E+000	0.0000000E+000	66.8363	0.0000000E+000	0.0000000E+000	0.0000000E+000	-66.8363	0.0000000E+000	0.0000000E+000	0.0000000E+000	-23.1637	0.0000000E+000	0.0000000E+000	0.0000000E+000	23.1637	2.33727	66.8363	5.87261e-10
1.25825	3580.16	1312.52	3813.17	-20.1334	1167.29	0.459409	-8.5783e-05	96.3709	11.4179	1	42	0.012862	3.37303e-06	0	-3.73755e-05	0.328451	0.232654	5.54854	1.99653e-05	1.7577e-05	1.62224e-05	1.59712e-05	7.15803e-06	1.87618e-05	0.779411	0.0378395	1.21544	2.35575e-08	1.07431e-08	6.62345e-10	4.3736e-09	4.74575e-10	8.04237e-10	0.000246224	9.02679e-05	0.000262249	20.1334	11417.9	31144.6	33171.5	-69.8666	0.0000000E+000	0.0000000E+000	0.0000000E+000	69.8666	0.0000000E+000	0.0000000E+000	0.0000000E+000	-69.8666	0.0000000E+000	0.0000000E+000	0.0000000E+000	-20.1334	0.0000000E+000	0.0000000E+000	0.0000000E+000	20.1334	2.7277	69.8666	-2.8882e-07
1.00006	3775.98	1189.47	3958.9	-17.485	1173.75	0.459433	-8.54333e-05	133.795	12.0781	1	42	0.0128734	3.25176e-06	0	-3.73345e-05	0.234932	0.183303	4.79074	1.05505e-05	1.1978e-05	9.84059e-06	8.92565e-06	1.39056e-05	1.40504e-05	0.758806	0.0343824	1.20544	2.19661e-08	1.05218e-08	1.94732e-10	3.85183e-09	5.83219e-10	5.79813e-10	0.000240925	7.58938e-05	0.000252596	17.485	12078.1	38342	40199.4	-72.515	0.0000000E+000	0.0000000E+000	0.0000000E+000	72.515	0.0000000E+000	0.0000000E+000	0.0000000E+000	-72.515	0.0000000E+000	0.0000000E+000	0.0000000E+000	-17.485	0.0000000E+000	0.0000000E+000	0.0000000E+000	17.485	3.1745	72.515	4.0964e-08
0.79456	3936.99	1067.74	4079.21	-15.174	1181.76	0.459432	-8.32538e-05	187.598	12.8531	1	42	0.0128655	3.15391e-06	0	-3.78251e-05	0.238039	0.100547	4.06891	1.07949e-05	8.83417e-06	1.75474e-05	1.48071e-05	9.15897e-06	6.29341e-06	0.768478	0.0225673	1.22001	2.18524e-08	9.93045e-09	2.09334e-10	3.29373e-09	4.29867e-10	3.02688e-10	0.000236599	6.41673e-05	0.000245145	15.174	12853.1	47392.1	49104.1	-74.826	0.0000000E+000	0.0000000E+000	0.0000000E+000	74.826	0.0000000E+000	0.0000000E+000	0.0000000E+000	-74.826	0.0000000E+000	0.0000000E+000	0.0000000E+000	-15.174	0.0000000E+000	0.0000000E+000	0.0000000E+000	15.174	3.68722	74.826	-4.90615e-07
0.630906	4079.7	950.46	4188.96	-13.1144	1191.76	0.459431	-8.3861e-05	265.413	13.664	1	42	0.01287	3.07236e-06	0	-3.78256e-05	0.203438	0.130876	3.69456	9.19252e-06	1.1009e-05	7.90983e-06	8.67389e-06	1.07646e-05	1.12469e-05	0.763029	0.066984	1.33558	2.10816e-08	9.65902e-09	6.31226e-10	3.24912e-09	4.624e-10	5.7996e-10	0.000232497	5.41654e-05	0.000238723	13.1144	13664	58650.6	60221.3	-76.8856	0.0000000E+000	0.0000000E+000	0.0000000E+000	76.8856	0.0000000E+000	0.0000000E+000	0.0000000E+000	-76.8856	0.0000000E+000	0.0000000E+000	0.0000000E+000	-13.1144	0.0000000E+000	0.0000000E+000	0.0000000E+000	13.1144	4.29235	76.8856	-4.77149e-10
0.500946	4199.83	840.182	4283.04	-11.3128	1204.27	0.459431	-8.48158e-05	378.143	14.5512	1	42	0.0128666	3.00407e-06	0	-3.79193e-05	0.200061	0.0838586	3.31749	7.62071e-06	1.4163e-05	1.06335e-05	1.0714e-05	5.20776e-06	1.03007e-05	0.76599	0.0408084	1.38636	2.10908e-08	8.72738e-09	5.41899e-10	2.67114e-09	4.50328e-10	4.10196e-10	0.000228943	4.58004e-05	0.000233479	11.3128	14551.2	72737.1	74178.4	-78.6872	0.0000000E+000	0.0000000E+000	0.0000000E+000	78.6872	0.0000000E+000	0.0000000E+000	0.0000000E+000	-78.6872	0.0000000E+000	0.0000000E+000	0.0000000E+000	-11.3128	0.0000000E+000	0.0000000E+000	0.0000000E+000	11.3128	4.99871	78.6872	-9.37068e-08
0.398211	4303.87	740.423	4367.09	-9.76143	1219.92	0.459433	-8.30794e-05	539.792	15.5168	1	42	0.0128704	2.94713e-06	0	-3.86484e-05	0.205079	0.0697725	2.89257	1.05517e-05	1.54607e-05	6.42501e-06	1.28712e-05	7.87654e-06	6.28224e-06	0.768908	0.0452514	1.37397	2.067e-08	8.89898e-09	3.13768e-10	2.5839e-09	3.73091e-10	2.45982e-10	0.00022567	3.88236e-05	0.000228985	9.76143	15516.8	90194.7	91519.7	-80.2386	0.0000000E+000	0.0000000E+000	0.0000000E+000	80.2386	0.0000000E+000	0.0000000E+000	0.0000000E+000	-80.2386	0.0000000E+000	0.0000000E+000	0.0000000E+000	-9.76143	0.0000000E+000	0.0000000E+000	0.0000000E+000	9.76143	5.81271	80.2386	-7.2906e-07
0.316193	4391.76	642.839	4438.56	-8.32747	1239.54	0.459425	-8.19682e-05	783.007	16.4243	1	42	0.0128657	2.89863e-06	0	-3.93989e-05	0.150301	0.0961896	2.60371	4.64651e-06	1.03934e-05	4.59901e-06	8.52024e-06	5.91096e-06	8.19624e-06	0.769454	0.0334323	1.35465	2.05415e-08	8.2522e-09	2.6671e-10	2.65337e-09	3.02426e-10	3.69252e-10	0.000222923	3.26301e-05	0.000225298	8.32747	16424.3	112208	113403	-81.6725	0.0000000E+000	0.0000000E+000	0.0000000E+000	81.6725	0.0000000E+000	0.0000000E+000	0.0000000E+000	-81.6725	0.0000000E+000	0.0000000E+000	0.0000000E+000	-8.32747	0.0000000E+000	0.0000000E+000	0.0000000E+000	8.32747	6.83181	81.6725	-7.50511e-07
0.251222	4466.06	556.476	4500.6	-7.1025	1264.16	0.459438	-8.07377e-05	1138.46	17.4048	1	42	0.0128684	2.85925e-06	0	-3.96792e-05	0.131425	0.0546931	2.33081	5.45435e-06	1.15202e-05	4.40712e-06	7.4196e-06	2.30744e-06	5.65523e-06	0.774331	0.0320767	1.41626	2.04502e-08	8.12546e-09	2.65957e-10	2.38997e-09	1.62384e-10	1.35494e-10	0.000220488	2.7473e-05	0.000222193	7.1025	17404.8	139684	140764	-82.8975	0.0000000E+000	0.0000000E+000	0.0000000E+000	82.8975	0.0000000E+000	0.0000000E+000	0.0000000E+000	-82.8975	0.0000000E+000	0.0000000E+000	0.0000000E+000	-7.1025	0.0000000E+000	0.0000000E+000	0.0000000E+000	7.1025	8.02562	82.8975	-2.80333e-07
0.199573	4522.56	474.256	4547.36	-5.98641	1295.07	0.459433	-8.31513e-05	1681.53	18.2899	1	42	0.0128593	2.82785e-06	0	-3.97802e-05	0.143261	0.0848469	2.04434	5.14776e-06	1.07297e-05	4.39524e-06	1.192e-05	2.90492e-06	3.70582e-06	0.786848	0.0296167	1.42378	2.04124e-08	8.51628e-09	3.49105e-10	2.37122e-09	1.13257e-10	3.17947e-10	0.000218709	2.29348e-05	0.000219908	5.98641	18289.9	174415	175371	-84.0136	0.0000000E+000	0.0000000E+000	0.0000000E+000	84.0136	0.0000000E+000	0.0000000E+000	0.0000000E+000	-84.0136	0.0000000E+000	0.0000000E+000	0.0000000E+000	-5.98641	0.0000000E+000	0.0000000E+000	0.0000000E+000	5.98641	9.53612	84.0136	-1.01012e-07
0.158419	4574.82	406.84	4592.87	-5.08196	1333.93	0.459441	-8.16812e-05	2469.39	19.3762	1	42	0.0128633	2.8007e-06	0	-4.035e-05	0.148489	0.0466685	1.87116	7.14825e-06	1.02437e-05	4.36779e-06	1.04701e-05	6.38693e-06	5.34795e-06	0.787594	0.0441438	1.40531	2.03797e-08	8.09195e-09	2.59562e-10	2.30721e-09	3.37018e-10	2.53941e-10	0.000216873	1.92866e-05	0.000217729	5.08196	19376.2	217881	218741	-84.918	0.0000000E+000	0.0000000E+000	0.0000000E+000	84.918	0.0000000E+000	0.0000000E+000	0.0000000E+000	-84.918	0.0000000E+000	0.0000000E+000	0.0000000E+000	-5.08196	0.0000000E+000	0.0000000E+000	0.0000000E+000	5.08196	11.2448	84.918	-5.69768e-07
0.125939	4616.8	342.767	4629.5	-4.24605	1382.73	0.459466	-7.88525e-05	3686.9	20.2112	1	42	0.012868	2.77956e-06	0	-4.18169e-05	0.14183	0.0491071	1.62981	4.50314e-06	1.1364e-05	3.86528e-06	1.00653e-05	5.92038e-06	3.56263e-06	0.778526	0.0412251	1.41648	2.00719e-08	7.76139e-09	2.41286e-10	2.21249e-09	2.67654e-10	1.40918e-10	0.000215413	1.5993e-05	0.000216006	4.24605	20211.2	272228	272977	-85.754	0.0000000E+000	0.0000000E+000	0.0000000E+000	85.754	0.0000000E+000	0.0000000E+000	0.0000000E+000	-85.754	0.0000000E+000	0.0000000E+000	0.0000000E+000	-4.24605	0.0000000E+000	0.0000000E+000	0.0000000E+000	4.24605	13.4692	85.754	-1.46686e-06
0.0999518	4648.8	288.233	4657.73	-3.54789	1444.13	0.459445	-8.1759e-05	5524.41	21.1556	1	42	0.0128645	2.76196e-06	0	-4.41714e-05	0.134521	0.0580141	1.52211	3.62602e-06	8.43605e-06	4.71216e-06	8.53488e-06	8.27526e-06	5.76572e-06	0.792048	0.0333219	1.44209	2.01921e-08	8.07942e-09	1.79606e-10	2.32165e-09	1.58054e-10	2.39554e-10	0.000214286	1.32861e-05	0.000214697	3.54789	21155.6	341211	341866	-86.4521	0.0000000E+000	0.0000000E+000	0.0000000E+000	86.4521	0.0000000E+000	0.0000000E+000	0.0000000E+000	-86.4521	0.0000000E+000	0.0000000E+000	0.0000000E+000	-3.54789	0.0000000E+000	0.0000000E+000	0.0000000E+000	3.54789	16.1286	86.4521	-2.35448e-06