File: Python/Data/RDE/240219-CV-EIS-Fe2Fe3_5mM-HCl1M-624RPM-Ag_AgCl_BLF8-GC-RDE_03_PEIS_C15.mpt
EC-Lab ASCII FILE
Nb header lines : 66

Potentio Electrochemical Impedance Spectroscopy

Run on channel : 15 (SN 19485)
User :
Electrode connection : standard
Potential control : Ewe
Ewe ctrl range : min = -1.00 V, max = 1.00 V
Ewe,I filtering : <None>
Safety Limits :
	Do not start on E overload
Channel : Floating
Acquisition started on : 02/19/2024 16:22:26.579
Loaded Setting File :  C:\Data\mathias\RDE-RPM-variation\240219-CV-EIS-Fe2Fe3_5mM-HCl1M-RPMtest-Ag_AgCl_BLF8-GC-RDE.mps
Saved on :
	File : 240219-CV-EIS-Fe2Fe3_5mM-HCl1M-624RPM-Ag_AgCl_BLF8-GC-RDE_03_PEIS_C15.mpr
	Directory : C:\Data\mathias\RDE-RPM-variation\
	Host : 192.168.0.1
Device : VMP-300 (SN 0826)
Address : USB
EC-Lab for windows v11.52 (software)
Internet server v11.52 (firmware)
Command interpretor v11.52 (firmware)
Electrode material :
Initial state :
Electrolyte :
Comments :
Cable : special
Electrode surface area : 0.001 cm²
Characteristic mass : 0.001 g
Equivalent Weight : 0.000 g/eq.
Density : 0.000 g/cm3
Volume (V) : 0.001 cm³
Record EIS quality indicators
Cycle Definition : Charge/Discharge alternance
Mode                Single sine
E (V)               0.0000
vs.                 Ref
tE (h:m:s)          0:00:0.0000
record              0
dI                  0.000
unit dI             mA
dt (s)              0.000
fi                  400.000
unit fi             kHz
ff                  100.000
unit ff             mHz
Nd                  10
Points              per decade
spacing             Logarithmic
Va (mV)             7.0
pw                  0.10
Na                  3
corr                0
E range min (V)     -1.000
E range max (V)     1.000
I Range             Auto
Bandwidth           8
nc cycles           2
goto Ns'            0
nr cycles           0
inc. cycle          1

freq/Hz	Re(Z)/Ohm	-Im(Z)/Ohm	|Z|/Ohm	Phase(Z)/deg	time/s	<Ewe>/V	<I>/mA	Cs/µF	Cp/µF	cycle number	I Range	|Ewe|/V	|I|/A	Ns	(Q-Qo)/mA.h	THD Ewe/%	NSD Ewe/%	NSR Ewe/%	|Ewe h2|/V	|Ewe h3|/V	|Ewe h4|/V	|Ewe h5|/V	|Ewe h6|/V	|Ewe h7|/V	THD I/%	NSD I/%	NSR I/%	|I h2|/A	|I h3|/A	|I h4|/A	|I h5|/A	|I h6|/A	|I h7|/A	Re(Y)/Ohm-1	Im(Y)/Ohm-1	|Y|/Ohm-1	Phase(Y)/deg	Re(C)/nF	Im(C)/nF	|C|/nF	Phase(C)/deg	Re(M)	Im(M)	|M|	Phase(M)/deg	Re(Permittivity)	Im(Permittivity)	|Permittivity|	Phase(Permittivity)/deg	Re(Resistivity)/Ohm.cm	Im(Resistivity)/Ohm.cm	|Resistivity|/Ohm.cm	Phase(Resistivity)/deg	Re(Conductivity)/mS/cm	Im(Conductivity)/mS/cm	|Conductivity|/mS/cm	Phase(Conductivity)/deg	Tan(Delta)	Loss Angle(Delta)/deg	dq/mA.h
399996	3.73305	1.30352	3.95409	-19.2484	362.417	-0.000102642	-0.296992	0.305243	0.0331734	1	38	0.00646303	0.00163452	0	-0.000188872	-1	-1	-1	0	0	0	0	0	0	-1	-1	-1	0	0	0	0	0	0	0.238765	0.0833731	0.252903	19.2484	33.1734	95.0024	100.628	-70.7516	0.0000000E+000	0.0000000E+000	0.0000000E+000	70.7516	0.0000000E+000	0.0000000E+000	0.0000000E+000	-70.7516	0.0000000E+000	0.0000000E+000	0.0000000E+000	-19.2484	0.0000000E+000	0.0000000E+000	0.0000000E+000	19.2484	2.86381	70.7516	-0.000188872
200434	3.59245	0.802348	3.68096	-12.59	365.858	-0.000116753	-0.296675	0.989659	0.0470206	1	38	0.0072387	0.00196652	0	-0.000470984	-1	-1	-1	0	0	0	0	0	0	-1	-1	-1	0	0	0	0	0	0	0.265136	0.0592161	0.271668	12.59	47.0206	210.531	215.718	-77.41	0.0000000E+000	0.0000000E+000	0.0000000E+000	77.41	0.0000000E+000	0.0000000E+000	0.0000000E+000	-77.41	0.0000000E+000	0.0000000E+000	0.0000000E+000	-12.59	0.0000000E+000	0.0000000E+000	0.0000000E+000	12.59	4.47743	77.41	-9.62228e-05
100431	3.57356	0.794124	3.66073	-12.5288	369.299	-0.000115858	-0.296761	1.99557	0.093909	1	38	0.00721558	0.00197108	0	-0.000753353	0.769454	0.543563	14.3984	2.46578e-05	2.29982e-05	2.89121e-05	1.42178e-05	2.25901e-05	1.05973e-05	0.0878612	0.106566	1.44667	7.07669e-07	7.02665e-07	9.45369e-07	6.15068e-07	5.1397e-07	5.86511e-07	0.266664	0.0592588	0.273169	12.5288	93.909	422.59	432.899	-77.4712	0.0000000E+000	0.0000000E+000	0.0000000E+000	77.4712	0.0000000E+000	0.0000000E+000	0.0000000E+000	-77.4712	0.0000000E+000	0.0000000E+000	0.0000000E+000	-12.5288	0.0000000E+000	0.0000000E+000	0.0000000E+000	12.5288	4.5	77.4712	-9.80493e-05
50326.6	3.64403	1.13735	3.81739	-17.3338	372.74	-0.000109129	-0.294383	2.78054	0.246821	1	38	0.00724526	0.00189796	0	-0.00103084	1.01054	0.828096	17.5002	3.72046e-05	2.7446e-05	2.98999e-05	2.29375e-05	2.14607e-05	2.86736e-05	0.0850033	0.110225	1.58801	5.34026e-07	6.4423e-07	8.75512e-07	5.04186e-07	7.79888e-07	2.7528e-07	0.250062	0.0780476	0.261959	17.3338	246.821	790.807	828.43	-72.6662	0.0000000E+000	0.0000000E+000	0.0000000E+000	72.6662	0.0000000E+000	0.0000000E+000	0.0000000E+000	-72.6662	0.0000000E+000	0.0000000E+000	0.0000000E+000	-17.3338	0.0000000E+000	0.0000000E+000	0.0000000E+000	17.3338	3.20397	72.6662	-9.15381e-05
25219	3.81566	1.91998	4.27148	-26.7108	376.181	-0.000126782	-0.293007	3.28697	0.664098	1	38	0.00726118	0.00169992	0	-0.00130803	0.79207	0.375658	14.283	2.07386e-05	2.63737e-05	2.88757e-05	1.78806e-05	1.7367e-05	1.45564e-05	0.0888365	0.066665	1.67431	9.52511e-07	7.51676e-07	3.95298e-07	5.3558e-07	3.0175e-07	4.33751e-07	0.209128	0.10523	0.234111	26.7108	664.098	1319.79	1477.45	-63.2892	0.0000000E+000	0.0000000E+000	0.0000000E+000	63.2892	0.0000000E+000	0.0000000E+000	0.0000000E+000	-63.2892	0.0000000E+000	0.0000000E+000	0.0000000E+000	-26.7108	0.0000000E+000	0.0000000E+000	0.0000000E+000	26.7108	1.98734	63.2892	-9.18394e-05
12637.3	4.13277	3.4553	5.38692	-39.8981	379.623	-0.000113547	-0.290133	3.64485	1.49958	1	38	0.0073802	0.00137002	0	-0.00157876	0.678216	0.475887	13.8927	2.15738e-05	1.42966e-05	2.30225e-05	1.78516e-05	1.35216e-05	1.40145e-05	0.119575	0.119588	2.10719	7.19399e-07	6.3126e-07	7.96665e-07	2.37946e-07	6.62662e-07	6.98074e-07	0.142417	0.119071	0.185635	39.8981	1499.58	1793.6	2337.89	-50.1019	0.0000000E+000	0.0000000E+000	0.0000000E+000	50.1019	0.0000000E+000	0.0000000E+000	0.0000000E+000	-50.1019	0.0000000E+000	0.0000000E+000	0.0000000E+000	-39.8981	0.0000000E+000	0.0000000E+000	0.0000000E+000	39.8981	1.19607	50.1019	-8.88205e-05
6332.63	4.76207	6.31789	7.91157	-52.9931	383.183	-0.000226192	-0.293058	3.97799	2.53678	1	38	0.00706506	0.000893004	0	-0.00185973	0.847227	0.460193	14.6672	1.11793e-05	2.61602e-05	2.72725e-05	2.80427e-05	2.2929e-05	1.07466e-05	0.232445	0.082768	3.22091	9.16817e-07	1.30474e-06	6.11303e-07	6.18369e-07	7.35573e-07	4.04314e-07	0.0760799	0.100936	0.126397	52.9931	2536.78	1912.08	3176.68	-37.0069	0.0000000E+000	0.0000000E+000	0.0000000E+000	37.0069	0.0000000E+000	0.0000000E+000	0.0000000E+000	-37.0069	0.0000000E+000	0.0000000E+000	0.0000000E+000	-52.9931	0.0000000E+000	0.0000000E+000	0.0000000E+000	52.9931	0.753743	37.0069	-9.6884e-05
3171.96	6.14781	11.5215	13.0591	-61.9158	386.516	-0.000232717	-0.291077	4.35497	3.38981	1	38	0.00647589	0.000495892	0	-0.00212658	0.809142	0.624277	15.6142	1.90961e-05	1.3226e-05	2.45291e-05	2.14497e-05	1.83804e-05	2.08377e-05	0.507557	0.238003	5.79355	1.6582e-06	1.09521e-06	5.85597e-07	1.10811e-06	4.61838e-07	5.35598e-07	0.0360491	0.0675588	0.076575	61.9158	3389.81	1808.79	3842.2	-28.0842	0.0000000E+000	0.0000000E+000	0.0000000E+000	28.0842	0.0000000E+000	0.0000000E+000	0.0000000E+000	-28.0842	0.0000000E+000	0.0000000E+000	0.0000000E+000	-61.9158	0.0000000E+000	0.0000000E+000	0.0000000E+000	61.9158	0.533596	28.0842	-8.87727e-05
1589.49	8.99849	20.5279	22.4136	-66.3296	390.055	-0.000264052	-0.290898	4.87772	4.09152	1	38	0.00663704	0.000296117	0	-0.0024098	0.936616	0.709334	15.6133	2.63294e-05	1.69563e-05	2.92377e-05	2.3477e-05	1.56837e-05	3.28899e-05	0.658818	0.276532	9.76373	9.01885e-07	9.91806e-07	6.4306e-07	7.10862e-07	7.33804e-07	3.53025e-07	0.0179121	0.0408623	0.0446158	66.3296	4091.52	1793.53	4467.36	-23.6704	0.0000000E+000	0.0000000E+000	0.0000000E+000	23.6704	0.0000000E+000	0.0000000E+000	0.0000000E+000	-23.6704	0.0000000E+000	0.0000000E+000	0.0000000E+000	-66.3296	0.0000000E+000	0.0000000E+000	0.0000000E+000	66.3296	0.438354	23.6704	-8.84718e-05
796.787	15.0495	36.2469	39.247	-67.4521	393.629	-0.000211653	-0.285476	5.5107	4.70041	1	39	0.00698498	0.000177975	0	-0.00269066	0.72155	0.374846	15.8103	1.60923e-05	2.08752e-05	1.85209e-05	1.69746e-05	2.22355e-05	1.70897e-05	0.708471	0.152065	7.7535	5.06255e-07	8.13604e-07	3.23507e-07	5.07639e-07	3.57215e-07	2.8232e-07	0.00977032	0.023532	0.0254797	67.4521	4700.41	1951.58	5089.46	-22.5479	0.0000000E+000	0.0000000E+000	0.0000000E+000	22.5479	0.0000000E+000	0.0000000E+000	0.0000000E+000	-22.5479	0.0000000E+000	0.0000000E+000	0.0000000E+000	-67.4521	0.0000000E+000	0.0000000E+000	0.0000000E+000	67.4521	0.415193	22.5479	-8.64839e-05
399.106	26.5461	61.3041	66.8049	-66.5863	396.953	-0.000217264	-0.287168	6.50492	5.47779	1	39	0.0065735	9.83985e-05	0	-0.00295155	1.06449	0.384179	15.97	3.51419e-05	2.10944e-05	2.79403e-05	2.54073e-05	2.16109e-05	2.79792e-05	1.12911	0.343452	13.3781	4.90855e-07	4.03768e-07	4.81081e-07	6.36767e-07	2.04054e-07	3.27191e-07	0.00594818	0.0137364	0.014969	66.5863	5477.79	2372.01	5969.3	-23.4137	0.0000000E+000	0.0000000E+000	0.0000000E+000	23.4137	0.0000000E+000	0.0000000E+000	0.0000000E+000	-23.4137	0.0000000E+000	0.0000000E+000	0.0000000E+000	-66.5863	0.0000000E+000	0.0000000E+000	0.0000000E+000	66.5863	0.433023	23.4137	-8.69798e-05
199.936	47.9538	101.85	112.574	-64.7876	400.268	-0.000213144	-0.284587	7.81571	6.39751	1	39	0.00648914	5.76432e-05	0	-0.00321113	0.905125	0.523506	16.1257	2.5352e-05	2.36454e-05	1.28761e-05	1.61544e-05	2.45851e-05	2.7091e-05	1.33904	0.734796	22.2165	3.39702e-07	2.73451e-07	1.99638e-07	3.61755e-07	2.76876e-07	3.04241e-07	0.00378395	0.00803679	0.00888303	64.7876	6397.51	3012.13	7071.14	-25.2124	0.0000000E+000	0.0000000E+000	0.0000000E+000	25.2124	0.0000000E+000	0.0000000E+000	0.0000000E+000	-25.2124	0.0000000E+000	0.0000000E+000	0.0000000E+000	-64.7876	0.0000000E+000	0.0000000E+000	0.0000000E+000	64.7876	0.470829	25.2124	-8.674e-05
100.224	87.616	163.687	185.661	-61.8415	403.582	-0.000220563	-0.28339	9.70133	7.54082	1	39	0.00643289	3.46485e-05	0	-0.00347019	0.976683	0.821118	16.2502	2.31421e-05	3.02484e-05	1.19976e-05	1.95738e-05	2.97414e-05	2.49903e-05	1.97619	1.38752	37.1169	1.67403e-07	1.89198e-07	1.52851e-07	3.78575e-07	3.32147e-07	3.17636e-07	0.00254179	0.00474867	0.00538615	61.8415	7540.82	4036.33	8553.13	-28.1586	0.0000000E+000	0.0000000E+000	0.0000000E+000	28.1586	0.0000000E+000	0.0000000E+000	0.0000000E+000	-28.1586	0.0000000E+000	0.0000000E+000	0.0000000E+000	-61.8415	0.0000000E+000	0.0000000E+000	0.0000000E+000	61.8415	0.535264	28.1586	-8.60784e-05
50.2089	150.966	256.56	297.681	-59.5264	407.065	-0.00021965	-0.28397	12.3552	9.17755	1	40	0.00648505	2.17852e-05	0	-0.00373909	1.73207	0.971051	30.464	3.46348e-05	2.4431e-05	3.28748e-05	2.89413e-05	4.42269e-05	7.72564e-05	0.634537	0.402507	12.0943	4.63466e-08	2.99121e-08	4.47236e-08	4.27505e-08	4.6115e-08	9.62154e-08	0.00170364	0.00289526	0.0033593	59.5264	9177.55	5400.3	10648.5	-30.4736	0.0000000E+000	0.0000000E+000	0.0000000E+000	30.4736	0.0000000E+000	0.0000000E+000	0.0000000E+000	-30.4736	0.0000000E+000	0.0000000E+000	0.0000000E+000	-59.5264	0.0000000E+000	0.0000000E+000	0.0000000E+000	59.5264	0.588424	30.4736	-8.34805e-05
25.1691	256.476	390.249	466.984	-56.6866	410.242	-0.000237862	-0.284356	16.2036	11.3159	1	40	0.00648266	1.3882e-05	0	-0.00398779	1.96842	0.633279	30.9795	4.66227e-05	4.4523e-05	3.57592e-05	5.24722e-05	6.35778e-05	5.36205e-05	1.39727	0.472818	19.4184	1.15055e-07	7.39635e-08	4.86535e-08	7.56351e-08	8.06926e-08	5.72213e-08	0.0011761	0.00178952	0.0021414	56.6866	11315.9	7436.95	13541	-33.3134	0.0000000E+000	0.0000000E+000	0.0000000E+000	33.3134	0.0000000E+000	0.0000000E+000	0.0000000E+000	-33.3134	0.0000000E+000	0.0000000E+000	0.0000000E+000	-56.6866	0.0000000E+000	0.0000000E+000	0.0000000E+000	56.6866	0.657212	33.3134	-8.33775e-05
12.6144	413.607	570.576	704.718	-54.0619	413.519	-0.000210422	-0.28405	22.1127	14.4957	1	40	0.00643874	9.13663e-06	0	-0.00424374	1.22326	0.532334	22.3413	1.56795e-05	3.42604e-05	3.1103e-05	3.95838e-05	2.86305e-05	2.43197e-05	2.09801	2.62713	22.9755	1.25023e-07	7.50173e-08	6.93061e-08	7.05339e-08	4.13385e-08	4.98964e-08	0.000832831	0.0011489	0.00141901	54.0619	14495.7	10507.8	17903.6	-35.9381	0.0000000E+000	0.0000000E+000	0.0000000E+000	35.9381	0.0000000E+000	0.0000000E+000	0.0000000E+000	-35.9381	0.0000000E+000	0.0000000E+000	0.0000000E+000	-54.0619	0.0000000E+000	0.0000000E+000	0.0000000E+000	54.0619	0.724894	35.9381	-9.08678e-05
6.31569	661.567	797.632	1036.29	-50.3272	417.167	-0.000187737	-0.284511	31.5934	18.7173	1	40	0.00644066	6.21514e-06	0	-0.00452902	1.26867	0.337253	21.4304	4.11984e-05	2.2997e-05	4.15153e-05	2.54406e-05	3.13882e-05	2.24085e-05	2.88401	5.95894	29.9595	1.24615e-07	5.99492e-08	7.22872e-08	4.76878e-08	5.4564e-08	2.24913e-08	0.000616048	0.000742752	0.000964985	50.3272	18717.3	15524.4	24317.6	-39.6728	0.0000000E+000	0.0000000E+000	0.0000000E+000	39.6728	0.0000000E+000	0.0000000E+000	0.0000000E+000	-39.6728	0.0000000E+000	0.0000000E+000	0.0000000E+000	-50.3272	0.0000000E+000	0.0000000E+000	0.0000000E+000	50.3272	0.829414	39.6728	-0.000107987
3.16616	940.755	1189.56	1516.6	-51.6615	423.011	-0.000210266	-0.285371	42.2573	25.9975	1	40	0.00643275	4.24157e-06	0	-0.00498693	0.661051	0.500404	12.9794	2.30447e-05	1.45412e-05	1.56833e-05	1.354e-05	1.03964e-05	1.13926e-05	4.9801	17.5826	26.6573	1.94617e-07	5.04403e-08	3.20801e-08	2.99457e-08	3.46293e-08	3.62336e-08	0.000409012	0.000517184	0.000659371	51.6615	25997.5	20560	33144.9	-38.3385	0.0000000E+000	0.0000000E+000	0.0000000E+000	38.3385	0.0000000E+000	0.0000000E+000	0.0000000E+000	-38.3385	0.0000000E+000	0.0000000E+000	0.0000000E+000	-51.6615	0.0000000E+000	0.0000000E+000	0.0000000E+000	51.6615	0.790845	38.3385	-0.00018084
1.5871	1449.8	1518.32	2099.34	-46.3225	433.443	-0.000201698	-0.283405	66.0467	34.5474	1	40	0.00642492	3.06045e-06	0	-0.00580714	0.577842	0.248238	9.47723	1.62091e-05	1.22402e-05	8.35902e-06	1.18262e-05	1.63198e-05	1.58427e-05	9.07443	31.0948	28.6437	2.54566e-07	5.97765e-08	7.346e-08	3.90454e-08	3.78526e-08	4.72877e-08	0.00032896	0.000344508	0.00047634	46.3225	34547.4	32988.2	47767.6	-43.6775	0.0000000E+000	0.0000000E+000	0.0000000E+000	43.6775	0.0000000E+000	0.0000000E+000	0.0000000E+000	-43.6775	0.0000000E+000	0.0000000E+000	0.0000000E+000	-46.3225	0.0000000E+000	0.0000000E+000	0.0000000E+000	46.3225	0.954868	43.6775	-0.000331108
0.79456	1125.88	3465.36	3643.67	-72.0013	453.119	-0.000214999	-0.283817	57.8023	52.2834	1	40	0.00643165	1.76516e-06	0	-0.00735312	0.366441	0.232709	6.52484	9.42806e-06	1.05751e-05	5.43085e-06	4.2072e-06	8.01958e-06	1.30606e-05	25.0338	49.3411	48.4349	3.25136e-07	1.38764e-07	6.90647e-08	1.59479e-07	9.1434e-08	8.35241e-08	8.48035e-05	0.000261018	0.000274449	72.0013	52283.4	16986.6	54973.7	-17.9987	0.0000000E+000	0.0000000E+000	0.0000000E+000	17.9987	0.0000000E+000	0.0000000E+000	0.0000000E+000	-17.9987	0.0000000E+000	0.0000000E+000	0.0000000E+000	-72.0013	0.0000000E+000	0.0000000E+000	0.0000000E+000	72.0013	0.324895	17.9987	-0.000630875
0.398211	2488.87	2216.31	3332.64	-41.6847	491.247	-0.000211964	-0.283542	180.333	79.7554	1	40	0.00643254	1.93016e-06	0	-0.0103526	0.299834	0.171586	4.49609	5.27278e-06	4.28464e-06	8.23895e-06	1.08808e-05	7.42811e-06	6.41019e-06	49.2841	31.286	47.3254	6.23148e-07	3.19823e-07	3.884e-07	3.26365e-07	1.31893e-07	7.816e-08	0.000224091	0.000199551	0.000300062	41.6847	79755.4	89563.5	119927	-48.3153	0.0000000E+000	0.0000000E+000	0.0000000E+000	48.3153	0.0000000E+000	0.0000000E+000	0.0000000E+000	-48.3153	0.0000000E+000	0.0000000E+000	0.0000000E+000	-41.6847	0.0000000E+000	0.0000000E+000	0.0000000E+000	41.6847	1.12298	48.3153	-0.00123002
0.199573	6351.07	2425.33	6798.4	-20.9007	566.399	-0.000233464	-0.283437	328.811	41.848	1	40	0.00643382	9.46372e-07	0	-0.0162622	0.244516	0.140455	3.46044	4.05281e-06	8.94714e-06	5.51919e-06	7.77903e-06	4.45077e-06	2.72421e-06	111.978	69.4985	125.14	2.93095e-07	5.8411e-07	3.53699e-07	3.07669e-07	5.1806e-08	1.18652e-07	0.000137415	5.24756e-05	0.000147093	20.9007	41848	109585	117303	-69.0993	0.0000000E+000	0.0000000E+000	0.0000000E+000	69.0993	0.0000000E+000	0.0000000E+000	0.0000000E+000	-69.0993	0.0000000E+000	0.0000000E+000	0.0000000E+000	-20.9007	0.0000000E+000	0.0000000E+000	0.0000000E+000	20.9007	2.61864	69.0993	-0.00243031
0.0999518	5310.94	368.82	5323.73	-3.97255	715.455	-0.000208595	-0.282548	4317.33	20.7211	1	40	0.00643231	1.20823e-06	0	-0.0279606	0.170098	0.193159	2.50446	2.75485e-06	5.66247e-06	3.34759e-06	5.8611e-06	3.20597e-06	2.95826e-06	70.3812	39.4576	121.991	3.86967e-07	3.46282e-07	1.03596e-07	2.50689e-07	3.36957e-07	2.3671e-07	0.000187387	1.30132e-05	0.000187838	3.97255	20721.1	298380	299098	-86.0275	0.0000000E+000	0.0000000E+000	0.0000000E+000	86.0275	0.0000000E+000	0.0000000E+000	0.0000000E+000	-86.0275	0.0000000E+000	0.0000000E+000	0.0000000E+000	-3.97255	0.0000000E+000	0.0000000E+000	0.0000000E+000	3.97255	14.3998	86.0275	-0.00481523
252347	3.60522	0.928513	3.72286	-14.4425	719.991	-0.000103965	-0.284986	0.679256	0.0422527	2	38	0.00720734	0.00193597	0	-0.0283244	-1	-1	-1	0	0	0	0	0	0	-1	-1	-1	0	0	0	0	0	0	0.260122	0.0669936	0.26861	14.4425	42.2527	164.058	169.412	-75.5575	0.0000000E+000	0.0000000E+000	0.0000000E+000	75.5575	0.0000000E+000	0.0000000E+000	0.0000000E+000	-75.5575	0.0000000E+000	0.0000000E+000	0.0000000E+000	-14.4425	0.0000000E+000	0.0000000E+000	0.0000000E+000	14.4425	3.88279	75.5575	-9.20921e-05
126447	3.5514	0.784921	3.63711	-12.463	723.432	-0.00011515	-0.281832	1.60356	0.0746834	2	38	0.00723113	0.00198816	0	-0.0286022	-1	-1	-1	0	0	0	0	0	0	-1	-1	-1	0	0	0	0	0	0	0.268465	0.0593354	0.274944	12.463	74.6834	337.907	346.062	-77.537	0.0000000E+000	0.0000000E+000	0.0000000E+000	77.537	0.0000000E+000	0.0000000E+000	0.0000000E+000	-77.537	0.0000000E+000	0.0000000E+000	0.0000000E+000	-12.463	0.0000000E+000	0.0000000E+000	0.0000000E+000	12.463	4.52453	77.537	-9.0438e-05
63362.9	3.60281	1.03674	3.74901	-16.0536	726.874	-0.000121059	-0.283327	2.42279	0.185277	2	38	0.0072343	0.00192966	0	-0.0288763	0.863937	0.576021	14.2879	1.50183e-05	1.35626e-05	4.20872e-05	2.24067e-05	1.89784e-05	2.28195e-05	0.0985093	0.09482	1.52759	5.50353e-07	8.0506e-07	9.57769e-07	5.50895e-07	4.62849e-07	7.5096e-07	0.256336	0.0737626	0.266737	16.0536	185.277	643.864	669.991	-73.9464	0.0000000E+000	0.0000000E+000	0.0000000E+000	73.9464	0.0000000E+000	0.0000000E+000	0.0000000E+000	-73.9464	0.0000000E+000	0.0000000E+000	0.0000000E+000	-16.0536	0.0000000E+000	0.0000000E+000	0.0000000E+000	16.0536	3.47514	73.9464	-9.06082e-05
31751	3.73904	1.69981	4.10728	-24.447	730.313	-0.000126837	-0.283854	2.94892	0.505071	2	38	0.00727719	0.00177178	0	-0.0291441	0.818624	0.463565	13.9303	3.24385e-05	2.27622e-05	2.06072e-05	1.30061e-05	2.12336e-05	1.95921e-05	0.0942605	0.112518	1.60741	4.96957e-07	7.12085e-07	6.95777e-07	4.39414e-07	9.37362e-07	5.58159e-07	0.221641	0.10076	0.24347	24.447	505.071	1111	1220.41	-65.553	0.0000000E+000	0.0000000E+000	0.0000000E+000	65.553	0.0000000E+000	0.0000000E+000	0.0000000E+000	-65.553	0.0000000E+000	0.0000000E+000	0.0000000E+000	-24.447	0.0000000E+000	0.0000000E+000	0.0000000E+000	24.447	2.19969	65.553	-8.85368e-05
15912.6	4.00916	3.02802	5.02416	-37.0628	733.754	-0.000120183	-0.286074	3.30309	1.1998	2	38	0.00726884	0.00144678	0	-0.0294115	0.780975	0.640985	14.1049	1.90354e-05	2.0191e-05	1.97961e-05	2.77588e-05	2.21931e-05	2.05678e-05	0.137937	0.167864	1.97771	7.81736e-07	6.64734e-07	3.58457e-07	1.12406e-06	6.10464e-07	8.13158e-07	0.158827	0.119958	0.199038	37.0628	1199.8	1588.56	1990.74	-52.9372	0.0000000E+000	0.0000000E+000	0.0000000E+000	52.9372	0.0000000E+000	0.0000000E+000	0.0000000E+000	-52.9372	0.0000000E+000	0.0000000E+000	0.0000000E+000	-37.0628	0.0000000E+000	0.0000000E+000	0.0000000E+000	37.0628	1.32402	52.9372	-8.8538e-05
7967.67	4.56173	5.52839	7.16746	-50.4724	737.223	-0.000248636	-0.284483	3.61319	2.1496	2	38	0.00727335	0.00101477	0	-0.0296819	0.773471	0.455221	14.1673	2.06515e-05	2.64067e-05	1.70253e-05	2.25719e-05	2.26508e-05	1.10029e-05	0.2031	0.182993	2.79505	1.36454e-06	8.22109e-07	7.41662e-07	4.3789e-07	5.41239e-07	4.82562e-07	0.0887972	0.107614	0.139519	50.4724	2149.6	1773.73	2786.92	-39.5276	0.0000000E+000	0.0000000E+000	0.0000000E+000	39.5276	0.0000000E+000	0.0000000E+000	0.0000000E+000	-39.5276	0.0000000E+000	0.0000000E+000	0.0000000E+000	-50.4724	0.0000000E+000	0.0000000E+000	0.0000000E+000	50.4724	0.825147	39.5276	-9.06178e-05
3993.72	5.70147	10.1055	11.6029	-60.5685	740.503	-0.000255291	-0.286247	3.94354	2.99134	2	38	0.00724722	0.000624605	0	-0.0299373	0.727715	0.29526	14.046	1.99373e-05	1.56906e-05	1.43133e-05	2.68062e-05	2.04541e-05	1.99604e-05	0.37546	0.11506	4.47119	1.77575e-06	9.21548e-07	4.84956e-07	7.21985e-07	3.72699e-07	5.60558e-07	0.0423501	0.0750626	0.0861854	60.5685	2991.34	1687.7	3434.6	-29.4315	0.0000000E+000	0.0000000E+000	0.0000000E+000	29.4315	0.0000000E+000	0.0000000E+000	0.0000000E+000	-29.4315	0.0000000E+000	0.0000000E+000	0.0000000E+000	-60.5685	0.0000000E+000	0.0000000E+000	0.0000000E+000	60.5685	0.564197	29.4315	-8.76381e-05
2001.92	8.0848	18.095	19.819	-65.925	743.817	-0.000266717	-0.282819	4.39354	3.66242	2	38	0.00658998	0.000332508	0	-0.0301984	0.842377	0.484175	15.5704	1.05615e-05	2.60046e-05	1.59496e-05	1.87971e-05	2.65055e-05	2.3729e-05	0.719508	0.234521	8.61065	1.07102e-06	1.31379e-06	6.5291e-07	1.11623e-06	3.45705e-07	7.16517e-07	0.0205828	0.0460675	0.0504566	65.925	3662.42	1636.36	4011.36	-24.075	0.0000000E+000	0.0000000E+000	0.0000000E+000	24.075	0.0000000E+000	0.0000000E+000	0.0000000E+000	-24.075	0.0000000E+000	0.0000000E+000	0.0000000E+000	-65.925	0.0000000E+000	0.0000000E+000	0.0000000E+000	65.925	0.446797	24.075	-8.68247e-05
1002.75	13.2771	31.9304	34.5808	-67.4218	747.392	-0.000257416	-0.283015	4.97076	4.23801	2	39	0.00706478	0.000204298	0	-0.0304761	0.711393	0.336489	14.932	2.14416e-05	1.84777e-05	1.57482e-05	1.63118e-05	1.515e-05	2.11143e-05	0.70441	0.157089	6.44612	7.7214e-07	9.18444e-07	3.17405e-07	5.41439e-07	3.30158e-07	2.72276e-07	0.0111028	0.0267014	0.0289178	67.4218	4238.01	1762.22	4589.78	-22.5782	0.0000000E+000	0.0000000E+000	0.0000000E+000	22.5782	0.0000000E+000	0.0000000E+000	0.0000000E+000	-22.5782	0.0000000E+000	0.0000000E+000	0.0000000E+000	-67.4218	0.0000000E+000	0.0000000E+000	0.0000000E+000	67.4218	0.415814	22.5782	-0.000103695
502.588	23.3691	54.3643	59.1743	-66.739	750.714	-0.000259653	-0.281984	5.82498	4.9165	2	39	0.00649384	0.000109741	0	-0.0307348	0.890648	0.710951	16.4019	1.83076e-05	2.42082e-05	1.96224e-05	2.01946e-05	2.40066e-05	2.19139e-05	1.02971	0.519357	11.9761	3.78169e-07	5.54499e-07	2.41873e-07	6.70984e-07	2.89975e-07	3.03733e-07	0.00667384	0.0155256	0.0168992	66.739	4916.5	2113.41	5351.5	-23.261	0.0000000E+000	0.0000000E+000	0.0000000E+000	23.261	0.0000000E+000	0.0000000E+000	0.0000000E+000	-23.261	0.0000000E+000	0.0000000E+000	0.0000000E+000	-66.739	0.0000000E+000	0.0000000E+000	0.0000000E+000	66.739	0.429861	23.261	-8.59808e-05
251.853	42.1562	90.1128	99.486	-64.9291	754.027	-0.000234786	-0.282685	7.0127	5.75354	2	39	0.00634071	6.37347e-05	0	-0.0309921	0.829165	0.556032	16.6091	1.47602e-05	1.37442e-05	2.10842e-05	2.56583e-05	1.81956e-05	2.58223e-05	1.2313	0.551735	20.0881	2.27163e-07	1.86598e-07	4.35522e-07	3.84873e-07	2.86712e-07	2.78522e-07	0.00425929	0.00910464	0.0100517	64.9291	5753.54	2691.59	6352	-25.0709	0.0000000E+000	0.0000000E+000	0.0000000E+000	25.0709	0.0000000E+000	0.0000000E+000	0.0000000E+000	-25.0709	0.0000000E+000	0.0000000E+000	0.0000000E+000	-64.9291	0.0000000E+000	0.0000000E+000	0.0000000E+000	64.9291	0.467815	25.0709	-8.55496e-05
126.171	75.8689	144.507	163.213	-62.2997	757.567	-0.00022239	-0.281429	8.72913	6.84292	2	39	0.00707081	4.33227e-05	0	-0.0312675	0.562688	0.31452	14.2208	2.02443e-05	9.56884e-06	1.30165e-05	6.17539e-06	1.61088e-05	2.19385e-05	1.17804	0.864626	29.474	1.76945e-07	1.86861e-07	1.72251e-07	2.50921e-07	2.44956e-07	1.64922e-07	0.0028481	0.00542477	0.00612698	62.2997	6842.92	3592.66	7728.7	-27.7003	0.0000000E+000	0.0000000E+000	0.0000000E+000	27.7003	0.0000000E+000	0.0000000E+000	0.0000000E+000	-27.7003	0.0000000E+000	0.0000000E+000	0.0000000E+000	-62.2997	0.0000000E+000	0.0000000E+000	0.0000000E+000	62.2997	0.525018	27.7003	-8.56083e-05
63.2394	134.723	225.141	262.371	-59.1039	761.09	-0.000256484	-0.282752	11.1784	8.23102	2	40	0.00710956	2.70973e-05	0	-0.031538	1.36988	0.798525	28.3068	3.34161e-05	2.82191e-05	4.9009e-05	3.07585e-05	5.33868e-05	2.94516e-05	0.699652	0.300742	9.94755	1.40282e-07	7.0798e-08	5.11685e-08	3.44173e-08	7.21855e-08	3.36136e-08	0.00195709	0.00327056	0.00381139	59.1039	8231.02	4925.41	9592.15	-30.8961	0.0000000E+000	0.0000000E+000	0.0000000E+000	30.8961	0.0000000E+000	0.0000000E+000	0.0000000E+000	-30.8961	0.0000000E+000	0.0000000E+000	0.0000000E+000	-59.1039	0.0000000E+000	0.0000000E+000	0.0000000E+000	59.1039	0.598395	30.8961	-8.41334e-05
31.6723	230.008	338.872	409.558	-55.8334	764.265	-0.000214691	-0.282253	14.8288	10.1518	2	40	0.00707573	1.72765e-05	0	-0.0317849	1.18963	0.73476	28.0558	2.9128e-05	3.75634e-05	2.77143e-05	3.94417e-05	1.20956e-05	1.78851e-05	0.919571	0.843928	15.8517	9.95047e-08	5.25837e-08	5.68877e-08	7.15454e-08	3.87518e-08	1.89393e-08	0.00137124	0.00202025	0.00244166	55.8334	10151.9	6890.53	12269.5	-34.1666	0.0000000E+000	0.0000000E+000	0.0000000E+000	34.1666	0.0000000E+000	0.0000000E+000	0.0000000E+000	-34.1666	0.0000000E+000	0.0000000E+000	0.0000000E+000	-55.8334	0.0000000E+000	0.0000000E+000	0.0000000E+000	55.8334	0.678747	34.1666	-8.11169e-05
15.879	375.473	486.998	614.936	-52.368	767.437	-0.000219221	-0.283498	20.5811	12.9081	2	40	0.00704741	1.14604e-05	0	-0.0320318	1.41631	1.04011	28.1976	4.26196e-05	4.69058e-05	3.9744e-05	3.64182e-05	2.95768e-05	2.87901e-05	1.36717	1.68478	23.1147	8.66137e-08	8.57372e-08	3.13337e-08	5.30586e-08	4.15188e-08	4.69132e-08	0.000992929	0.00128785	0.00162619	52.368	12908.1	9952.08	16299.2	-37.632	0.0000000E+000	0.0000000E+000	0.0000000E+000	37.632	0.0000000E+000	0.0000000E+000	0.0000000E+000	-37.632	0.0000000E+000	0.0000000E+000	0.0000000E+000	-52.368	0.0000000E+000	0.0000000E+000	0.0000000E+000	52.368	0.770994	37.632	-8.1248e-05
7.95573	576.875	683.968	894.761	-49.8549	770.873	-0.000216863	-0.283004	29.2485	17.0908	2	40	0.0070483	7.8773e-06	0	-0.0322992	0.871589	0.556001	19.3773	1.46687e-05	2.44484e-05	2.93505e-05	1.55021e-05	3.73287e-05	1.78034e-05	2.29756	6.68251	22.988	1.44044e-07	4.62907e-08	5.85588e-08	2.15206e-08	6.30125e-08	2.74828e-08	0.000720556	0.000854323	0.00111762	49.8549	17090.8	14414.8	22358	-40.1451	0.0000000E+000	0.0000000E+000	0.0000000E+000	40.1451	0.0000000E+000	0.0000000E+000	0.0000000E+000	-40.1451	0.0000000E+000	0.0000000E+000	0.0000000E+000	-49.8549	0.0000000E+000	0.0000000E+000	0.0000000E+000	49.8549	0.843423	40.1451	-9.3288e-05
3.98597	992.784	1013.72	1418.89	-45.5977	775.792	-0.000224268	-0.282386	39.3885	20.1051	2	40	0.00704467	4.96493e-06	0	-0.032681	0.758073	0.456032	14.3211	2.07368e-05	1.3842e-05	9.93688e-06	2.64235e-05	3.40712e-05	9.48103e-06	4.96314	16.8291	28.1972	1.9998e-07	7.58629e-08	5.25781e-08	7.36938e-08	5.09121e-08	2.17571e-08	0.000493127	0.000503525	0.000704778	45.5977	20105.1	19690	28140.9	-44.4023	0.0000000E+000	0.0000000E+000	0.0000000E+000	44.4023	0.0000000E+000	0.0000000E+000	0.0000000E+000	-44.4023	0.0000000E+000	0.0000000E+000	0.0000000E+000	-45.5977	0.0000000E+000	0.0000000E+000	0.0000000E+000	45.5977	0.979351	44.4023	-0.000149137
1.99783	1544.94	1162	1933.15	-36.948	784.32	-0.000238421	-0.283389	68.5579	24.7706	2	40	0.00704677	3.64523e-06	0	-0.0333477	0.538169	0.241804	9.56835	9.17938e-06	2.38287e-05	1.64814e-05	6.99156e-06	1.43368e-05	7.62307e-06	8.72948	31.9914	26.5621	2.09855e-07	1.50708e-07	8.79458e-08	1.01802e-07	6.1181e-08	4.53822e-08	0.000413409	0.000310938	0.000517291	36.948	24770.6	32933.8	41209.4	-53.052	0.0000000E+000	0.0000000E+000	0.0000000E+000	53.052	0.0000000E+000	0.0000000E+000	0.0000000E+000	-53.052	0.0000000E+000	0.0000000E+000	0.0000000E+000	-36.948	0.0000000E+000	0.0000000E+000	0.0000000E+000	36.948	1.32955	53.052	-0.000267146
1.00122	2148.49	1173.45	2448.06	-28.6423	800.186	-0.000232199	-0.282603	135.465	31.1253	2	40	0.00705066	2.8801e-06	0	-0.0345889	0.372423	0.157929	6.74168	6.94888e-06	7.03634e-06	1.01178e-05	6.35428e-06	1.0846e-05	1.69888e-05	11.9469	38.0098	24.8895	2.53969e-07	1.42143e-07	1.22542e-07	6.28409e-08	5.71965e-08	3.63423e-08	0.0003585	0.000195804	0.000408487	28.6423	31125.3	56987.7	64933.7	-61.3577	0.0000000E+000	0.0000000E+000	0.0000000E+000	61.3577	0.0000000E+000	0.0000000E+000	0.0000000E+000	-61.3577	0.0000000E+000	0.0000000E+000	0.0000000E+000	-28.6423	0.0000000E+000	0.0000000E+000	0.0000000E+000	28.6423	1.83091	61.3577	-0.0005046
0.501541	3304.94	2057.5	3893.06	-31.9045	830.683	-0.000227955	-0.282029	154.231	43.0796	2	40	0.0070484	1.8105e-06	0	-0.0369772	0.280443	0.125604	4.6796	6.13472e-06	1.15434e-05	6.47535e-06	8.77386e-06	6.215e-06	5.94757e-06	63.7209	46.6532	43.7593	8.67422e-07	3.21614e-07	2.39248e-07	1.53788e-07	1.58977e-07	6.31854e-08	0.000218062	0.000135756	0.000256867	31.9045	43079.6	69198.1	81512.1	-58.0955	0.0000000E+000	0.0000000E+000	0.0000000E+000	58.0955	0.0000000E+000	0.0000000E+000	0.0000000E+000	-58.0955	0.0000000E+000	0.0000000E+000	0.0000000E+000	-31.9045	0.0000000E+000	0.0000000E+000	0.0000000E+000	31.9045	1.60628	58.0955	-0.000978402
0.251222	4232.36	2593.83	4963.95	-31.5023	890.576	-0.000232237	-0.282332	244.243	66.6881	2	40	0.00704637	1.41951e-06	0	-0.0416652	0.226942	0.134016	3.36167	3.38843e-06	7.04371e-06	7.20037e-06	8.20457e-06	5.66242e-06	4.74088e-06	60.6855	31.3021	79.3098	5.30544e-07	3.38198e-07	4.21693e-07	1.73122e-07	1.66333e-07	1.30726e-07	0.000171762	0.000105265	0.000201452	31.5023	66688.1	108815	127625	-58.4977	0.0000000E+000	0.0000000E+000	0.0000000E+000	58.4977	0.0000000E+000	0.0000000E+000	0.0000000E+000	-58.4977	0.0000000E+000	0.0000000E+000	0.0000000E+000	-31.5023	0.0000000E+000	0.0000000E+000	0.0000000E+000	31.5023	1.63171	58.4977	-0.00192824
0.125939	4453.27	836.675	4531.18	-10.6406	1009.14	-0.000226138	-0.281401	1510.44	51.4985	2	40	0.00704545	1.55488e-06	0	-0.0509358	0.164731	0.150589	2.31047	3.05882e-06	8.17678e-06	2.37129e-06	4.7258e-06	3.23308e-06	2.83942e-06	59.6156	50.0422	94.2234	4.85204e-07	2.50648e-07	3.24892e-07	4.38887e-07	2.11455e-07	2.85566e-07	0.000216898	4.07505e-05	0.000220693	10.6406	51498.5	274105	278901	-79.3594	0.0000000E+000	0.0000000E+000	0.0000000E+000	79.3594	0.0000000E+000	0.0000000E+000	0.0000000E+000	-79.3594	0.0000000E+000	0.0000000E+000	0.0000000E+000	-10.6406	0.0000000E+000	0.0000000E+000	0.0000000E+000	10.6406	5.32258	79.3594	-0.00381221
317705	3.64648	1.09692	3.80789	-16.7421	1073.93	-0.000135953	-0.282668	0.456691	0.0378966	3	38	0.00715865	0.00187995	0	-0.0559964	-1	-1	-1	0	0	0	0	0	0	-1	-1	-1	0	0	0	0	0	0	0.251481	0.0756493	0.262613	16.7421	37.8966	125.98	131.556	-73.2579	0.0000000E+000	0.0000000E+000	0.0000000E+000	73.2579	0.0000000E+000	0.0000000E+000	0.0000000E+000	-73.2579	0.0000000E+000	0.0000000E+000	0.0000000E+000	-16.7421	0.0000000E+000	0.0000000E+000	0.0000000E+000	16.7421	3.3243	73.2579	-8.84323e-05
159201	3.54862	0.794876	3.63655	-12.6256	1077.37	-0.00013435	-0.28316	1.2577	0.0600891	3	38	0.00721003	0.00198266	0	-0.0562679	-1	-1	-1	0	0	0	0	0	0	-1	-1	-1	0	0	0	0	0	0	0.268336	0.0601063	0.274986	12.6256	60.0891	268.26	274.907	-77.3744	0.0000000E+000	0.0000000E+000	0.0000000E+000	77.3744	0.0000000E+000	0.0000000E+000	0.0000000E+000	-77.3744	0.0000000E+000	0.0000000E+000	0.0000000E+000	-12.6256	0.0000000E+000	0.0000000E+000	0.0000000E+000	12.6256	4.46436	77.3744	-9.36635e-05
79767.3	3.57572	0.929245	3.69449	-14.5676	1080.81	-0.000151145	-0.281597	2.14716	0.135836	3	38	0.00726204	0.00196564	0	-0.0565294	0.871938	0.40074	14.3374	1.57825e-05	3.13526e-05	2.05617e-05	1.55918e-05	2.82745e-05	3.16009e-05	0.084085	0.0582547	1.44812	7.80968e-07	5.71486e-07	6.34565e-07	5.22229e-07	5.79791e-07	5.59154e-07	0.261971	0.0680801	0.270673	14.5676	135.836	522.696	540.058	-75.4324	0.0000000E+000	0.0000000E+000	0.0000000E+000	75.4324	0.0000000E+000	0.0000000E+000	0.0000000E+000	-75.4324	0.0000000E+000	0.0000000E+000	0.0000000E+000	-14.5676	0.0000000E+000	0.0000000E+000	0.0000000E+000	14.5676	3.84799	75.4324	-8.98571e-05
39971.8	3.6898	1.45735	3.96718	-21.5524	1084.25	-0.000118486	-0.280594	2.73213	0.368695	3	38	0.00727829	0.00183463	0	-0.0567972	0.689201	0.544629	13.8137	1.42346e-05	1.15053e-05	2.60013e-05	2.45976e-05	1.27847e-05	2.20022e-05	0.0810992	0.0705472	1.54578	3.4732e-07	8.01717e-07	5.02503e-07	7.63562e-07	2.16276e-07	5.707e-07	0.234444	0.0925979	0.252068	21.5524	368.695	933.481	1003.66	-68.4476	0.0000000E+000	0.0000000E+000	0.0000000E+000	68.4476	0.0000000E+000	0.0000000E+000	0.0000000E+000	-68.4476	0.0000000E+000	0.0000000E+000	0.0000000E+000	-21.5524	0.0000000E+000	0.0000000E+000	0.0000000E+000	21.5524	2.53185	68.4476	-9.02635e-05
20032.3	3.90062	2.51851	4.64303	-32.8491	1087.7	-0.000150101	-0.281821	3.15461	0.928175	3	38	0.00727929	0.00156779	0	-0.0570675	0.667704	0.38068	14.2835	2.36162e-05	6.58276e-06	2.03532e-05	1.54718e-05	1.4995e-05	2.10489e-05	0.11778	0.110123	1.88107	1.05881e-06	7.26181e-07	6.5451e-07	5.71303e-07	3.81418e-07	6.83725e-07	0.180938	0.116826	0.215376	32.8491	928.175	1437.54	1711.15	-57.1509	0.0000000E+000	0.0000000E+000	0.0000000E+000	57.1509	0.0000000E+000	0.0000000E+000	0.0000000E+000	-57.1509	0.0000000E+000	0.0000000E+000	0.0000000E+000	-32.8491	0.0000000E+000	0.0000000E+000	0.0000000E+000	32.8491	1.54878	57.1509	-9.21621e-05
10039.3	4.36442	4.59968	6.34076	-46.5034	1091.14	-0.000129429	-0.282281	3.44657	1.81368	3	38	0.00737876	0.0011637	0	-0.0573372	0.748128	0.548113	13.9522	2.67446e-05	2.29571e-05	2.24255e-05	2.11918e-05	2.1388e-05	1.52344e-05	0.181992	0.169389	2.50986	9.9628e-07	9.29259e-07	5.63654e-07	7.543e-07	8.73187e-07	7.87057e-07	0.108553	0.114405	0.15771	46.5034	1813.68	1720.91	2500.19	-43.4966	0.0000000E+000	0.0000000E+000	0.0000000E+000	43.4966	0.0000000E+000	0.0000000E+000	0.0000000E+000	-43.4966	0.0000000E+000	0.0000000E+000	0.0000000E+000	-46.5034	0.0000000E+000	0.0000000E+000	0.0000000E+000	46.5034	0.948852	43.4966	-8.78075e-05
5028.39	5.26384	8.35882	9.87815	-57.8	1094.49	-0.000282525	-0.282191	3.78657	2.71135	3	38	0.0075094	0.000760203	0	-0.0575954	0.635696	0.391853	13.7329	1.1886e-05	2.24199e-05	1.48301e-05	1.70098e-05	2.37902e-05	1.68048e-05	0.278198	0.040636	3.83767	1.53892e-06	7.96886e-07	4.44623e-07	2.9119e-07	8.37568e-07	5.63979e-07	0.053945	0.0856631	0.101234	57.8	2711.35	1707.43	3204.17	-32.2	0.0000000E+000	0.0000000E+000	0.0000000E+000	32.2	0.0000000E+000	0.0000000E+000	0.0000000E+000	-32.2	0.0000000E+000	0.0000000E+000	0.0000000E+000	-57.8	0.0000000E+000	0.0000000E+000	0.0000000E+000	57.8	0.629735	32.2	-8.71174e-05
2519.19	7.21234	15.1016	16.7355	-64.4714	1097.81	-0.000260696	-0.281678	4.18347	3.40648	3	38	0.00673841	0.000402642	0	-0.0578536	0.895646	0.616906	14.9927	1.73168e-05	3.2623e-05	1.04209e-05	2.28397e-05	2.38098e-05	2.98811e-05	0.683719	0.148413	7.04161	1.62223e-06	1.56758e-06	5.9499e-07	6.09562e-07	9.0678e-07	6.67009e-07	0.0257514	0.0539196	0.0597533	64.4714	3406.48	1626.9	3775.04	-25.5286	0.0000000E+000	0.0000000E+000	0.0000000E+000	25.5286	0.0000000E+000	0.0000000E+000	0.0000000E+000	-25.5286	0.0000000E+000	0.0000000E+000	0.0000000E+000	-64.4714	0.0000000E+000	0.0000000E+000	0.0000000E+000	64.4714	0.477588	25.5286	-8.64985e-05
1262.98	11.1935	26.6538	28.9088	-67.2195	1101.12	-0.000270334	-0.28375	4.72787	4.01905	3	38	0.0064198	0.000222071	0	-0.0581134	0.852326	0.408322	16.2544	1.61158e-05	1.36974e-05	2.74695e-05	2.38013e-05	2.62345e-05	1.57728e-05	0.826786	0.477293	12.9762	6.59226e-07	8.8342e-07	5.96777e-07	8.08389e-07	8.00514e-07	4.67353e-07	0.0133939	0.0318932	0.0345915	67.2195	4019.05	1687.84	4359.08	-22.7805	0.0000000E+000	0.0000000E+000	0.0000000E+000	22.7805	0.0000000E+000	0.0000000E+000	0.0000000E+000	-22.7805	0.0000000E+000	0.0000000E+000	0.0000000E+000	-67.2195	0.0000000E+000	0.0000000E+000	0.0000000E+000	67.2195	0.41996	22.7805	-8.66725e-05
632.773	19.5325	46.1326	50.0973	-67.0523	1104.7	-0.00023555	-0.281775	5.45211	4.6233	3	39	0.00660205	0.000131785	0	-0.0583881	0.945436	0.505464	15.7868	3.51754e-05	1.91447e-05	2.97573e-05	2.20161e-05	9.35993e-06	1.87759e-05	0.802818	0.343051	9.86452	4.5976e-07	4.69696e-07	2.7829e-07	6.83992e-07	1.36505e-07	1.18338e-07	0.00778268	0.0183815	0.0199612	67.0523	4623.3	1957.5	5020.63	-22.9477	0.0000000E+000	0.0000000E+000	0.0000000E+000	22.9477	0.0000000E+000	0.0000000E+000	0.0000000E+000	-22.9477	0.0000000E+000	0.0000000E+000	0.0000000E+000	-67.0523	0.0000000E+000	0.0000000E+000	0.0000000E+000	67.0523	0.423399	22.9477	-8.56809e-05
316.927	35.2164	76.8959	84.5765	-65.3934	1108.02	-0.000236706	-0.278963	6.53067	5.3984	3	39	0.00638006	7.54354e-05	0	-0.0586447	0.788764	0.282999	16.2175	3.32888e-05	7.97081e-06	1.62624e-05	9.80393e-06	1.48941e-05	2.00954e-05	0.899463	0.2878	16.9506	3.06014e-07	2.09213e-07	3.05889e-07	2.25869e-07	2.72642e-07	2.45627e-07	0.00492318	0.0107499	0.0118236	65.3934	5398.4	2472.33	5937.61	-24.6066	0.0000000E+000	0.0000000E+000	0.0000000E+000	24.6066	0.0000000E+000	0.0000000E+000	0.0000000E+000	-24.6066	0.0000000E+000	0.0000000E+000	0.0000000E+000	-65.3934	0.0000000E+000	0.0000000E+000	0.0000000E+000	65.3934	0.457975	24.6066	-8.51881e-05
158.831	64.1129	124.79	140.296	-62.8075	1111.34	-0.000247443	-0.281524	8.02979	6.35292	3	39	0.00631756	4.50301e-05	0	-0.0589019	0.8677	0.702743	16.2533	1.47769e-05	2.10124e-05	1.45925e-05	2.28518e-05	1.80276e-05	3.03856e-05	1.58042	0.770369	29.2274	2.38209e-07	2.95009e-07	2.21537e-07	3.16353e-07	2.48265e-07	3.16277e-07	0.00325725	0.00633998	0.00712776	62.8075	6352.92	3263.9	7142.31	-27.1925	0.0000000E+000	0.0000000E+000	0.0000000E+000	27.1925	0.0000000E+000	0.0000000E+000	0.0000000E+000	-27.1925	0.0000000E+000	0.0000000E+000	0.0000000E+000	-62.8075	0.0000000E+000	0.0000000E+000	0.0000000E+000	62.8075	0.513764	27.1925	-8.61314e-05
79.6177	114.322	194.526	225.632	-59.5575	1115.1	-0.000260025	-0.280552	10.2762	7.63813	3	40	0.00700427	3.10429e-05	0	-0.0591904	1.51083	0.841944	29.0638	4.76252e-05	4.51446e-05	4.05515e-05	5.0248e-05	2.2041e-05	3.57563e-05	0.72489	0.229806	8.98673	1.39979e-07	7.26882e-08	4.66159e-08	1.17991e-07	4.29444e-08	6.73091e-08	0.00224557	0.00382099	0.004432	59.5575	7638.13	4488.88	8859.52	-30.4425	0.0000000E+000	0.0000000E+000	0.0000000E+000	30.4425	0.0000000E+000	0.0000000E+000	0.0000000E+000	-30.4425	0.0000000E+000	0.0000000E+000	0.0000000E+000	-59.5575	0.0000000E+000	0.0000000E+000	0.0000000E+000	59.5575	0.587694	30.4425	-0.000100307
39.8851	198.359	292.679	353.563	-55.8732	1118.31	-0.000253948	-0.281554	13.6338	9.34256	3	40	0.00693709	1.96205e-05	0	-0.0594399	1.33199	0.795769	28.5148	2.54408e-05	4.09993e-05	5.15913e-05	2.75496e-05	3.20876e-05	3.03747e-05	0.896363	0.514322	13.6807	1.19097e-07	6.5589e-08	5.43288e-08	6.07678e-08	4.81271e-08	4.5392e-08	0.00158678	0.0023413	0.00282835	55.8732	9342.56	6331.78	11286.1	-34.1268	0.0000000E+000	0.0000000E+000	0.0000000E+000	34.1268	0.0000000E+000	0.0000000E+000	0.0000000E+000	-34.1268	0.0000000E+000	0.0000000E+000	0.0000000E+000	-55.8732	0.0000000E+000	0.0000000E+000	0.0000000E+000	55.8732	0.677735	34.1268	-8.27264e-05
19.9808	326.217	423.877	534.873	-52.418	1121.49	-0.000239036	-0.28162	18.7917	11.8017	3	40	0.00691242	1.29235e-05	0	-0.0596859	1.58506	1.09324	29.8791	1.70334e-05	4.99662e-05	5.59689e-05	5.2591e-05	4.2276e-05	2.65663e-05	1.53057	1.43417	21.2725	1.1387e-07	5.7808e-08	7.45041e-08	8.1113e-08	6.36999e-08	3.62721e-08	0.00114026	0.00148162	0.0018696	52.418	11801.7	9082.63	14892.1	-37.582	0.0000000E+000	0.0000000E+000	0.0000000E+000	37.582	0.0000000E+000	0.0000000E+000	0.0000000E+000	-37.582	0.0000000E+000	0.0000000E+000	0.0000000E+000	-52.418	0.0000000E+000	0.0000000E+000	0.0000000E+000	52.418	0.769603	37.582	-8.26382e-05
10.016	496.878	590.972	772.098	-49.9435	1124.76	-0.0002494	-0.281365	26.8879	15.7524	3	40	0.00693631	8.98372e-06	0	-0.0599387	1.80093	0.618658	28.4205	6.87887e-05	4.34169e-05	2.73031e-05	3.13765e-05	4.90824e-05	5.13942e-05	2.32615	5.49827	28.7734	1.05726e-07	1.13281e-07	6.91976e-08	3.20904e-08	3.80127e-08	6.64417e-08	0.000833498	0.000991339	0.00129517	49.9435	15752.4	13244.3	20580.3	-40.0565	0.0000000E+000	0.0000000E+000	0.0000000E+000	40.0565	0.0000000E+000	0.0000000E+000	0.0000000E+000	-40.0565	0.0000000E+000	0.0000000E+000	0.0000000E+000	-49.9435	0.0000000E+000	0.0000000E+000	0.0000000E+000	49.9435	0.840781	40.0565	-8.23914e-05
5.01766	756.09	865.257	1149.06	-48.852	1128.96	-0.000215095	-0.2799	36.6584	20.7863	3	40	0.00690798	6.01185e-06	0	-0.0602637	0.761937	0.491691	15.4204	3.14539e-05	2.25377e-05	1.95517e-05	2.12436e-05	1.27973e-05	9.82071e-06	4.68065	14.2376	23.7934	2.11188e-07	1.11565e-07	8.32659e-08	7.42902e-08	5.6675e-08	5.63873e-08	0.000572647	0.000655328	0.000870276	48.852	20786.3	18163.8	27604.2	-41.148	0.0000000E+000	0.0000000E+000	0.0000000E+000	41.148	0.0000000E+000	0.0000000E+000	0.0000000E+000	-41.148	0.0000000E+000	0.0000000E+000	0.0000000E+000	-48.852	0.0000000E+000	0.0000000E+000	0.0000000E+000	48.852	0.873833	41.148	-0.000125241
2.51368	1073.46	1207.75	1615.86	-48.3689	1135.99	-0.000248899	-0.280999	52.4243	29.2875	3	40	0.00688854	4.26309e-06	0	-0.0608097	0.563658	0.285781	11.2429	1.70435e-05	9.38266e-06	1.55188e-05	1.18213e-05	1.82053e-05	1.64e-05	4.36527	18.8605	24.5989	1.35266e-07	7.93001e-08	8.42618e-08	1.76946e-08	3.35955e-08	2.50521e-08	0.000411133	0.000462565	0.000618867	48.3689	29287.6	26031.1	39183.9	-41.6311	0.0000000E+000	0.0000000E+000	0.0000000E+000	41.6311	0.0000000E+000	0.0000000E+000	0.0000000E+000	-41.6311	0.0000000E+000	0.0000000E+000	0.0000000E+000	-48.3689	0.0000000E+000	0.0000000E+000	0.0000000E+000	48.3689	0.888812	41.6311	-0.000217832
1.25968	1941.06	2098.83	2858.81	-47.2365	1148.83	-0.000229958	-0.282063	60.1981	32.4465	3	40	0.00688527	2.40844e-06	0	-0.0618087	0.417013	0.210391	7.84632	1.69866e-05	7.53173e-06	9.92953e-06	1.00864e-05	1.20865e-05	8.13495e-06	31.4299	39.0752	48.1316	4.41986e-07	4.10363e-07	1.75155e-07	1.62504e-07	1.18586e-07	1.06555e-07	0.000237502	0.000256807	0.000349796	47.2365	32446.5	30007.4	44195.2	-42.7635	0.0000000E+000	0.0000000E+000	0.0000000E+000	42.7635	0.0000000E+000	0.0000000E+000	0.0000000E+000	-42.7635	0.0000000E+000	0.0000000E+000	0.0000000E+000	-47.2365	0.0000000E+000	0.0000000E+000	0.0000000E+000	47.2365	0.924827	42.7635	-0.000405225
0.631645	2843.17	1638.42	3281.47	-29.9534	1173.28	-0.000229246	-0.280465	153.788	38.3386	3	40	0.00689133	2.10008e-06	0	-0.0637147	0.283921	0.148999	5.3138	7.83534e-06	7.44157e-06	9.03385e-06	4.062e-06	7.66384e-06	9.04554e-06	45.0966	58.5959	46.0174	5.15777e-07	3.07432e-07	2.34018e-07	1.82471e-07	7.81796e-08	5.40887e-08	0.000264038	0.000152156	0.000304742	29.9534	38338.6	66529.4	76785.5	-60.0466	0.0000000E+000	0.0000000E+000	0.0000000E+000	60.0466	0.0000000E+000	0.0000000E+000	0.0000000E+000	-60.0466	0.0000000E+000	0.0000000E+000	0.0000000E+000	-29.9534	0.0000000E+000	0.0000000E+000	0.0000000E+000	29.9534	1.73531	60.0466	-0.000778537
0.316193	3029.17	3847.22	4896.63	-51.7842	1221.05	-0.000230575	-0.280562	130.834	80.7644	3	40	0.0068934	1.40778e-06	0	-0.0674413	0.21324	0.106576	3.90806	4.4366e-06	7.43777e-06	4.97048e-06	6.18663e-06	3.30217e-06	6.0282e-06	51.5132	87.8625	77.1553	2.91192e-07	2.10662e-07	4.3339e-07	2.41773e-07	2.0891e-07	9.64528e-08	0.000126337	0.000160455	0.000204222	51.7842	80764.4	63591.3	102795	-38.2158	0.0000000E+000	0.0000000E+000	0.0000000E+000	38.2158	0.0000000E+000	0.0000000E+000	0.0000000E+000	-38.2158	0.0000000E+000	0.0000000E+000	0.0000000E+000	-51.7842	0.0000000E+000	0.0000000E+000	0.0000000E+000	51.7842	0.787368	38.2158	-0.00152996
0.158419	4456.1	1645.92	4750.36	-20.2724	1315.44	-0.000219936	-0.280374	610.386	73.2774	3	40	0.00689623	1.45173e-06	0	-0.0747883	0.190458	0.124995	2.72697	4.28411e-06	6.39015e-06	5.08359e-06	5.70794e-06	4.08453e-06	4.66064e-06	60.5598	67.4756	77.0149	4.60902e-07	2.39194e-07	5.01212e-07	1.86532e-07	2.67233e-07	1.71584e-07	0.000197471	7.29384e-05	0.00021051	20.2724	73277.4	198388	211489	-69.7276	0.0000000E+000	0.0000000E+000	0.0000000E+000	69.7276	0.0000000E+000	0.0000000E+000	0.0000000E+000	-69.7276	0.0000000E+000	0.0000000E+000	0.0000000E+000	-20.2724	0.0000000E+000	0.0000000E+000	0.0000000E+000	20.2724	2.70736	69.7276	-0.00302389
0.0999518	5327.21	702.138	5373.29	-7.50843	1425.63	-0.000216904	-0.279983	2267.81	38.7233	3	40	0.00689183	1.28261e-06	0	-0.0833621	0.15489	0.0767053	2.34923	1.39798e-06	6.03621e-06	3.15197e-06	5.70538e-06	3.06563e-06	3.07947e-06	82.7324	41.0405	101.56	4.55337e-07	4.74535e-07	3.11312e-07	4.92106e-07	3.19323e-07	2.22956e-07	0.00018451	2.43188e-05	0.000186106	7.50843	38723.3	293799	296340	-82.4916	0.0000000E+000	0.0000000E+000	0.0000000E+000	82.4916	0.0000000E+000	0.0000000E+000	0.0000000E+000	-82.4916	0.0000000E+000	0.0000000E+000	0.0000000E+000	-7.50843	0.0000000E+000	0.0000000E+000	0.0000000E+000	7.50843	7.58713	82.4916	-0.00477527