File: Python/Experiments/IRFB/240507-Cloth-1p5M_FeCl2FeCl3-1M_HCl/Data/240507-EIS-Cloth-1p5M_FeCl2FeCl3-1M_HCl-Wamup_10mLmin-4xFlowRate-20mHz_10ppd_09_PEIS_C15.mpt
EC-Lab ASCII FILE
Nb header lines : 75

Potentio Electrochemical Impedance Spectroscopy

Run on channel : 15 (SN 19485)
User :
Electrode connection : standard
Potential control : Ewe
Ewe ctrl range : min = -1.00 V, max = 1.00 V
Ewe,I filtering : 50 kHz
Safety Limits :
	Do not start on E overload
Channel : Grounded
Acquisition started on : 05/08/2024 12:03:59.706
Loaded Setting File :  C:\Data\mathias\IRFB\240503-EIS-Felt-1p5M_FeCl2FeCl3-1M_HCl-Wamup_10mLmin-4xFlowRate-20mHz_10ppd.mps
Saved on :
	File : 240507-EIS-Cloth-1p5M_FeCl2FeCl3-1M_HCl-Wamup_10mLmin-4xFlowRate-20mHz_10ppd_09_PEIS_C15.mpr
	Directory : C:\Data\mathias\IRFB\
	Host : 192.168.0.1
Device : VMP-300 (SN 0826)
Address : USB
EC-Lab for windows v11.52 (software)
Internet server v11.52 (firmware)
Command interpretor v11.52 (firmware)
Electrode material :
Initial state :
Electrolyte :
Comments :
Cable : special
Electrode surface area : 0.001 cm²
Characteristic mass : 0.001 g
Equivalent Weight : 0.000 g/eq.
Density : 0.000 g/cm3
Volume (V) : 0.001 cm³
Record EIS quality indicators
Cycle Definition : Charge/Discharge alternance
External device configuration :
   device type : Other
   device name : Other
   Analog OUT :
      mode : E/V
      unit : KNF Pump/ml/min
      max : 120.000 at 5.000 V
      min : 0.000 at 0.000 V
      current : 4.300
Mode                Single sine
E (V)               0.0000
vs.                 Eoc
tE (h:m:s)          0:00:0.0000
record              0
dI                  0.000
unit dI             mA
dt (s)              0.000
fi                  220.000
unit fi             kHz
ff                  20.000
unit ff             mHz
Nd                  10
Points              per decade
spacing             Logarithmic
Va (mV)             5.0
pw                  0.10
Na                  3
corr                0
E range min (V)     -1.000
E range max (V)     1.000
I Range             Auto
Bandwidth           8
nc cycles           2
goto Ns'            0
nr cycles           0
inc. cycle          0

freq/Hz	Re(Z)/Ohm	-Im(Z)/Ohm	|Z|/Ohm	Phase(Z)/deg	time/s	<Ewe>/V	<I>/mA	Cs/µF	Cp/µF	cycle number	I Range	|Ewe|/V	|I|/A	Ns	(Q-Qo)/mA.h	Analog OUT/V	THD Ewe/%	NSD Ewe/%	NSR Ewe/%	|Ewe h2|/V	|Ewe h3|/V	|Ewe h4|/V	|Ewe h5|/V	|Ewe h6|/V	|Ewe h7|/V	THD I/%	NSD I/%	NSR I/%	|I h2|/A	|I h3|/A	|I h4|/A	|I h5|/A	|I h6|/A	|I h7|/A	Re(Y)/Ohm-1	Im(Y)/Ohm-1	|Y|/Ohm-1	Phase(Y)/deg	Re(C)/nF	Im(C)/nF	|C|/nF	Phase(C)/deg	Re(M)	Im(M)	|M|	Phase(M)/deg	Re(Permittivity)	Im(Permittivity)	|Permittivity|	Phase(Permittivity)/deg	Re(Resistivity)/Ohm.cm	Im(Resistivity)/Ohm.cm	|Resistivity|/Ohm.cm	Phase(Resistivity)/deg	Re(Conductivity)/mS/cm	Im(Conductivity)/mS/cm	|Conductivity|/mS/cm	Phase(Conductivity)/deg	Tan(Delta)	Loss Angle(Delta)/deg	dq/mA.h
220003	0.0813443	-0.0223029	0.0843465	15.3325	111857	0.000204586	-0.320302	-32.4362	-2.26788	1	37	0.00300126	0.0355826	0	-0.000167618	24.5	-1	-1	-1	0	0	0	0	0	0	-1	-1	-1	0	0	0	0	0	0	11.4339	-3.13493	11.8559	-15.3325	-2267.88	8271.53	8576.8	-105.333	0.0000000E+000	0.0000000E+000	0.0000000E+000	105.333	0.0000000E+000	0.0000000E+000	0.0000000E+000	-105.333	0.0000000E+000	0.0000000E+000	0.0000000E+000	15.3325	0.0000000E+000	0.0000000E+000	0.0000000E+000	-15.3325	3.64725	74.6675	-0.000167618
109811	0.0873564	-0.00579851	0.0875486	3.79759	111860	0.000187698	-0.350601	-249.953	-1.09646	1	37	0.00523022	0.0597408	0	-0.000494021	24.5	-1	-1	-1	0	0	0	0	0	0	-1	-1	-1	0	0	0	0	0	0	11.3971	-0.756515	11.4222	-3.79759	-1096.46	16518.5	16554.8	-93.7976	0.0000000E+000	0.0000000E+000	0.0000000E+000	93.7976	0.0000000E+000	0.0000000E+000	0.0000000E+000	-93.7976	0.0000000E+000	0.0000000E+000	0.0000000E+000	3.79759	0.0000000E+000	0.0000000E+000	0.0000000E+000	-3.79759	15.0653	86.2024	-0.000211815
54808.1	0.0914812	0.00429698	0.0915821	-2.68927	111863	0.000206879	-0.279301	675.791	1.48771	1	37	0.00520935	0.0568818	0	-0.000921206	24.5	0.284554	0.134401	5.8466	5.59734e-06	8.34816e-06	4.2703e-06	5.33654e-06	4.10761e-06	5.46573e-06	0.121403	0.0441357	0.361588	5.2277e-06	6.82023e-05	2.32662e-06	7.91841e-06	2.16246e-06	3.18583e-06	10.9071	0.51232	10.9192	2.68927	1487.71	31672.8	31707.7	-87.3107	0.0000000E+000	0.0000000E+000	0.0000000E+000	87.3107	0.0000000E+000	0.0000000E+000	0.0000000E+000	-87.3107	0.0000000E+000	0.0000000E+000	0.0000000E+000	-2.68927	0.0000000E+000	0.0000000E+000	0.0000000E+000	2.68927	21.2897	87.3107	-3.57749e-05
27362.3	0.0972855	0.0123205	0.0980626	-7.21767	111867	0.000199777	-0.254604	472.105	7.45228	1	37	0.00519503	0.0529767	0	-0.00110174	24.5	0.336933	0.177671	5.82552	4.35766e-06	7.16868e-06	8.58685e-06	4.12572e-06	5.05235e-06	9.08341e-06	0.110957	0.0379735	0.384607	4.83296e-06	5.77289e-05	2.113e-06	7.6432e-06	4.8797e-06	2.91733e-06	10.1168	1.28121	10.1976	7.21767	7452.28	58844.9	59314.9	-82.7823	0.0000000E+000	0.0000000E+000	0.0000000E+000	82.7823	0.0000000E+000	0.0000000E+000	0.0000000E+000	-82.7823	0.0000000E+000	0.0000000E+000	0.0000000E+000	-7.21767	0.0000000E+000	0.0000000E+000	0.0000000E+000	7.21767	7.89623	82.7823	2.76487e-05
13658	0.105891	0.01872	0.107533	-10.0255	111870	0.000202722	-0.241241	622.484	18.865	1	37	0.00517732	0.0481463	0	-0.00133899	24.5	0.310559	0.223088	5.80654	5.58061e-06	7.72405e-06	4.89841e-06	3.83103e-06	7.88578e-06	5.46242e-06	0.0840048	0.0129337	0.424193	5.01049e-06	3.86544e-05	4.10131e-06	6.36331e-06	5.10251e-06	4.69373e-06	9.15748	1.61891	9.29948	10.0255	18865	106711	108366	-79.9745	0.0000000E+000	0.0000000E+000	0.0000000E+000	79.9745	0.0000000E+000	0.0000000E+000	0.0000000E+000	-79.9745	0.0000000E+000	0.0000000E+000	0.0000000E+000	-10.0255	0.0000000E+000	0.0000000E+000	0.0000000E+000	10.0255	5.65656	79.9745	-0.000104657
6816.86	0.117176	0.0230241	0.119417	-11.1165	111874	8.00476e-05	-0.877896	1014.04	37.6954	1	37	0.00520635	0.0435981	0	-0.00184953	24.5	0.350761	0.139233	5.77724	2.37045e-06	7.15515e-06	6.05838e-06	1.03802e-05	7.03923e-06	7.5536e-06	0.0864937	0.0445459	0.474613	3.42127e-06	3.53683e-05	5.92302e-06	6.93718e-06	4.38439e-06	4.87423e-06	8.21691	1.61455	8.37403	11.1165	37695.4	191842	195511	-78.8835	0.0000000E+000	0.0000000E+000	0.0000000E+000	78.8835	0.0000000E+000	0.0000000E+000	0.0000000E+000	-78.8835	0.0000000E+000	0.0000000E+000	0.0000000E+000	-11.1165	0.0000000E+000	0.0000000E+000	0.0000000E+000	11.1165	5.08928	78.8835	-0.000219965
3403.27	0.130466	0.0239043	0.132638	-10.3827	111878	7.44927e-05	-0.871307	1956.36	63.5425	1	37	0.00518868	0.0391192	0	-0.00283067	24.5	0.265316	0.175115	5.8596	6.21316e-06	4.25925e-06	5.03654e-06	5.63743e-06	1.68255e-06	5.3969e-06	0.0605923	0.0436946	0.527336	1.74499e-06	2.14047e-05	4.32065e-06	5.22582e-06	5.44165e-06	3.66821e-06	7.41587	1.35875	7.53932	10.3827	63542.4	346806	352579	-79.6173	0.0000000E+000	0.0000000E+000	0.0000000E+000	79.6173	0.0000000E+000	0.0000000E+000	0.0000000E+000	-79.6173	0.0000000E+000	0.0000000E+000	0.0000000E+000	-10.3827	0.0000000E+000	0.0000000E+000	0.0000000E+000	10.3827	5.45786	79.6173	-0.000324529
1698.37	0.142881	0.0206597	0.144367	-8.22758	111882	7.55179e-05	-0.876575	4535.92	92.8916	1	37	0.00516849	0.0358011	0	-0.00376102	24.5	0.299343	0.217857	5.88557	4.8828e-06	5.02629e-06	7.1243e-06	6.55792e-06	6.03867e-06	4.70821e-06	0.0354672	0.0680272	0.577715	4.48443e-06	4.53782e-06	4.24545e-06	5.45812e-06	4.63463e-06	5.91233e-06	6.8555	0.991261	6.9268	8.22758	92891.6	642433	649114	-81.7724	0.0000000E+000	0.0000000E+000	0.0000000E+000	81.7724	0.0000000E+000	0.0000000E+000	0.0000000E+000	-81.7724	0.0000000E+000	0.0000000E+000	0.0000000E+000	-8.22758	0.0000000E+000	0.0000000E+000	0.0000000E+000	8.22758	6.91594	81.7724	-0.000302956
847.556	0.151583	0.0152496	0.152348	-5.74477	111886	6.85463e-05	-0.924275	12313.9	123.378	1	37	0.00505729	0.0331957	0	-0.00468595	24.5	0.322374	0.25553	5.9392	4.65981e-06	1.01466e-05	5.42302e-06	5.60208e-06	3.09644e-06	6.12389e-06	0.0536722	0.10645	0.628649	5.14801e-06	1.08743e-05	8.22143e-06	7.77121e-06	4.97758e-06	2.87152e-06	6.53097	0.657031	6.56393	5.74477	123378	1.22639e+06	1.23258e+06	-84.2552	0.0000000E+000	0.0000000E+000	0.0000000E+000	84.2552	0.0000000E+000	0.0000000E+000	0.0000000E+000	-84.2552	0.0000000E+000	0.0000000E+000	0.0000000E+000	-5.74477	0.0000000E+000	0.0000000E+000	0.0000000E+000	5.74477	9.94011	84.2552	-0.000305148
423.239	0.15651	0.0101645	0.15684	-3.71585	111890	9.30775e-05	-0.986046	36995.3	155.385	1	37	0.00517038	0.0329659	0	-0.00561633	24.5	0.293827	0.199986	5.88321	4.03775e-06	4.84695e-06	4.30241e-06	7.58535e-06	4.38584e-06	7.66255e-06	0.0741357	0.0164364	0.642092	4.68955e-06	1.58697e-05	9.54761e-06	1.34503e-05	3.49212e-06	3.64046e-06	6.36252	0.413213	6.37592	3.71585	155384	2.39256e+06	2.3976e+06	-86.2842	0.0000000E+000	0.0000000E+000	0.0000000E+000	86.2842	0.0000000E+000	0.0000000E+000	0.0000000E+000	-86.2842	0.0000000E+000	0.0000000E+000	0.0000000E+000	-3.71585	0.0000000E+000	0.0000000E+000	0.0000000E+000	3.71585	15.3977	86.2842	-0.000313807
211.149	0.159015	0.00640104	0.159144	-2.30515	111893	9.80172e-05	-0.928091	117756	190.502	1	37	0.00547156	0.0343811	0	-0.00644885	24.5	0.267107	0.0941347	5.6331	3.27921e-06	7.96302e-06	6.37307e-06	7.0387e-06	4.31087e-06	3.20321e-06	0.0876974	0.0234223	0.605369	3.30288e-06	2.11354e-05	7.60053e-06	1.81976e-05	4.42557e-06	4.07348e-06	6.27852	0.252737	6.28361	2.30515	190503	4.73249e+06	4.73632e+06	-87.6948	0.0000000E+000	0.0000000E+000	0.0000000E+000	87.6948	0.0000000E+000	0.0000000E+000	0.0000000E+000	-87.6948	0.0000000E+000	0.0000000E+000	0.0000000E+000	-2.30515	0.0000000E+000	0.0000000E+000	0.0000000E+000	2.30515	24.8421	87.6948	-0.000254749
105.438	0.160428	0.00435022	0.160487	-1.55328	111896	0.000106629	-0.892227	346984	254.95	1	37	0.00508672	0.0316956	0	-0.00736986	24.5	0.303269	0.144584	5.89258	6.46141e-06	4.59984e-06	4.76852e-06	3.01194e-06	7.68229e-06	7.93863e-06	0.109772	0.0289845	0.647337	8.58437e-06	2.30477e-05	7.17278e-06	2.12683e-05	3.89516e-06	7.74176e-06	6.22876	0.168902	6.23105	1.55328	254950	9.40206e+06	9.40552e+06	-88.4467	0.0000000E+000	0.0000000E+000	0.0000000E+000	88.4467	0.0000000E+000	0.0000000E+000	0.0000000E+000	-88.4467	0.0000000E+000	0.0000000E+000	0.0000000E+000	-1.55328	0.0000000E+000	0.0000000E+000	0.0000000E+000	1.55328	36.878	88.4467	-0.000290514
52.6255	0.161452	0.00316121	0.161483	-1.1217	111900	0.000109873	-0.881283	956689	366.627	1	37	0.00510006	0.0315827	0	-0.0082699	24.5	0.22569	0.234373	5.96973	2.96132e-06	2.68013e-06	5.83913e-06	5.17248e-06	4.23812e-06	5.04545e-06	0.124243	0.104731	0.651027	6.66288e-06	2.76621e-05	3.71524e-06	2.47708e-05	5.68903e-06	4.93393e-06	6.19143	0.121228	6.19262	1.1217	366628	1.87247e+07	1.87283e+07	-88.8783	0.0000000E+000	0.0000000E+000	0.0000000E+000	88.8783	0.0000000E+000	0.0000000E+000	0.0000000E+000	-88.8783	0.0000000E+000	0.0000000E+000	0.0000000E+000	-1.1217	0.0000000E+000	0.0000000E+000	0.0000000E+000	1.1217	51.0728	88.8783	-0.000283361
26.2693	0.162168	0.00264291	0.162189	-0.933689	111903	0.00011457	-0.816498	2.29239e+06	608.709	1	37	0.00510431	0.0314713	0	-0.00904559	24.5	0.322022	0.114277	5.97412	4.51002e-06	5.88896e-06	7.03578e-06	6.69583e-06	6.70192e-06	4.86227e-06	0.142568	0.0444736	0.653056	2.86447e-05	2.15222e-05	7.54072e-06	2.21964e-05	9.62546e-06	5.06351e-06	6.16482	0.100471	6.16564	0.933689	608711	3.73501e+07	3.7355e+07	-89.0663	0.0000000E+000	0.0000000E+000	0.0000000E+000	89.0663	0.0000000E+000	0.0000000E+000	0.0000000E+000	-89.0663	0.0000000E+000	0.0000000E+000	0.0000000E+000	-0.933689	0.0000000E+000	0.0000000E+000	0.0000000E+000	0.933689	61.3595	89.0663	-0.000171412
13.1083	0.162964	0.00280273	0.162988	-0.985301	111906	0.000109957	-0.880567	4.33206e+06	1280.99	1	37	0.00510195	0.0313026	0	-0.00984768	24.5	0.515016	0.115305	4.11996	2.83927e-06	6.74318e-06	3.45864e-06	2.36522e-05	3.65386e-06	4.23504e-06	0.135672	0.142109	0.47252	8.40096e-06	2.02224e-05	2.42898e-05	2.56744e-05	3.49336e-06	4.67944e-06	6.13451	0.105504	6.13542	0.985301	1.28098e+06	7.44827e+07	7.44937e+07	-89.0147	0.0000000E+000	0.0000000E+000	0.0000000E+000	89.0147	0.0000000E+000	0.0000000E+000	0.0000000E+000	-89.0147	0.0000000E+000	0.0000000E+000	0.0000000E+000	-0.985301	0.0000000E+000	0.0000000E+000	0.0000000E+000	0.985301	58.1448	89.0147	-0.000120766
6.54313	0.163903	0.0035164	0.163941	-1.22904	111910	0.000126137	-0.829256	6.9173e+06	3182.42	1	37	0.00510248	0.0311239	0	-0.0106293	24.5	0.234522	0.14282	4.38942	5.41183e-06	4.08997e-06	4.19937e-06	5.88803e-06	4.86708e-06	1.7356e-06	0.187702	0.0845943	0.509314	4.04673e-05	3.14405e-05	1.15496e-05	2.25048e-05	4.7683e-06	7.80354e-06	6.09836	0.130835	6.09976	1.22904	3.18243e+06	1.48336e+08	1.4837e+08	-88.771	0.0000000E+000	0.0000000E+000	0.0000000E+000	88.771	0.0000000E+000	0.0000000E+000	0.0000000E+000	-88.771	0.0000000E+000	0.0000000E+000	0.0000000E+000	-1.22904	0.0000000E+000	0.0000000E+000	0.0000000E+000	1.22904	46.6111	88.771	-0.000326822
3.26541	0.165403	0.0045176	0.165465	-1.56451	111916	0.000110059	-0.863524	1.07888e+07	8042.28	1	37	0.00510491	0.030852	0	-0.0120414	24.5	0.180466	0.0704022	2.5307	4.70609e-06	4.44726e-06	1.69273e-06	4.13313e-06	3.03333e-06	2.30894e-06	0.177879	0.0744347	0.414699	1.62834e-05	3.02434e-05	6.76482e-06	4.05346e-05	4.91058e-06	4.67691e-06	6.04133	0.165005	6.04358	1.56451	8.04229e+06	2.94452e+08	2.94562e+08	-88.4355	0.0000000E+000	0.0000000E+000	0.0000000E+000	88.4355	0.0000000E+000	0.0000000E+000	0.0000000E+000	-88.4355	0.0000000E+000	0.0000000E+000	0.0000000E+000	-1.56451	0.0000000E+000	0.0000000E+000	0.0000000E+000	1.56451	36.613	88.4355	-0.000424201
1.63084	0.167069	0.00639125	0.167191	-2.19079	111926	0.000111022	-0.839248	1.52695e+07	22313.5	1	37	0.00510293	0.0305215	0	-0.0145879	24.5	0.151695	0.0616155	1.6792	3.76472e-06	3.85098e-06	3.05051e-06	2.18981e-06	2.25598e-06	2.60934e-06	0.120343	0.0543968	0.378775	1.08278e-05	2.04457e-05	9.62027e-06	2.52738e-05	4.70595e-06	5.76815e-06	5.9768	0.228643	5.98117	2.19079	2.23135e+07	5.83282e+08	5.83708e+08	-87.8092	0.0000000E+000	0.0000000E+000	0.0000000E+000	87.8092	0.0000000E+000	0.0000000E+000	0.0000000E+000	-87.8092	0.0000000E+000	0.0000000E+000	0.0000000E+000	-2.19079	0.0000000E+000	0.0000000E+000	0.0000000E+000	2.19079	26.1403	87.8092	-0.00139859
0.813551	0.169341	0.00960507	0.169614	-3.24635	111945	0.000106735	-0.914631	2.03674e+07	65315.3	1	37	0.00510064	0.0300721	0	-0.0192055	24.5	0.128265	0.0754786	1.18074	1.26905e-06	4.64277e-06	1.40527e-06	2.66144e-06	1.82552e-06	1.98073e-06	0.148483	0.109078	0.363602	1.21637e-05	2.78942e-05	1.10212e-05	2.70898e-05	5.95919e-06	7.68527e-06	5.8863	0.333872	5.89576	3.24635	6.53152e+07	1.15154e+09	1.15339e+09	-86.7537	0.0000000E+000	0.0000000E+000	0.0000000E+000	86.7537	0.0000000E+000	0.0000000E+000	0.0000000E+000	-86.7537	0.0000000E+000	0.0000000E+000	0.0000000E+000	-3.24635	0.0000000E+000	0.0000000E+000	0.0000000E+000	3.24635	17.6304	86.7537	-0.0024445
0.406108	0.175928	0.014848	0.176553	-4.82424	111982	0.000121697	-0.842828	2.63943e+07	186679	1	37	0.005099	0.0288808	0	-0.0255287	24.5	0.116736	0.0974205	0.841967	1.39636e-06	4.49622e-06	1.25314e-06	2.84187e-06	6.81647e-07	1.31807e-06	0.139851	0.119481	0.364129	9.58533e-06	2.48771e-05	8.17609e-06	2.49008e-05	3.59255e-06	6.83541e-06	5.64395	0.476341	5.66401	4.82424	1.86679e+08	2.21188e+09	2.21974e+09	-85.1758	0.0000000E+000	0.0000000E+000	0.0000000E+000	85.1758	0.0000000E+000	0.0000000E+000	0.0000000E+000	-85.1758	0.0000000E+000	0.0000000E+000	0.0000000E+000	-4.82424	0.0000000E+000	0.0000000E+000	0.0000000E+000	4.82424	11.8486	85.1758	-0.00199425
0.202719	0.186032	0.0148274	0.186622	-4.55703	112056	0.000129364	-0.722262	5.29493e+07	334244	1	37	0.00509817	0.0273181	0	-0.0475141	24.5	0.112219	0.0689536	0.582434	2.15053e-06	4.55739e-06	6.73316e-07	2.1171e-06	9.46898e-07	4.8814e-07	0.132957	0.0763029	0.359396	3.80308e-06	2.63346e-05	6.24681e-06	2.2943e-05	3.32519e-06	4.1845e-06	5.34148	0.425734	5.35842	4.55703	3.34244e+08	4.1936e+09	4.2069e+09	-85.443	0.0000000E+000	0.0000000E+000	0.0000000E+000	85.443	0.0000000E+000	0.0000000E+000	0.0000000E+000	-85.443	0.0000000E+000	0.0000000E+000	0.0000000E+000	-4.55703	0.0000000E+000	0.0000000E+000	0.0000000E+000	4.55703	12.5465	85.443	-0.00431445
0.101164	0.193116	0.0111031	0.193435	-3.29056	112204	0.000125346	-0.80564	1.41694e+08	466841	1	37	0.00509482	0.0263387	0	-0.0685286	24.5	0.0948707	0.0787338	0.44318	1.60849e-06	3.8437e-06	1.06624e-06	1.62407e-06	9.57541e-07	9.74561e-07	0.120881	0.122915	0.341428	9.79584e-06	2.09013e-05	4.48505e-06	1.86149e-05	6.16731e-06	5.66145e-06	5.16118	0.296739	5.16971	3.29056	4.66841e+08	8.11977e+09	8.13317e+09	-86.7094	0.0000000E+000	0.0000000E+000	0.0000000E+000	86.7094	0.0000000E+000	0.0000000E+000	0.0000000E+000	-86.7094	0.0000000E+000	0.0000000E+000	0.0000000E+000	-3.29056	0.0000000E+000	0.0000000E+000	0.0000000E+000	3.29056	17.393	86.7094	-0.014778
0.0505041	0.197052	0.00733345	0.197188	-2.13133	112497	0.000113329	-0.794787	4.2972e+08	594347	1	37	0.00509515	0.025839	0	-0.162296	24.5	0.116175	0.130883	0.32785	1.32591e-06	4.75403e-06	8.53466e-07	2.70132e-06	1.13561e-06	6.3561e-07	0.152519	0.186354	0.321812	8.39481e-06	2.6717e-05	6.63732e-06	2.54075e-05	1.95471e-06	3.20902e-06	5.06779	0.188602	5.0713	2.13133	5.94347e+08	1.59703e+10	1.59813e+10	-87.8687	0.0000000E+000	0.0000000E+000	0.0000000E+000	87.8687	0.0000000E+000	0.0000000E+000	0.0000000E+000	-87.8687	0.0000000E+000	0.0000000E+000	0.0000000E+000	-2.13133	0.0000000E+000	0.0000000E+000	0.0000000E+000	2.13133	26.8703	87.8687	-0.0338462
0.0252177	0.199115	0.0047237	0.199171	-1.359	113085	0.000132876	-0.81178	1.33608e+09	751526	1	37	0.00509211	0.0255665	0	-0.243035	24.5	0.113808	0.171036	0.258044	1.8107e-06	4.1933e-06	2.0022e-06	2.39227e-06	8.6766e-07	8.1586e-07	0.139672	0.143161	0.290236	1.31073e-05	2.04613e-05	8.07643e-06	2.19325e-05	4.26453e-06	6.67081e-06	5.01939	0.119077	5.0208	1.359	7.51527e+08	3.16786e+10	3.16875e+10	-88.641	0.0000000E+000	0.0000000E+000	0.0000000E+000	88.641	0.0000000E+000	0.0000000E+000	0.0000000E+000	-88.641	0.0000000E+000	0.0000000E+000	0.0000000E+000	-1.359	0.0000000E+000	0.0000000E+000	0.0000000E+000	1.359	42.1524	88.641	-0.0266379
174510	0.08384	-0.0157695	0.0853101	10.6523	113393	0.000238624	-0.426591	-57.8339	-1.97613	2	37	0.00429848	0.0503865	0	-0.29124	24.5	-1	-1	-1	0	0	0	0	0	0	-1	-1	-1	0	0	0	0	0	0	11.5199	-2.16678	11.7219	-10.6523	-1976.13	10506.3	10690.5	-100.652	0.0000000E+000	0.0000000E+000	0.0000000E+000	100.652	0.0000000E+000	0.0000000E+000	0.0000000E+000	-100.652	0.0000000E+000	0.0000000E+000	0.0000000E+000	10.6523	0.0000000E+000	0.0000000E+000	0.0000000E+000	-10.6523	5.31661	79.3477	-8.85252e-05
87106.6	0.0887016	-0.00198797	0.0887239	1.28389	113396	0.000219331	-0.374684	-919.091	-0.461422	2	37	0.00523317	0.0589826	0	-0.291818	24.5	0.340159	0.211898	5.83966	6.39894e-06	9.86089e-06	6.34336e-06	4.70238e-06	6.76357e-06	5.74078e-06	0.0951676	0.0227236	0.341669	1.19377e-05	5.424e-05	4.09017e-06	3.11046e-06	3.01267e-06	3.67411e-06	11.2681	-0.252539	11.2709	-1.28389	-461.421	20588.3	20593.4	-91.2839	0.0000000E+000	0.0000000E+000	0.0000000E+000	91.2839	0.0000000E+000	0.0000000E+000	0.0000000E+000	-91.2839	0.0000000E+000	0.0000000E+000	0.0000000E+000	1.28389	0.0000000E+000	0.0000000E+000	0.0000000E+000	-1.28389	44.6191	88.7161	-0.00024138
43479.1	0.0932379	0.00724965	0.0935194	-4.44605	113400	0.000212639	-0.358287	504.921	3.03427	2	37	0.00521163	0.0557278	0	-0.292119	24.5	0.306157	0.131058	5.8411	4.21492e-06	7.27965e-06	8.51535e-06	5.60121e-06	6.96117e-06	3.28761e-06	0.12351	0.0372253	0.365835	7.18395e-06	6.74284e-05	4.20234e-06	8.83328e-06	1.61997e-06	5.76064e-06	10.6608	0.828922	10.693	4.44605	3034.27	39023.8	39141.6	-85.554	0.0000000E+000	0.0000000E+000	0.0000000E+000	85.554	0.0000000E+000	0.0000000E+000	0.0000000E+000	-85.554	0.0000000E+000	0.0000000E+000	0.0000000E+000	-4.44605	0.0000000E+000	0.0000000E+000	0.0000000E+000	4.44605	12.861	85.554	-0.000124429
21702.4	0.0998682	0.0146833	0.100942	-8.3641	113403	0.000206525	-0.384138	499.445	10.568	2	37	0.00519116	0.0514272	0	-0.292551	24.5	0.29361	0.212452	5.8736	7.79982e-06	5.5767e-06	3.37222e-06	4.93381e-06	7.47355e-06	4.35865e-06	0.112109	0.0618616	0.408108	4.96821e-06	5.57783e-05	4.09855e-06	6.86629e-06	4.74274e-06	7.23013e-06	9.80133	1.44106	9.9067	8.3641	10568	71878.1	72650.9	-81.6359	0.0000000E+000	0.0000000E+000	0.0000000E+000	81.6359	0.0000000E+000	0.0000000E+000	0.0000000E+000	-81.6359	0.0000000E+000	0.0000000E+000	0.0000000E+000	-8.3641	0.0000000E+000	0.0000000E+000	0.0000000E+000	8.3641	6.80147	81.6359	-0.000229746
10837.3	0.109429	0.020484	0.111329	-10.6025	113407	0.000224588	-0.285517	716.943	24.2714	2	37	0.00517499	0.0464836	0	-0.292881	24.5	0.340107	0.114416	5.9285	6.49784e-06	5.58735e-06	4.712e-06	7.25176e-06	6.70585e-06	7.41373e-06	0.119149	0.0298745	0.440314	5.26464e-06	3.34549e-05	3.93808e-06	4.9071e-06	3.6452e-06	4.26682e-05	8.82901	1.6527	8.98236	10.6025	24271.4	129662	131914	-79.3975	0.0000000E+000	0.0000000E+000	0.0000000E+000	79.3975	0.0000000E+000	0.0000000E+000	0.0000000E+000	-79.3975	0.0000000E+000	0.0000000E+000	0.0000000E+000	-10.6025	0.0000000E+000	0.0000000E+000	0.0000000E+000	10.6025	5.34216	79.3975	-0.000148083
5406.63	0.121696	0.0239087	0.124022	-11.1149	113410	9.70106e-05	-0.904901	1231.22	45.7562	2	37	0.00519133	0.041858	0	-0.293795	24.5	0.299674	0.230656	5.77925	5.13383e-06	8.05829e-06	3.97165e-06	6.53724e-06	3.39714e-06	7.49309e-06	0.0801476	0.0970072	0.496675	2.88154e-06	3.03359e-05	8.45739e-06	6.38044e-06	6.05904e-06	4.93893e-06	7.91182	1.55438	8.06306	11.1149	45756.2	232900	237352	-78.8851	0.0000000E+000	0.0000000E+000	0.0000000E+000	78.8851	0.0000000E+000	0.0000000E+000	0.0000000E+000	-78.8851	0.0000000E+000	0.0000000E+000	0.0000000E+000	-11.1149	0.0000000E+000	0.0000000E+000	0.0000000E+000	11.1149	5.09003	78.8851	-0.000338314
2699.14	0.134952	0.0234582	0.136976	-9.86096	113414	9.90984e-05	-0.866264	2513.63	73.7227	2	37	0.00514126	0.037534	0	-0.294735	24.5	0.313517	0.118947	5.85875	7.05505e-06	6.91079e-06	4.70305e-06	2.9536e-06	6.30433e-06	5.60179e-06	0.0443486	0.0208476	0.553667	2.56732e-06	1.22381e-05	3.97472e-06	7.29311e-06	5.88821e-06	2.72534e-06	7.1927	1.25028	7.30055	9.86096	73722.7	424118	430478	-80.139	0.0000000E+000	0.0000000E+000	0.0000000E+000	80.139	0.0000000E+000	0.0000000E+000	0.0000000E+000	-80.139	0.0000000E+000	0.0000000E+000	0.0000000E+000	-9.86096	0.0000000E+000	0.0000000E+000	0.0000000E+000	9.86096	5.75288	80.139	-0.000328208
1347.15	0.146603	0.019186	0.147853	-7.45597	113418	0.00010292	-0.882921	6157.69	103.688	2	37	0.0051321	0.0347109	0	-0.295822	24.5	0.335604	0.138636	5.92187	1.06002e-05	3.02676e-06	5.77479e-06	7.37726e-06	4.11964e-06	5.85143e-06	0.0428233	0.0362184	0.597948	2.71039e-06	4.50891e-06	7.10955e-06	7.18171e-06	7.31123e-06	4.36597e-06	6.70629	0.877658	6.76348	7.45597	103688	792292	799048	-82.544	0.0000000E+000	0.0000000E+000	0.0000000E+000	82.544	0.0000000E+000	0.0000000E+000	0.0000000E+000	-82.544	0.0000000E+000	0.0000000E+000	0.0000000E+000	-7.45597	0.0000000E+000	0.0000000E+000	0.0000000E+000	7.45597	7.64112	82.544	-0.000401492
672.366	0.153966	0.0136481	0.15457	-5.06565	113422	0.000142028	-0.821132	17343.7	135.218	2	37	0.00503769	0.0325916	0	-0.296761	24.5	0.322563	0.123364	6.04049	6.33391e-06	5.4189e-06	7.98154e-06	5.71229e-06	5.79823e-06	6.21599e-06	0.0533145	0.0244492	0.637742	2.93691e-06	1.08434e-05	6.06054e-06	1.02688e-05	3.77759e-06	2.58423e-06	6.44429	0.571243	6.46956	5.06565	135218	1.52542e+06	1.5314e+06	-84.9343	0.0000000E+000	0.0000000E+000	0.0000000E+000	84.9343	0.0000000E+000	0.0000000E+000	0.0000000E+000	-84.9343	0.0000000E+000	0.0000000E+000	0.0000000E+000	-5.06565	0.0000000E+000	0.0000000E+000	0.0000000E+000	5.06565	11.2812	84.9343	-0.000288703
335.537	0.158047	0.00874815	0.158289	-3.16818	113426	0.000129296	-0.818173	54220.5	165.614	2	37	0.00516849	0.0326523	0	-0.297619	24.5	0.351333	0.164	5.87659	5.31072e-06	9.26215e-06	7.74093e-06	6.74288e-06	6.81753e-06	5.72167e-06	0.0833156	0.0238326	0.625136	6.46366e-06	1.97512e-05	5.47594e-06	1.44941e-05	4.08208e-06	4.38343e-06	6.30791	0.349153	6.31757	3.16818	165614	2.99203e+06	2.99661e+06	-86.8318	0.0000000E+000	0.0000000E+000	0.0000000E+000	86.8318	0.0000000E+000	0.0000000E+000	0.0000000E+000	-86.8318	0.0000000E+000	0.0000000E+000	0.0000000E+000	-3.16818	0.0000000E+000	0.0000000E+000	0.0000000E+000	3.16818	18.0663	86.8318	-0.000267819
167.481	0.160116	0.00569413	0.160217	-2.03672	113429	0.000125811	-0.830679	166889	210.796	2	37	0.0053563	0.0334314	0	-0.298396	24.5	0.343543	0.128081	5.73671	8.35049e-06	8.72228e-06	3.5841e-06	5.56968e-06	9.8878e-06	4.71064e-06	0.101378	0.0278069	0.615958	5.6444e-06	2.46374e-05	6.53907e-06	1.98458e-05	5.98154e-06	2.05699e-06	6.23757	0.221823	6.24152	2.03672	210796	5.92749e+06	5.93123e+06	-87.9633	0.0000000E+000	0.0000000E+000	0.0000000E+000	87.9633	0.0000000E+000	0.0000000E+000	0.0000000E+000	-87.9633	0.0000000E+000	0.0000000E+000	0.0000000E+000	-2.03672	0.0000000E+000	0.0000000E+000	0.0000000E+000	2.03672	28.1195	87.9633	-0.000294057
83.635	0.161205	0.0038624	0.161251	-1.37252	113433	0.000122082	-0.84259	492692	282.672	2	37	0.00539866	0.0334798	0	-0.299159	24.5	0.213702	0.163846	5.65885	4.34421e-06	3.90386e-06	3.5096e-06	3.29497e-06	5.23507e-06	5.64028e-06	0.101403	0.0189885	0.614119	4.04162e-06	2.25746e-05	5.44528e-06	2.25862e-05	4.46168e-06	6.32599e-06	6.19973	0.148543	6.20151	1.37252	282673	1.17979e+07	1.18013e+07	-88.6275	0.0000000E+000	0.0000000E+000	0.0000000E+000	88.6275	0.0000000E+000	0.0000000E+000	0.0000000E+000	-88.6275	0.0000000E+000	0.0000000E+000	0.0000000E+000	-1.37252	0.0000000E+000	0.0000000E+000	0.0000000E+000	1.37252	41.737	88.6275	-0.00024156
41.7501	0.162056	0.0029819	0.162084	-1.05415	113436	0.000131571	-0.81579	1.27841e+06	432.689	2	37	0.0054116	0.0333876	0	-0.299962	24.5	0.331998	0.215582	5.59587	5.7324e-06	9.19712e-06	7.32393e-06	5.7093e-06	5.18375e-06	4.58264e-06	0.114235	0.0677715	0.615212	6.04759e-06	2.44432e-05	4.55168e-06	2.19016e-05	1.44709e-05	5.3502e-06	6.16861	0.113505	6.16965	1.05415	432689	2.35152e+07	2.35192e+07	-88.9459	0.0000000E+000	0.0000000E+000	0.0000000E+000	88.9459	0.0000000E+000	0.0000000E+000	0.0000000E+000	-88.9459	0.0000000E+000	0.0000000E+000	0.0000000E+000	-1.05415	0.0000000E+000	0.0000000E+000	0.0000000E+000	1.05415	54.3466	88.9459	-0.000289244
20.8333	0.16283	0.00275676	0.162854	-0.969937	113439	0.00013802	-0.797514	2.77117e+06	794.08	2	37	0.00541107	0.0332266	0	-0.300774	24.5	0.301966	0.158117	5.57191	8.50292e-06	4.98825e-06	3.24302e-06	5.91635e-06	7.37922e-06	6.49014e-06	0.11197	0.185983	0.5848	7.87524e-06	2.51441e-05	6.31362e-06	2.2594e-05	5.0467e-06	8.39258e-06	6.1396	0.103945	6.14048	0.969937	794082	4.69031e+07	4.69098e+07	-89.0301	0.0000000E+000	0.0000000E+000	0.0000000E+000	89.0301	0.0000000E+000	0.0000000E+000	0.0000000E+000	-89.0301	0.0000000E+000	0.0000000E+000	0.0000000E+000	-0.969937	0.0000000E+000	0.0000000E+000	0.0000000E+000	0.969937	59.066	89.0301	-0.000374549
10.3959	0.163892	0.0029227	0.163918	-1.02165	113443	0.000133901	-0.789269	5.23811e+06	1665.29	2	37	0.00541501	0.0330348	0	-0.301396	24.5	0.366761	0.16292	5.63543	5.67775e-06	7.76199e-06	5.10252e-06	3.58791e-06	6.26235e-06	1.41853e-05	0.163052	0.199978	0.586145	1.24996e-05	2.43464e-05	8.68544e-06	4.26346e-05	5.65444e-06	8.3461e-06	6.09963	0.108775	6.1006	1.02165	1.66529e+06	9.33819e+07	9.33967e+07	-88.9783	0.0000000E+000	0.0000000E+000	0.0000000E+000	88.9783	0.0000000E+000	0.0000000E+000	0.0000000E+000	-88.9783	0.0000000E+000	0.0000000E+000	0.0000000E+000	-1.02165	0.0000000E+000	0.0000000E+000	0.0000000E+000	1.02165	56.0756	88.9783	-0.000172734
5.19276	0.164895	0.00373527	0.164937	-1.29767	113447	0.000145278	-0.772369	8.2054e+06	4208.33	2	37	0.00541229	0.0328143	0	-0.302369	24.5	0.183745	0.0938318	3.29414	4.89493e-06	4.97427e-06	1.90518e-06	4.10911e-06	3.76341e-06	3.01032e-06	0.212269	0.0394561	0.402449	5.33516e-06	6.34932e-05	5.04672e-06	2.56656e-05	2.56703e-06	4.79723e-06	6.06137	0.137305	6.06293	1.29767	4.20832e+06	1.85778e+08	1.85825e+08	-88.7023	0.0000000E+000	0.0000000E+000	0.0000000E+000	88.7023	0.0000000E+000	0.0000000E+000	0.0000000E+000	-88.7023	0.0000000E+000	0.0000000E+000	0.0000000E+000	-1.29767	0.0000000E+000	0.0000000E+000	0.0000000E+000	1.29767	44.1452	88.7023	-8.3042e-05
2.58949	0.166353	0.00512365	0.166432	-1.76414	113453	0.00014247	-0.747268	1.19957e+07	11368.7	2	37	0.005412	0.0325178	0	-0.303582	24.5	0.139207	0.0661652	2.00076	1.20663e-06	5.92763e-06	2.24688e-06	2.53574e-06	1.31242e-06	2.253e-06	0.199922	0.0394653	0.338619	3.37959e-06	2.74769e-05	8.82346e-06	2.62935e-05	4.99411e-05	9.92755e-06	6.00561	0.184972	6.00846	1.76414	1.13687e+07	3.69116e+08	3.69291e+08	-88.2359	0.0000000E+000	0.0000000E+000	0.0000000E+000	88.2359	0.0000000E+000	0.0000000E+000	0.0000000E+000	-88.2359	0.0000000E+000	0.0000000E+000	0.0000000E+000	-1.76414	0.0000000E+000	0.0000000E+000	0.0000000E+000	1.76414	32.4677	88.2359	-0.000507409
1.29325	0.168263	0.00722271	0.168418	-2.45792	113466	0.000130121	-0.75031	1.70388e+07	31337.4	2	37	0.00541062	0.0321262	0	-0.306111	24.5	0.122202	0.106825	1.39046	1.35802e-06	3.40806e-06	1.72402e-06	3.85208e-06	1.86483e-06	2.12002e-06	0.124836	0.060583	0.353396	1.36569e-05	2.14696e-05	7.79165e-06	2.78622e-05	7.30191e-06	4.59546e-06	5.93216	0.254639	5.93762	2.45792	3.13374e+07	7.30047e+08	7.30719e+08	-87.5421	0.0000000E+000	0.0000000E+000	0.0000000E+000	87.5421	0.0000000E+000	0.0000000E+000	0.0000000E+000	-87.5421	0.0000000E+000	0.0000000E+000	0.0000000E+000	-2.45792	0.0000000E+000	0.0000000E+000	0.0000000E+000	2.45792	23.2963	87.5421	0.00065187
0.645874	0.17128	0.011437	0.171662	-3.82017	113490	0.000156185	-0.756418	2.15457e+07	95639.5	2	37	0.0054106	0.031519	0	-0.31255	24.5	0.127733	0.0565875	0.990464	2.9692e-06	4.80533e-06	1.05179e-06	2.13146e-06	1.95254e-06	1.93314e-06	0.138585	0.129451	0.348658	1.30459e-05	2.8256e-05	1.41473e-05	2.16411e-05	1.08927e-05	5.88455e-06	5.81247	0.388119	5.82542	3.82017	9.56394e+07	1.4323e+09	1.43549e+09	-86.1798	0.0000000E+000	0.0000000E+000	0.0000000E+000	86.1798	0.0000000E+000	0.0000000E+000	0.0000000E+000	-86.1798	0.0000000E+000	0.0000000E+000	0.0000000E+000	-3.82017	0.0000000E+000	0.0000000E+000	0.0000000E+000	3.82017	14.976	86.1798	-0.00465728
0.322118	0.179876	0.015509	0.180544	-4.92786	113537	0.000142389	-0.774253	3.18582e+07	235084	2	37	0.00540742	0.0299507	0	-0.317732	24.5	0.120884	0.0673578	0.705501	2.16776e-06	4.9902e-06	9.5107e-07	2.61762e-06	1.28111e-06	1.07038e-06	0.134354	0.127508	0.344656	1.0568e-05	2.82333e-05	8.59189e-06	2.16525e-05	7.01309e-06	4.99665e-06	5.51835	0.475793	5.53882	4.92786	2.35084e+08	2.72655e+09	2.73667e+09	-85.0721	0.0000000E+000	0.0000000E+000	0.0000000E+000	85.0721	0.0000000E+000	0.0000000E+000	0.0000000E+000	-85.0721	0.0000000E+000	0.0000000E+000	0.0000000E+000	-4.92786	0.0000000E+000	0.0000000E+000	0.0000000E+000	4.92786	11.5982	85.0721	-0.00210589
0.160792	0.189389	0.0139031	0.189899	-4.19858	113630	0.000147491	-0.723617	7.11937e+07	381613	2	37	0.00540611	0.0284684	0	-0.347713	24.5	0.123719	0.0620881	0.496207	2.22531e-06	5.25877e-06	7.14053e-07	2.95629e-06	7.79367e-07	7.19579e-07	0.136091	0.0949486	0.325222	5.56819e-06	2.82529e-05	5.19285e-06	2.46008e-05	3.91824e-06	2.34068e-06	5.25183	0.38554	5.26597	4.19858	3.81613e+08	5.19835e+09	5.21234e+09	-85.8014	0.0000000E+000	0.0000000E+000	0.0000000E+000	85.8014	0.0000000E+000	0.0000000E+000	0.0000000E+000	-85.8014	0.0000000E+000	0.0000000E+000	0.0000000E+000	-4.19858	0.0000000E+000	0.0000000E+000	0.0000000E+000	4.19858	13.622	85.8014	-0.00863587
0.0802383	0.195098	0.00976028	0.195342	-2.86398	113815	0.000128546	-0.792503	2.03225e+08	507352	2	37	0.00540372	0.0276629	0	-0.366504	24.5	0.105555	0.0611998	0.374181	1.87715e-06	4.16374e-06	1.17311e-06	2.48713e-06	7.44331e-07	1.21938e-06	0.136266	0.0715065	0.316067	1.13978e-05	2.06326e-05	6.36599e-06	2.70361e-05	4.83356e-06	4.18258e-06	5.11283	0.255783	5.11923	2.86398	5.07353e+08	1.01415e+10	1.01541e+10	-87.136	0.0000000E+000	0.0000000E+000	0.0000000E+000	87.136	0.0000000E+000	0.0000000E+000	0.0000000E+000	-87.136	0.0000000E+000	0.0000000E+000	0.0000000E+000	-2.86398	0.0000000E+000	0.0000000E+000	0.0000000E+000	2.86398	19.989	87.136	-0.0115897
0.04008	0.198162	0.00631895	0.198263	-1.82642	114185	0.000125426	-0.801677	6.28417e+08	638345	2	37	0.00540259	0.0272496	0	-0.484648	24.5	0.105197	0.0651567	0.281803	1.28776e-06	4.26915e-06	1.58219e-06	2.61118e-06	6.85869e-07	8.987e-07	0.127512	0.122888	0.296773	1.25058e-05	2.07142e-05	8.7688e-06	1.88197e-05	4.68484e-06	6.00669e-06	5.04125	0.160754	5.04381	1.82642	6.38345e+08	2.00185e+10	2.00286e+10	-88.1736	0.0000000E+000	0.0000000E+000	0.0000000E+000	88.1736	0.0000000E+000	0.0000000E+000	0.0000000E+000	-88.1736	0.0000000E+000	0.0000000E+000	0.0000000E+000	-1.82642	0.0000000E+000	0.0000000E+000	0.0000000E+000	1.82642	31.36	88.1736	-0.0523855
0.0199946	0.200079	0.00404166	0.20012	-1.15724	114926	0.000122531	-0.863114	1.96946e+09	803318	2	37	0.00540305	0.0269991	0	-0.613776	24.5	0.110583	0.109785	0.230263	2.08348e-06	4.72135e-06	9.48475e-07	2.42823e-06	5.05194e-07	8.32921e-07	0.145015	0.182683	0.258784	2.22777e-05	2.21814e-05	6.06441e-06	1.95006e-05	5.98094e-06	4.11935e-06	4.99599	0.100921	4.99701	1.15724	8.03316e+08	3.97675e+10	3.97757e+10	-88.8428	0.0000000E+000	0.0000000E+000	0.0000000E+000	88.8428	0.0000000E+000	0.0000000E+000	0.0000000E+000	-88.8428	0.0000000E+000	0.0000000E+000	0.0000000E+000	-1.15724	0.0000000E+000	0.0000000E+000	0.0000000E+000	1.15724	49.5041	88.8428	-0.0370965
138435	0.0857495	-0.0103725	0.0863745	6.89713	114929	0.000222332	-0.370329	-110.839	-1.59839	3	37	0.00511482	0.0592168	0	-0.61494	24.5	-1	-1	-1	0	0	0	0	0	0	-1	-1	-1	0	0	0	0	0	0	11.4937	-1.39031	11.5775	-6.89713	-1598.39	13214	13310.3	-96.8971	0.0000000E+000	0.0000000E+000	0.0000000E+000	96.8971	0.0000000E+000	0.0000000E+000	0.0000000E+000	-96.8971	0.0000000E+000	0.0000000E+000	0.0000000E+000	6.89713	0.0000000E+000	0.0000000E+000	0.0000000E+000	-6.89713	8.26703	83.1029	-0.0001689
69097	0.0900658	0.00132422	0.0900755	-0.842349	114933	0.00022319	-0.263779	1739.4	0.375931	3	37	0.00522613	0.0580195	0	-0.615356	24.5	0.331708	0.111416	5.78078	5.50929e-06	8.33497e-06	4.11121e-06	8.99002e-06	3.88226e-06	6.34167e-06	0.111343	0.0595425	0.353457	1.41656e-05	6.26548e-05	1.89404e-06	4.72001e-06	2.88781e-06	3.1544e-06	11.1006	0.16321	11.1018	0.842349	375.929	25568.6	25571.4	-89.1577	0.0000000E+000	0.0000000E+000	0.0000000E+000	89.1577	0.0000000E+000	0.0000000E+000	0.0000000E+000	-89.1577	0.0000000E+000	0.0000000E+000	0.0000000E+000	-0.842349	0.0000000E+000	0.0000000E+000	0.0000000E+000	0.842349	68.0142	89.1577	-8.40658e-05
34488.2	0.0952028	0.00998962	0.0957255	-5.99012	114936	0.000214783	-0.267892	461.956	5.03087	3	37	0.0052066	0.0543909	0	-0.615597	24.5	0.32826	0.121795	5.83882	3.85738e-06	9.70589e-06	4.29351e-06	5.06737e-06	6.51223e-06	8.57689e-06	0.122062	0.0550008	0.371392	9.74975e-06	6.44621e-05	3.01732e-06	8.85477e-06	4.48984e-06	4.92444e-06	10.3895	1.09017	10.4465	5.99012	5030.87	47945.1	48208.3	-84.0099	0.0000000E+000	0.0000000E+000	0.0000000E+000	84.0099	0.0000000E+000	0.0000000E+000	0.0000000E+000	-84.0099	0.0000000E+000	0.0000000E+000	0.0000000E+000	-5.99012	0.0000000E+000	0.0000000E+000	0.0000000E+000	5.99012	9.53017	84.0099	-0.000141503
17211.6	0.102715	0.0168737	0.104092	-9.32904	114939	0.000215044	-0.279003	548.011	14.4005	3	37	0.00518817	0.0498424	0	-0.615868	24.5	0.335986	0.203932	5.85427	7.70707e-06	5.07468e-06	8.61322e-06	2.35085e-06	7.52092e-06	8.34524e-06	0.102786	0.011431	0.410763	3.4226e-06	4.9545e-05	2.39425e-06	8.89991e-06	7.06769e-06	2.96963e-06	9.47986	1.55732	9.60693	9.32904	14400.4	87659.8	88834.7	-80.671	0.0000000E+000	0.0000000E+000	0.0000000E+000	80.671	0.0000000E+000	0.0000000E+000	0.0000000E+000	-80.671	0.0000000E+000	0.0000000E+000	0.0000000E+000	-9.32904	0.0000000E+000	0.0000000E+000	0.0000000E+000	9.32904	6.08729	80.671	-0.000198094
8590.41	0.11324	0.0220257	0.115362	-11.0068	114943	9.22573e-05	-0.931812	841.158	30.6626	3	37	0.00528041	0.0457725	0	-0.616431	24.5	0.273158	0.143949	5.87474	4.6417e-06	7.60037e-06	3.24125e-06	5.90004e-06	5.53602e-06	5.2652e-06	0.0995107	0.0612559	0.454079	3.22533e-06	4.2962e-05	7.324e-06	1.06734e-05	4.25243e-06	4.16457e-06	8.50889	1.65502	8.66835	11.0068	30662.6	157645	160599	-78.9932	0.0000000E+000	0.0000000E+000	0.0000000E+000	78.9932	0.0000000E+000	0.0000000E+000	0.0000000E+000	-78.9932	0.0000000E+000	0.0000000E+000	0.0000000E+000	-11.0068	0.0000000E+000	0.0000000E+000	0.0000000E+000	11.0068	5.14128	78.9932	-0.000394946
4288.63	0.126028	0.0242095	0.128333	-10.8738	114947	8.98713e-05	-0.843818	1532.91	54.5523	3	37	0.0051873	0.0404207	0	-0.617245	24.5	0.277298	0.176888	5.77757	4.77548e-06	6.62394e-06	2.94712e-06	7.32381e-06	5.23974e-06	4.23938e-06	0.0697351	0.0325613	0.506403	4.41067e-06	2.62615e-05	3.16577e-06	4.08119e-06	5.49851e-06	3.39321e-06	7.65234	1.46998	7.79225	10.8738	54552.3	283985	289177	-79.1262	0.0000000E+000	0.0000000E+000	0.0000000E+000	79.1262	0.0000000E+000	0.0000000E+000	0.0000000E+000	-79.1262	0.0000000E+000	0.0000000E+000	0.0000000E+000	-10.8738	0.0000000E+000	0.0000000E+000	0.0000000E+000	10.8738	5.20574	79.1262	-0.000255883
2140.69	0.139458	0.022525	0.141266	-9.17503	114951	8.97594e-05	-0.873429	3300.68	83.9185	3	37	0.00515455	0.0364883	0	-0.618164	24.5	0.305033	0.114664	5.87186	8.01258e-06	6.03005e-06	3.54067e-06	4.24844e-06	7.6146e-06	5.1307e-06	0.0303375	0.0279057	0.558321	3.95912e-06	4.74129e-06	4.6123e-06	4.20918e-06	3.63399e-06	2.37857e-06	6.98829	1.12873	7.07886	9.17503	83918.5	519563	526296	-80.825	0.0000000E+000	0.0000000E+000	0.0000000E+000	80.825	0.0000000E+000	0.0000000E+000	0.0000000E+000	-80.825	0.0000000E+000	0.0000000E+000	0.0000000E+000	-9.17503	0.0000000E+000	0.0000000E+000	0.0000000E+000	9.17503	6.19128	80.825	-0.000362517
1068.29	0.149641	0.0175304	0.150664	-6.68174	114955	8.14829e-05	-0.890291	8498.4	115.054	3	37	0.00509711	0.033831	0	-0.619068	24.5	0.348986	0.199796	5.96476	4.32123e-06	7.93991e-06	7.13157e-06	3.70918e-06	7.65925e-06	7.87377e-06	0.0380555	0.0994111	0.616808	2.1422e-06	8.31667e-06	5.55236e-06	6.2745e-06	3.20202e-06	1.49721e-06	6.5922	0.772275	6.63728	6.68174	115054	982108	988825	-83.3183	0.0000000E+000	0.0000000E+000	0.0000000E+000	83.3183	0.0000000E+000	0.0000000E+000	0.0000000E+000	-83.3183	0.0000000E+000	0.0000000E+000	0.0000000E+000	-6.68174	0.0000000E+000	0.0000000E+000	0.0000000E+000	6.68174	8.53607	83.3183	-0.000320732
533.464	0.15589	0.0117961	0.156336	-4.32727	114959	0.000125438	-0.838887	25291.7	143.991	3	37	0.00537597	0.0343873	0	-0.619963	24.5	0.234947	0.129017	5.71897	4.07668e-06	4.95633e-06	3.51189e-06	4.90418e-06	4.82128e-06	4.32673e-06	0.0592563	0.0118508	0.595679	3.29646e-06	1.44079e-05	6.78823e-06	1.00786e-05	4.63811e-06	4.14514e-06	6.37825	0.482636	6.39648	4.32727	143991	1.9029e+06	1.90834e+06	-85.6727	0.0000000E+000	0.0000000E+000	0.0000000E+000	85.6727	0.0000000E+000	0.0000000E+000	0.0000000E+000	-85.6727	0.0000000E+000	0.0000000E+000	0.0000000E+000	-4.32727	0.0000000E+000	0.0000000E+000	0.0000000E+000	4.32727	13.2154	85.6727	-0.00022206
266.278	0.158991	0.00763112	0.159174	-2.74793	114962	0.000140984	-0.795467	78324.4	180.024	3	37	0.0052612	0.0330532	0	-0.620804	24.5	0.301289	0.177303	5.82706	7.35526e-06	7.43624e-06	3.98909e-06	5.53784e-06	4.38657e-06	7.6124e-06	0.0907849	0.0290637	0.626905	3.22713e-06	2.1773e-05	5.14029e-06	1.74247e-05	5.39006e-06	3.64465e-06	6.27522	0.301193	6.28245	2.74793	180024	3.75072e+06	3.75503e+06	-87.2521	0.0000000E+000	0.0000000E+000	0.0000000E+000	87.2521	0.0000000E+000	0.0000000E+000	0.0000000E+000	-87.2521	0.0000000E+000	0.0000000E+000	0.0000000E+000	-2.74793	0.0000000E+000	0.0000000E+000	0.0000000E+000	2.74793	20.8345	87.2521	-0.000204905
132.916	0.160816	0.0049997	0.160894	-1.78073	114965	0.00013267	-0.774417	239496	231.264	3	37	0.00537962	0.0334358	0	-0.62159	24.5	0.299591	0.190351	5.72379	3.40222e-06	6.31637e-06	6.49013e-06	6.70561e-06	7.76345e-06	3.63077e-06	0.102573	0.0268458	0.614747	5.54644e-06	2.34405e-05	5.60394e-06	2.20128e-05	6.47019e-06	4.59176e-06	6.21228	0.193137	6.21528	1.78073	231264	7.43864e+06	7.44224e+06	-88.2193	0.0000000E+000	0.0000000E+000	0.0000000E+000	88.2193	0.0000000E+000	0.0000000E+000	0.0000000E+000	-88.2193	0.0000000E+000	0.0000000E+000	0.0000000E+000	-1.78073	0.0000000E+000	0.0000000E+000	0.0000000E+000	1.78073	32.1652	88.2193	-0.000275654
66.3374	0.161804	0.00354392	0.161842	-1.25473	114969	0.000134162	-0.769113	676983	324.61	3	37	0.0054039	0.0333899	0	-0.622358	24.5	0.288543	0.129279	5.64766	6.95845e-06	6.50085e-06	4.54173e-06	7.95261e-06	4.65243e-06	5.13281e-06	0.113869	0.0245607	0.61754	3.89488e-06	2.83281e-05	4.71251e-06	2.30622e-05	4.13612e-06	6.57941e-06	6.17737	0.135301	6.17885	1.25473	324610	1.48206e+07	1.48241e+07	-88.7453	0.0000000E+000	0.0000000E+000	0.0000000E+000	88.7453	0.0000000E+000	0.0000000E+000	0.0000000E+000	-88.7453	0.0000000E+000	0.0000000E+000	0.0000000E+000	-1.25473	0.0000000E+000	0.0000000E+000	0.0000000E+000	1.25473	45.6566	88.7453	-0.000278403
33.1038	0.162815	0.00292612	0.162841	-1.02961	114972	0.000123648	-0.807378	1.64305e+06	530.526	3	37	0.00541177	0.0332334	0	-0.623141	24.5	0.257195	0.1738	5.62748	3.57588e-06	6.28065e-06	5.06857e-06	7.03719e-06	5.12524e-06	3.4902e-06	0.116924	0.0302256	0.61797	4.15698e-06	2.60809e-05	7.50082e-06	2.57842e-05	5.96014e-06	4.73676e-06	6.13997	0.110348	6.14096	1.02961	530528	2.95195e+07	2.95242e+07	-88.9704	0.0000000E+000	0.0000000E+000	0.0000000E+000	88.9704	0.0000000E+000	0.0000000E+000	0.0000000E+000	-88.9704	0.0000000E+000	0.0000000E+000	0.0000000E+000	-1.02961	0.0000000E+000	0.0000000E+000	0.0000000E+000	1.02961	55.6418	88.9704	-0.000320759
16.5286	0.163578	0.00264953	0.1636	-0.927957	114975	0.000135727	-0.783314	3.63426e+06	953.21	3	37	0.00541545	0.0331019	0	-0.623907	24.5	0.253537	0.152974	5.66974	7.18575e-06	8.03201e-06	2.70286e-06	3.83019e-06	3.7051e-06	4.39412e-06	0.131047	0.0701059	0.57935	6.58941e-06	3.02579e-05	6.10078e-06	2.45477e-05	8.265e-06	7.23197e-06	6.11169	0.0989929	6.11249	0.927957	953208	5.88498e+07	5.88576e+07	-89.072	0.0000000E+000	0.0000000E+000	0.0000000E+000	89.072	0.0000000E+000	0.0000000E+000	0.0000000E+000	-89.072	0.0000000E+000	0.0000000E+000	0.0000000E+000	-0.927957	0.0000000E+000	0.0000000E+000	0.0000000E+000	0.927957	61.7386	89.072	-0.000405429
8.24973	0.164582	0.00335525	0.164616	-1.1679	114979	0.000128709	-0.817633	5.74983e+06	2388.7	3	37	0.00541556	0.0328981	0	-0.624424	24.5	0.196618	0.154683	3.92099	5.23392e-06	4.35315e-06	1.781e-06	5.52543e-06	3.56612e-06	3.09571e-06	0.230185	0.116757	0.438705	5.03727e-05	2.84411e-05	6.91814e-06	2.65279e-05	3.90517e-05	4.43147e-06	6.07348	0.123817	6.07474	1.1679	2.3887e+06	1.1717e+08	1.17195e+08	-88.8321	0.0000000E+000	0.0000000E+000	0.0000000E+000	88.8321	0.0000000E+000	0.0000000E+000	0.0000000E+000	-88.8321	0.0000000E+000	0.0000000E+000	0.0000000E+000	-1.1679	0.0000000E+000	0.0000000E+000	0.0000000E+000	1.1679	49.052	88.8321	3.06329e-05
4.11618	0.165716	0.00415074	0.165768	-1.4348	114984	0.000125736	-0.806908	9.31539e+06	5840.5	3	37	0.00541062	0.0326398	0	-0.625412	24.5	0.158326	0.0737168	2.64194	1.67329e-06	4.85067e-06	3.67727e-06	4.11029e-06	3.14158e-06	1.19665e-06	0.146467	0.0138165	0.398747	7.7651e-06	3.16358e-05	2.06705e-05	2.64583e-05	5.47229e-06	2.876e-06	6.03064	0.151051	6.03253	1.4348	5.84051e+06	2.33179e+08	2.33252e+08	-88.5652	0.0000000E+000	0.0000000E+000	0.0000000E+000	88.5652	0.0000000E+000	0.0000000E+000	0.0000000E+000	-88.5652	0.0000000E+000	0.0000000E+000	0.0000000E+000	-1.4348	0.0000000E+000	0.0000000E+000	0.0000000E+000	1.4348	39.9245	88.5652	-0.000369522
2.05457	0.167298	0.00569069	0.167395	-1.94818	114992	0.000126219	-0.794974	1.36124e+07	15731.8	3	37	0.00540981	0.0323176	0	-0.627039	24.5	0.142384	0.0475313	1.82155	1.31653e-06	6.48873e-06	2.10152e-06	1.93436e-06	1.8092e-06	1.85207e-06	0.156432	0.0479513	0.340648	4.35667e-06	2.73511e-05	7.6923e-06	2.18217e-05	1.24442e-05	3.27262e-05	5.97044	0.203086	5.97389	1.94818	1.57318e+07	4.62493e+08	4.6276e+08	-88.0518	0.0000000E+000	0.0000000E+000	0.0000000E+000	88.0518	0.0000000E+000	0.0000000E+000	0.0000000E+000	-88.0518	0.0000000E+000	0.0000000E+000	0.0000000E+000	-1.94818	0.0000000E+000	0.0000000E+000	0.0000000E+000	1.94818	29.3986	88.0518	-0.00013629
1.02607	0.169417	0.00824201	0.169617	-2.7852	115007	0.000125674	-0.783311	1.88196e+07	44436	3	37	0.00541135	0.0319033	0	-0.629632	24.5	0.106405	0.0602067	1.27989	1.87957e-06	4.66544e-06	7.85448e-07	1.5772e-06	1.6e-06	9.02775e-07	0.142677	0.125494	0.342354	1.16114e-05	3.30238e-05	7.83504e-06	2.67161e-05	4.1023e-06	3.36385e-06	5.88866	0.286479	5.89563	2.7852	4.4436e+07	9.13396e+08	9.14476e+08	-87.2148	0.0000000E+000	0.0000000E+000	0.0000000E+000	87.2148	0.0000000E+000	0.0000000E+000	0.0000000E+000	-87.2148	0.0000000E+000	0.0000000E+000	0.0000000E+000	-2.7852	0.0000000E+000	0.0000000E+000	0.0000000E+000	2.7852	20.5553	87.2148	0.000952365
0.511825	0.173822	0.0133443	0.174333	-4.38997	115037	0.000117298	-0.832345	2.33026e+07	136531	3	37	0.00540918	0.0310278	0	-0.635291	24.5	0.115318	0.0687629	0.877254	2.58464e-06	4.2816e-06	1.24271e-06	2.30312e-06	1.48693e-06	1.1165e-06	0.123815	0.0824593	0.349741	8.415e-06	2.62582e-05	4.02828e-06	2.39334e-05	7.39011e-06	4.72832e-06	5.7193	0.43907	5.73613	4.38997	1.36531e+08	1.77845e+09	1.78368e+09	-85.61	0.0000000E+000	0.0000000E+000	0.0000000E+000	85.61	0.0000000E+000	0.0000000E+000	0.0000000E+000	-85.61	0.0000000E+000	0.0000000E+000	0.0000000E+000	-4.38997	0.0000000E+000	0.0000000E+000	0.0000000E+000	4.38997	13.026	85.61	0.00109896
0.255612	0.183775	0.0155169	0.184429	-4.8263	115096	0.000116648	-0.869808	4.01267e+07	284046	3	37	0.00540609	0.0293126	0	-0.656832	24.5	0.13618	0.0775347	0.614884	2.53295e-06	5.74725e-06	7.86664e-07	3.15974e-06	1.12593e-06	1.26163e-06	0.139306	0.103199	0.346469	1.0234e-05	2.86745e-05	8.19341e-06	2.39706e-05	5.38119e-06	4.85733e-06	5.40293	0.456194	5.42215	4.8263	2.84046e+08	3.3641e+09	3.37607e+09	-85.1737	0.0000000E+000	0.0000000E+000	0.0000000E+000	85.1737	0.0000000E+000	0.0000000E+000	0.0000000E+000	-85.1737	0.0000000E+000	0.0000000E+000	0.0000000E+000	-4.8263	0.0000000E+000	0.0000000E+000	0.0000000E+000	4.8263	11.8435	85.1737	-0.00793471
0.127525	0.192163	0.0124528	0.192566	-3.70777	115213	0.000134779	-0.775309	1.00221e+08	419114	3	37	0.00540633	0.0280752	0	-0.669401	24.5	0.114483	0.0670824	0.44937	1.9949e-06	4.54316e-06	1.4157e-06	2.86387e-06	1.05903e-06	9.75064e-07	0.127161	0.0748878	0.333459	8.18408e-06	2.22758e-05	7.06607e-06	2.33549e-05	6.30684e-06	6.69944e-06	5.18216	0.33582	5.19303	3.70777	4.19114e+08	6.46749e+09	6.48106e+09	-86.2922	0.0000000E+000	0.0000000E+000	0.0000000E+000	86.2922	0.0000000E+000	0.0000000E+000	0.0000000E+000	-86.2922	0.0000000E+000	0.0000000E+000	0.0000000E+000	-3.70777	0.0000000E+000	0.0000000E+000	0.0000000E+000	3.70777	15.4313	86.2922	-0.00759031
0.0636941	0.196896	0.0084627	0.197078	-2.46109	115446	0.000114565	-0.869117	2.95265e+08	544444	3	37	0.00540453	0.0274233	0	-0.749889	24.5	0.126915	0.122895	0.335847	1.5874e-06	5.45511e-06	1.30401e-06	2.65098e-06	8.39217e-07	1.88793e-06	0.136347	0.124159	0.313287	7.26407e-06	2.39507e-05	4.55076e-06	2.51813e-05	6.83074e-06	6.65287e-06	5.06945	0.217888	5.07413	2.46109	5.44445e+08	1.26672e+10	1.26789e+10	-87.5389	0.0000000E+000	0.0000000E+000	0.0000000E+000	87.5389	0.0000000E+000	0.0000000E+000	0.0000000E+000	-87.5389	0.0000000E+000	0.0000000E+000	0.0000000E+000	-2.46109	0.0000000E+000	0.0000000E+000	0.0000000E+000	2.46109	23.2664	87.5389	-0.0348534
0.0317924	0.199541	0.00548271	0.199616	-1.5739	115912	0.000138994	-0.774574	9.13063e+08	688812	3	37	0.0054013	0.0270585	0	-0.816207	24.5	0.10267	0.127138	0.251857	1.21276e-06	4.40217e-06	1.09148e-06	2.46616e-06	7.91796e-07	8.10871e-07	0.134597	0.189936	0.276528	1.57394e-05	2.00796e-05	5.2324e-06	2.25568e-05	2.59102e-06	7.15706e-06	5.00773	0.137596	5.00962	1.5739	6.88811e+08	2.5069e+10	2.50784e+10	-88.4261	0.0000000E+000	0.0000000E+000	0.0000000E+000	88.4261	0.0000000E+000	0.0000000E+000	0.0000000E+000	-88.4261	0.0000000E+000	0.0000000E+000	0.0000000E+000	-1.5739	0.0000000E+000	0.0000000E+000	0.0000000E+000	1.5739	36.3945	88.4261	-0.0156002
0.0199946	0.200634	0.00405068	0.200675	-1.15661	116461	0.000118052	-0.815306	1.96507e+09	800659	3	37	0.00540249	0.0269216	0	-0.915244	24.5	0.106291	0.0961306	0.233771	2.15412e-06	4.06202e-06	1.32486e-06	2.52977e-06	1.0984e-06	1.21287e-06	0.140458	0.169561	0.255577	1.74216e-05	2.05378e-05	6.0009e-06	2.36644e-05	2.2592e-06	8.10917e-06	4.98216	0.100587	4.98317	1.15661	8.00659e+08	3.96575e+10	3.96655e+10	-88.8434	0.0000000E+000	0.0000000E+000	0.0000000E+000	88.8434	0.0000000E+000	0.0000000E+000	0.0000000E+000	-88.8434	0.0000000E+000	0.0000000E+000	0.0000000E+000	-1.15661	0.0000000E+000	0.0000000E+000	0.0000000E+000	1.15661	49.531	88.8434	-0.0652218