File: Python/Experiments/IRFB/240507-Cloth-1p5M_FeCl2FeCl3-1M_HCl/Data/240507-EIS-Cloth-1p5M_FeCl2FeCl3-1M_HCl-Wamup_10mLmin-4xFlowRate-20mHz_10ppd_03_PEIS_C15.mpt
EC-Lab ASCII FILE
Nb header lines : 75

Potentio Electrochemical Impedance Spectroscopy

Run on channel : 15 (SN 19485)
User :
Electrode connection : standard
Potential control : Ewe
Ewe ctrl range : min = -1.00 V, max = 1.00 V
Ewe,I filtering : 50 kHz
Safety Limits :
	Do not start on E overload
Channel : Grounded
Acquisition started on : 05/08/2024 12:03:59.706
Loaded Setting File :  C:\Data\mathias\IRFB\240503-EIS-Felt-1p5M_FeCl2FeCl3-1M_HCl-Wamup_10mLmin-4xFlowRate-20mHz_10ppd.mps
Saved on :
	File : 240507-EIS-Cloth-1p5M_FeCl2FeCl3-1M_HCl-Wamup_10mLmin-4xFlowRate-20mHz_10ppd_03_PEIS_C15.mpr
	Directory : C:\Data\mathias\IRFB\
	Host : 192.168.0.1
Device : VMP-300 (SN 0826)
Address : USB
EC-Lab for windows v11.52 (software)
Internet server v11.52 (firmware)
Command interpretor v11.52 (firmware)
Electrode material :
Initial state :
Electrolyte :
Comments :
Cable : special
Electrode surface area : 0.001 cm²
Characteristic mass : 0.001 g
Equivalent Weight : 0.000 g/eq.
Density : 0.000 g/cm3
Volume (V) : 0.001 cm³
Record EIS quality indicators
Cycle Definition : Charge/Discharge alternance
External device configuration :
   device type : Other
   device name : Other
   Analog OUT :
      mode : E/V
      unit : KNF Pump/ml/min
      max : 120.000 at 5.000 V
      min : 0.000 at 0.000 V
      current : 4.300
Mode                Single sine
E (V)               0.0000
vs.                 Eoc
tE (h:m:s)          0:10:0.0000
record              0
dI                  0.000
unit dI             mA
dt (s)              0.000
fi                  220.000
unit fi             kHz
ff                  20.000
unit ff             mHz
Nd                  10
Points              per decade
spacing             Logarithmic
Va (mV)             5.0
pw                  0.10
Na                  3
corr                0
E range min (V)     -1.000
E range max (V)     1.000
I Range             Auto
Bandwidth           8
nc cycles           2
goto Ns'            0
nr cycles           0
inc. cycle          0

freq/Hz	Re(Z)/Ohm	-Im(Z)/Ohm	|Z|/Ohm	Phase(Z)/deg	time/s	<Ewe>/V	<I>/mA	Cs/µF	Cp/µF	cycle number	I Range	|Ewe|/V	|I|/A	Ns	(Q-Qo)/mA.h	Analog OUT/V	THD Ewe/%	NSD Ewe/%	NSR Ewe/%	|Ewe h2|/V	|Ewe h3|/V	|Ewe h4|/V	|Ewe h5|/V	|Ewe h6|/V	|Ewe h7|/V	THD I/%	NSD I/%	NSR I/%	|I h2|/A	|I h3|/A	|I h4|/A	|I h5|/A	|I h6|/A	|I h7|/A	Re(Y)/Ohm-1	Im(Y)/Ohm-1	|Y|/Ohm-1	Phase(Y)/deg	Re(C)/nF	Im(C)/nF	|C|/nF	Phase(C)/deg	Re(M)	Im(M)	|M|	Phase(M)/deg	Re(Permittivity)	Im(Permittivity)	|Permittivity|	Phase(Permittivity)/deg	Re(Resistivity)/Ohm.cm	Im(Resistivity)/Ohm.cm	|Resistivity|/Ohm.cm	Phase(Resistivity)/deg	Re(Conductivity)/mS/cm	Im(Conductivity)/mS/cm	|Conductivity|/mS/cm	Phase(Conductivity)/deg	Tan(Delta)	Loss Angle(Delta)/deg	dq/mA.h
220003	0.0813479	-0.0222663	0.0843402	15.3079	96131.2	0.000183559	-0.361563	-32.4895	-2.2645	1	37	0.00299587	0.0355213	0	-0.141737	4.3	-1	-1	-1	0	0	0	0	0	0	-1	-1	-1	0	0	0	0	0	0	11.4361	-3.13025	11.8567	-15.3079	-2264.5	8273.12	8577.44	-105.308	0.0000000E+000	0.0000000E+000	0.0000000E+000	105.308	0.0000000E+000	0.0000000E+000	0.0000000E+000	-105.308	0.0000000E+000	0.0000000E+000	0.0000000E+000	15.3079	0.0000000E+000	0.0000000E+000	0.0000000E+000	-15.3079	3.6534	74.6921	-0.141737
109811	0.0872285	-0.00596167	0.087432	3.90982	96134.6	0.000175861	-0.413042	-243.112	-1.13032	1	37	0.00522616	0.059774	0	-0.142201	4.3	-1	-1	-1	0	0	0	0	0	0	-1	-1	-1	0	0	0	0	0	0	11.4108	-0.779879	11.4375	-3.90982	-1130.32	16538.3	16576.9	-93.9098	0.0000000E+000	0.0000000E+000	0.0000000E+000	93.9098	0.0000000E+000	0.0000000E+000	0.0000000E+000	-93.9098	0.0000000E+000	0.0000000E+000	0.0000000E+000	3.90982	0.0000000E+000	0.0000000E+000	0.0000000E+000	-3.90982	14.6316	86.0902	-0.000233876
54808.1	0.0914734	0.004192	0.0915694	-2.62389	96138.1	0.000170902	-0.438614	692.714	1.45177	1	37	0.0052108	0.0569055	0	-0.142669	4.3	0.388092	0.174639	6.04427	5.64641e-06	1.32268e-05	7.8034e-06	4.61051e-06	5.63363e-06	7.78324e-06	0.12571	0.0444014	0.360082	2.15507e-05	6.70723e-05	4.1408e-06	9.50048e-06	2.67341e-06	4.29853e-06	10.9092	0.499944	10.9207	2.62389	1451.77	31678.9	31712.1	-87.3761	0.0000000E+000	0.0000000E+000	0.0000000E+000	87.3761	0.0000000E+000	0.0000000E+000	0.0000000E+000	-87.3761	0.0000000E+000	0.0000000E+000	0.0000000E+000	-2.62389	0.0000000E+000	0.0000000E+000	0.0000000E+000	2.62389	21.8209	87.3761	-0.000244395
27362.3	0.0972791	0.0120644	0.0980243	-7.06966	96141.5	0.000185479	-0.414121	482.125	7.3031	1	37	0.00520151	0.0530634	0	-0.142999	4.3	0.310547	0.132708	6.19339	5.6889e-06	6.42548e-06	5.63577e-06	5.24037e-06	3.77174e-06	5.98925e-06	0.113285	0.0425115	0.396512	1.88024e-05	5.57651e-05	4.00685e-06	9.23429e-06	4.0999e-06	3.79114e-06	10.124	1.25557	10.2015	7.06966	7303.1	58886.9	59338.1	-82.9303	0.0000000E+000	0.0000000E+000	0.0000000E+000	82.9303	0.0000000E+000	0.0000000E+000	0.0000000E+000	-82.9303	0.0000000E+000	0.0000000E+000	0.0000000E+000	-7.06966	0.0000000E+000	0.0000000E+000	0.0000000E+000	7.06966	8.06328	82.9303	-0.000108493
13658	0.105605	0.0183334	0.107184	-9.84863	96144.9	0.000198957	-0.376806	635.61	18.5958	1	37	0.0051735	0.0482673	0	-0.143377	4.3	0.264253	0.197522	6.21797	5.97937e-06	6.16393e-06	4.9877e-06	2.75274e-06	3.19901e-06	7.3153e-06	0.090397	0.0127811	0.430004	1.47502e-05	3.9972e-05	3.21566e-06	3.44752e-06	4.75587e-06	5.23982e-06	9.19223	1.59581	9.32972	9.84863	18595.8	107116	108718	-80.1514	0.0000000E+000	0.0000000E+000	0.0000000E+000	80.1514	0.0000000E+000	0.0000000E+000	0.0000000E+000	-80.1514	0.0000000E+000	0.0000000E+000	0.0000000E+000	-9.84863	0.0000000E+000	0.0000000E+000	0.0000000E+000	9.84863	5.76023	80.1514	-0.000134649
6816.86	0.1167	0.0223346	0.118818	-10.8345	96148.5	7.4474e-05	-0.933078	1045.34	36.9359	1	37	0.00519748	0.0437431	0	-0.144266	4.3	0.379363	0.170573	6.11162	8.6087e-06	8.70831e-06	5.9364e-06	8.88729e-06	2.53055e-06	7.52255e-06	0.0908134	0.0505616	0.481638	1.19051e-05	3.51297e-05	6.9264e-06	6.04052e-06	7.40333e-06	5.34538e-06	8.2662	1.58202	8.41622	10.8345	36935.8	192993	196496	-79.1655	0.0000000E+000	0.0000000E+000	0.0000000E+000	79.1655	0.0000000E+000	0.0000000E+000	0.0000000E+000	-79.1655	0.0000000E+000	0.0000000E+000	0.0000000E+000	-10.8345	0.0000000E+000	0.0000000E+000	0.0000000E+000	10.8345	5.22509	79.1655	-0.000360839
3403.27	0.129599	0.0229964	0.131624	-10.062	96152.4	7.71769e-05	-0.879664	2033.59	62.0749	1	37	0.00520262	0.0395265	0	-0.145185	4.3	0.311356	0.218273	6.15618	6.14151e-06	6.12509e-06	4.27259e-06	7.77655e-06	6.27452e-06	6.62893e-06	0.0703513	0.0479672	0.540018	1.41735e-05	2.22681e-05	2.23436e-06	4.69915e-06	4.76832e-06	3.5816e-06	7.48057	1.32737	7.59742	10.062	62074.9	349831	355296	-79.938	0.0000000E+000	0.0000000E+000	0.0000000E+000	79.938	0.0000000E+000	0.0000000E+000	0.0000000E+000	-79.938	0.0000000E+000	0.0000000E+000	0.0000000E+000	-10.062	0.0000000E+000	0.0000000E+000	0.0000000E+000	10.062	5.63563	79.938	-0.000288396
1698.37	0.14132	0.0198504	0.142707	-7.9957	96156.4	6.22271e-05	-0.902332	4720.84	91.341	1	37	0.00516779	0.0362125	0	-0.146199	4.3	0.323253	0.147401	6.09362	5.07813e-06	7.21905e-06	7.07391e-06	3.64006e-06	6.66319e-06	7.04001e-06	0.042578	0.0676894	0.594388	9.84859e-06	4.02127e-06	5.30663e-06	4.80427e-06	4.72894e-06	4.29358e-06	6.93923	0.974714	7.00735	7.9957	91341	650279	656663	-82.0043	0.0000000E+000	0.0000000E+000	0.0000000E+000	82.0043	0.0000000E+000	0.0000000E+000	0.0000000E+000	-82.0043	0.0000000E+000	0.0000000E+000	0.0000000E+000	-7.9957	0.0000000E+000	0.0000000E+000	0.0000000E+000	7.9957	7.11925	82.0043	-0.000339405
847.556	0.149601	0.0145522	0.150307	-5.55591	96160.4	5.87599e-05	-0.911247	12903.9	120.955	1	37	0.00500913	0.033326	0	-0.147291	4.3	0.340509	0.167968	6.22832	1.02369e-05	4.9046e-06	3.82708e-06	4.45576e-06	7.6972e-06	5.96601e-06	0.054648	0.100763	0.640426	8.40464e-06	9.64248e-06	4.90727e-06	1.02087e-05	1.83176e-06	3.88348e-06	6.62181	0.644129	6.65306	5.55591	120955	1.24345e+06	1.24932e+06	-84.4441	0.0000000E+000	0.0000000E+000	0.0000000E+000	84.4441	0.0000000E+000	0.0000000E+000	0.0000000E+000	-84.4441	0.0000000E+000	0.0000000E+000	0.0000000E+000	-5.55591	0.0000000E+000	0.0000000E+000	0.0000000E+000	5.55591	10.2802	84.4441	-0.000303525
423.239	0.154229	0.00964955	0.15453	-3.58013	96164.2	8.56771e-05	-0.945864	38969.7	151.954	1	37	0.00500684	0.0324003	0	-0.148185	4.3	0.322685	0.214963	6.35408	4.40453e-06	8.48602e-06	7.07797e-06	4.82626e-06	4.08634e-06	6.95613e-06	0.0703491	0.0146531	0.648975	6.28937e-06	1.69779e-05	6.96964e-06	1.1166e-05	2.56459e-06	1.51435e-06	6.45859	0.404091	6.47122	3.58013	151954	2.42869e+06	2.43344e+06	-86.4199	0.0000000E+000	0.0000000E+000	0.0000000E+000	86.4199	0.0000000E+000	0.0000000E+000	0.0000000E+000	-86.4199	0.0000000E+000	0.0000000E+000	0.0000000E+000	-3.58013	0.0000000E+000	0.0000000E+000	0.0000000E+000	3.58013	15.983	86.4199	-0.000356412
211.149	0.156792	0.00607334	0.15691	-2.21824	96167.5	9.07474e-05	-0.873392	124109	185.935	1	37	0.00531704	0.033886	0	-0.148987	4.3	0.293399	0.135362	6.0079	6.73129e-06	4.86279e-06	5.77981e-06	7.92732e-06	6.18218e-06	4.14164e-06	0.0953626	0.00865026	0.632819	4.13856e-06	2.60479e-05	5.98415e-06	1.63697e-05	3.62544e-06	3.15905e-06	6.36832	0.246677	6.3731	2.21824	185935	4.80017e+06	4.80377e+06	-87.7818	0.0000000E+000	0.0000000E+000	0.0000000E+000	87.7818	0.0000000E+000	0.0000000E+000	0.0000000E+000	-87.7818	0.0000000E+000	0.0000000E+000	0.0000000E+000	-2.21824	0.0000000E+000	0.0000000E+000	0.0000000E+000	2.21824	25.8164	87.7818	-0.000289336
105.438	0.158111	0.00421865	0.158167	-1.52838	96170.8	7.68041e-05	-0.938159	357806	254.543	1	37	0.00539482	0.0341083	0	-0.149774	4.3	0.255643	0.209595	5.79466	3.87041e-06	5.55652e-06	8.39677e-06	4.04833e-06	4.55157e-06	4.70755e-06	0.10641	0.023178	0.624141	2.96154e-06	2.68598e-05	7.68774e-06	2.15301e-05	3.27639e-06	4.98785e-06	6.32017	0.168632	6.32242	1.52838	254544	9.54004e+06	9.54344e+06	-88.4716	0.0000000E+000	0.0000000E+000	0.0000000E+000	88.4716	0.0000000E+000	0.0000000E+000	0.0000000E+000	-88.4716	0.0000000E+000	0.0000000E+000	0.0000000E+000	-1.52838	0.0000000E+000	0.0000000E+000	0.0000000E+000	1.52838	37.4791	88.4716	-0.000251069
52.6255	0.158839	0.003014	0.158868	-1.08707	96174.2	8.23031e-05	-0.950573	1.00342e+06	361.156	1	37	0.00540719	0.0340358	0	-0.150632	4.3	0.293622	0.184176	5.94362	4.89997e-06	7.39931e-06	8.78139e-06	4.42411e-06	6.57741e-06	3.42637e-06	0.118513	0.112407	0.617575	5.26537e-06	3.22486e-05	6.31565e-06	2.15351e-05	4.78283e-06	3.67968e-06	6.29341	0.119418	6.29454	1.08707	361156	1.90331e+07	1.90365e+07	-88.9129	0.0000000E+000	0.0000000E+000	0.0000000E+000	88.9129	0.0000000E+000	0.0000000E+000	0.0000000E+000	-88.9129	0.0000000E+000	0.0000000E+000	0.0000000E+000	-1.08707	0.0000000E+000	0.0000000E+000	0.0000000E+000	1.08707	52.7005	88.9129	-0.000307495
26.2693	0.15976	0.00260817	0.159782	-0.9353	96177.5	8.68887e-05	-0.942235	2.32292e+06	618.947	1	37	0.00541401	0.0338838	0	-0.151482	4.3	0.280359	0.132992	5.85464	6.0491e-06	7.46866e-06	4.25861e-06	4.70585e-06	4.3213e-06	5.53185e-06	0.146164	0.0439358	0.622119	2.95757e-05	2.71232e-05	2.05504e-06	2.51741e-05	1.03551e-05	6.34475e-06	6.2577	0.10216	6.25854	0.9353	618948	3.79128e+07	3.79179e+07	-89.0647	0.0000000E+000	0.0000000E+000	0.0000000E+000	89.0647	0.0000000E+000	0.0000000E+000	0.0000000E+000	-89.0647	0.0000000E+000	0.0000000E+000	0.0000000E+000	-0.9353	0.0000000E+000	0.0000000E+000	0.0000000E+000	0.9353	61.2538	89.0647	-0.000328032
13.1083	0.160407	0.00288041	0.160433	-1.02874	96180.8	8.81004e-05	-0.973065	4.21522e+06	1358.76	1	37	0.00541225	0.0337353	0	-0.152253	4.3	0.442537	0.144098	4.06053	2.86154e-06	6.40777e-06	6.5746e-06	1.92473e-05	4.95515e-06	1.45801e-06	0.137107	0.115429	0.447505	7.53534e-06	2.50079e-05	2.92322e-05	2.25708e-05	6.1749e-06	3.14976e-06	6.23212	0.11191	6.23313	1.02874	1.35875e+06	7.56678e+07	7.568e+07	-88.9713	0.0000000E+000	0.0000000E+000	0.0000000E+000	88.9713	0.0000000E+000	0.0000000E+000	0.0000000E+000	-88.9713	0.0000000E+000	0.0000000E+000	0.0000000E+000	-1.02874	0.0000000E+000	0.0000000E+000	0.0000000E+000	1.02874	55.6889	88.9713	-0.000324185
6.54313	0.16152	0.00350444	0.161558	-1.24293	96184.4	8.29369e-05	-0.983757	6.9409e+06	3265.87	1	37	0.00541613	0.0335245	0	-0.152893	4.3	0.181966	0.168965	4.32749	2.3425e-06	4.90191e-06	4.00174e-06	2.17829e-06	3.07384e-06	5.38586e-06	0.191209	0.0537831	0.484246	3.36715e-05	4.25026e-05	1.23454e-05	2.98075e-05	6.90697e-06	5.84291e-06	6.18828	0.134265	6.18974	1.24293	3.26587e+06	1.50524e+08	1.50559e+08	-88.7571	0.0000000E+000	0.0000000E+000	0.0000000E+000	88.7571	0.0000000E+000	0.0000000E+000	0.0000000E+000	-88.7571	0.0000000E+000	0.0000000E+000	0.0000000E+000	-1.24293	0.0000000E+000	0.0000000E+000	0.0000000E+000	1.24293	46.09	88.7571	-3.70242e-05
3.26541	0.16273	0.00504185	0.162809	-1.77462	96190.1	9.19182e-05	-0.901777	9.66702e+06	9270.81	1	37	0.00541403	0.0332539	0	-0.154815	4.3	0.186087	0.0625037	2.51916	3.19224e-06	5.05449e-06	2.28452e-06	4.68746e-06	3.692e-06	3.82314e-06	0.110158	0.0337476	0.393987	3.0092e-06	2.54142e-05	9.90769e-06	2.21035e-05	6.5663e-06	4.0352e-06	6.13924	0.190211	6.14218	1.77462	9.27082e+06	2.99224e+08	2.99368e+08	-88.2254	0.0000000E+000	0.0000000E+000	0.0000000E+000	88.2254	0.0000000E+000	0.0000000E+000	0.0000000E+000	-88.2254	0.0000000E+000	0.0000000E+000	0.0000000E+000	-1.77462	0.0000000E+000	0.0000000E+000	0.0000000E+000	1.77462	32.2759	88.2254	-0.00132119
1.63084	0.164529	0.00739673	0.164695	-2.57411	96200.3	9.23659e-05	-0.910083	1.31938e+07	26612.6	1	37	0.00541174	0.0328591	0	-0.155877	4.3	0.120446	0.063656	1.65573	2.36108e-06	3.39756e-06	1.94013e-06	3.44083e-06	1.84619e-06	1.12538e-06	0.122451	0.0738976	0.356794	7.46612e-06	2.73263e-05	6.7226e-06	2.45922e-05	7.18118e-06	8.10781e-06	6.06569	0.272695	6.07182	2.57411	2.66126e+07	5.91958e+08	5.92555e+08	-87.4259	0.0000000E+000	0.0000000E+000	0.0000000E+000	87.4259	0.0000000E+000	0.0000000E+000	0.0000000E+000	-87.4259	0.0000000E+000	0.0000000E+000	0.0000000E+000	-2.57411	0.0000000E+000	0.0000000E+000	0.0000000E+000	2.57411	22.2435	87.4259	0.000293173
0.813551	0.167217	0.0110178	0.16758	-3.76973	96219.5	0.000105862	-0.874825	1.77557e+07	76751.7	1	37	0.00541115	0.03229	0	-0.163238	4.3	0.131419	0.0651703	1.14813	2.12747e-06	5.82929e-06	1.61789e-06	2.12431e-06	9.30486e-07	1.2731e-06	0.120817	0.0663541	0.340172	9.45516e-06	2.51538e-05	4.35947e-06	2.60435e-05	3.99228e-06	4.8701e-06	5.95439	0.392331	5.9673	3.76973	7.67518e+07	1.16486e+09	1.16738e+09	-86.2303	0.0000000E+000	0.0000000E+000	0.0000000E+000	86.2303	0.0000000E+000	0.0000000E+000	0.0000000E+000	-86.2303	0.0000000E+000	0.0000000E+000	0.0000000E+000	-3.76973	0.0000000E+000	0.0000000E+000	0.0000000E+000	3.76973	15.177	86.2303	-0.00489776
0.406108	0.170869	0.0172822	0.171741	-5.77542	96256.9	0.000121071	-0.818651	2.26767e+07	229630	1	37	0.00540892	0.0314946	0	-0.171889	4.3	0.119689	0.0691052	0.820423	1.88027e-06	5.10466e-06	1.37245e-06	2.48162e-06	9.48335e-07	1.18306e-06	0.129912	0.135487	0.34742	1.5908e-05	2.27038e-05	8.72963e-06	2.47983e-05	7.88878e-06	4.7648e-06	5.79317	0.585937	5.82272	5.77542	2.2963e+08	2.27036e+09	2.28194e+09	-84.2246	0.0000000E+000	0.0000000E+000	0.0000000E+000	84.2246	0.0000000E+000	0.0000000E+000	0.0000000E+000	-84.2246	0.0000000E+000	0.0000000E+000	0.0000000E+000	-5.77542	0.0000000E+000	0.0000000E+000	0.0000000E+000	5.77542	9.88701	84.2246	-0.00773842
0.202719	0.181351	0.0283616	0.183556	-8.88849	96330.8	0.000109459	-0.866392	2.76819e+07	660875	1	37	0.00540518	0.0294471	0	-0.182559	4.3	0.110764	0.0740472	0.57381	1.58427e-06	4.67358e-06	1.15704e-06	2.79261e-06	8.37106e-07	1.1253e-06	0.183621	0.192674	0.356671	2.41682e-05	2.59882e-05	1.46087e-05	3.19089e-05	5.84372e-06	7.84805e-06	5.38251	0.841771	5.44794	8.88849	6.60875e+08	4.22581e+09	4.27718e+09	-81.1115	0.0000000E+000	0.0000000E+000	0.0000000E+000	81.1115	0.0000000E+000	0.0000000E+000	0.0000000E+000	-81.1115	0.0000000E+000	0.0000000E+000	0.0000000E+000	-8.88849	0.0000000E+000	0.0000000E+000	0.0000000E+000	8.88849	6.39427	81.1115	-0.00171037
0.101164	0.202136	0.0325514	0.204741	-9.14819	96478	0.000135695	-0.816349	4.83308e+07	1.22168e+06	1	37	0.00540156	0.0263824	0	-0.233074	4.3	0.120042	0.0875235	0.429791	1.87359e-06	4.73294e-06	1.18019e-06	3.11407e-06	9.11233e-07	1.0695e-06	0.260423	0.154386	0.38265	2.14244e-05	5.03936e-05	1.06477e-05	3.12948e-05	9.17238e-06	1.19016e-05	4.8221	0.776536	4.88423	9.14819	1.22168e+09	7.58631e+09	7.68405e+09	-80.8518	0.0000000E+000	0.0000000E+000	0.0000000E+000	80.8518	0.0000000E+000	0.0000000E+000	0.0000000E+000	-80.8518	0.0000000E+000	0.0000000E+000	0.0000000E+000	-9.14819	0.0000000E+000	0.0000000E+000	0.0000000E+000	9.14819	6.20976	80.8518	-0.0238107
0.0505041	0.219531	0.0258036	0.221043	-6.70376	96771.8	0.000142673	-0.797799	1.22127e+08	1.66427e+06	1	37	0.00539888	0.0244246	0	-0.285257	4.3	0.102311	0.0884256	0.306848	1.57098e-06	4.36546e-06	7.38016e-07	2.61382e-06	6.70607e-07	7.07638e-07	0.289444	0.124734	0.551371	2.68777e-05	4.09186e-05	2.14683e-05	3.66737e-05	9.78754e-06	1.0974e-05	4.49309	0.528116	4.52402	6.70376	1.66427e+09	1.41592e+10	1.42567e+10	-83.2962	0.0000000E+000	0.0000000E+000	0.0000000E+000	83.2962	0.0000000E+000	0.0000000E+000	0.0000000E+000	-83.2962	0.0000000E+000	0.0000000E+000	0.0000000E+000	-6.70376	0.0000000E+000	0.0000000E+000	0.0000000E+000	6.70376	8.50777	83.2962	-0.011998
0.0252177	0.228732	0.0168704	0.229354	-4.21828	97409.3	0.000125077	-0.815784	3.74101e+08	2.02409e+06	1	38	0.00539565	0.0235255	0	-0.407307	4.3	0.110994	0.138859	0.239589	1.9219e-06	4.42001e-06	1.26367e-06	2.81335e-06	8.32846e-07	7.57724e-07	0.276181	0.152747	0.585667	1.15635e-05	1.90261e-05	9.02122e-06	2.64745e-05	4.28468e-05	3.23288e-05	4.34827	0.320712	4.36008	4.21828	2.02409e+09	2.7443e+10	2.75175e+10	-85.7817	0.0000000E+000	0.0000000E+000	0.0000000E+000	85.7817	0.0000000E+000	0.0000000E+000	0.0000000E+000	-85.7817	0.0000000E+000	0.0000000E+000	0.0000000E+000	-4.21828	0.0000000E+000	0.0000000E+000	0.0000000E+000	4.21828	13.5582	85.7817	-0.0641805
174510	0.0837283	-0.0160029	0.0852439	10.8204	97717.6	0.000212825	0.567828	-56.9903	-2.0085	2	37	0.00428042	0.0502139	0	-0.501988	4.3	-1	-1	-1	0	0	0	0	0	0	-1	-1	-1	0	0	0	0	0	0	11.5225	-2.20228	11.731	-10.8204	-2008.5	10508.6	10698.8	-100.82	0.0000000E+000	0.0000000E+000	0.0000000E+000	100.82	0.0000000E+000	0.0000000E+000	0.0000000E+000	-100.82	0.0000000E+000	0.0000000E+000	0.0000000E+000	10.8204	0.0000000E+000	0.0000000E+000	0.0000000E+000	-10.8204	5.23207	79.1796	0.000321646
87106.6	0.0885294	-0.00233084	0.0885601	1.50816	97721	0.000211334	-0.121682	-783.891	-0.543008	2	37	0.00523486	0.0591109	0	-0.502029	4.3	0.377023	0.160242	5.98685	9.00578e-06	5.04164e-06	1.0076e-05	4.85597e-06	7.29745e-06	9.13307e-06	0.0783974	0.0198425	0.348655	1.43593e-05	4.25196e-05	8.22649e-06	5.92282e-06	3.69781e-06	3.14915e-06	11.2879	-0.297192	11.2918	-1.50816	-543.009	20624.4	20631.5	-91.5082	0.0000000E+000	0.0000000E+000	0.0000000E+000	91.5082	0.0000000E+000	0.0000000E+000	0.0000000E+000	-91.5082	0.0000000E+000	0.0000000E+000	0.0000000E+000	1.50816	0.0000000E+000	0.0000000E+000	0.0000000E+000	-1.50816	37.9817	88.4918	-6.77047e-05
43479.1	0.0930554	0.00705718	0.0933227	-4.33692	97724.4	0.000222873	-0.223132	518.691	2.96618	2	37	0.00521948	0.0559294	0	-0.502241	4.3	0.291182	0.147541	5.88885	4.8344e-06	6.89763e-06	7.17114e-06	3.97703e-06	7.29306e-06	3.89769e-06	0.103679	0.0408925	0.370541	6.96486e-06	5.67226e-05	2.16716e-06	7.86752e-06	3.53147e-06	2.92037e-06	10.6848	0.810321	10.7155	4.33692	2966.18	39111.8	39224.1	-85.6631	0.0000000E+000	0.0000000E+000	0.0000000E+000	85.6631	0.0000000E+000	0.0000000E+000	0.0000000E+000	-85.6631	0.0000000E+000	0.0000000E+000	0.0000000E+000	-4.33692	0.0000000E+000	0.0000000E+000	0.0000000E+000	4.33692	13.1859	85.6631	-2.07145e-05
21702.4	0.0994855	0.0141878	0.100492	-8.11631	97727.9	0.000218063	-0.273383	516.89	10.303	2	37	0.00519221	0.0516679	0	-0.50221	4.3	0.366647	0.120103	6.20508	8.92537e-06	9.92433e-06	3.70363e-06	7.95216e-06	5.21154e-06	4.66097e-06	0.0931241	0.0500442	0.412201	1.83905e-06	4.67051e-05	2.31535e-06	6.87371e-06	5.90638e-06	4.35497e-06	9.85136	1.40492	9.95104	8.11631	10303	72245.1	72976	-81.8837	0.0000000E+000	0.0000000E+000	0.0000000E+000	81.8837	0.0000000E+000	0.0000000E+000	0.0000000E+000	-81.8837	0.0000000E+000	0.0000000E+000	0.0000000E+000	-8.11631	0.0000000E+000	0.0000000E+000	0.0000000E+000	8.11631	7.01206	81.8837	-1.31808e-05
10837.3	0.10884	0.0198338	0.110633	-10.3276	97731.3	0.000206637	-0.361563	740.445	23.798	2	37	0.00516907	0.0467229	0	-0.502664	4.3	0.255279	0.242059	6.09717	6.34292e-06	5.12141e-06	4.85908e-06	5.3877e-06	5.10839e-06	2.97008e-06	0.112652	0.0347122	0.449533	4.70788e-06	3.19781e-05	3.78601e-06	4.74564e-06	5.20111e-06	4.04419e-05	8.89249	1.62047	9.03893	10.3276	23798	130594	132744	-79.6724	0.0000000E+000	0.0000000E+000	0.0000000E+000	79.6724	0.0000000E+000	0.0000000E+000	0.0000000E+000	-79.6724	0.0000000E+000	0.0000000E+000	0.0000000E+000	-10.3276	0.0000000E+000	0.0000000E+000	0.0000000E+000	10.3276	5.4876	79.6724	-9.43772e-05
5406.63	0.12068	0.0229012	0.122834	-10.7451	97735	0.000102118	-0.817353	1285.39	44.6803	2	37	0.00517306	0.0421143	0	-0.503366	4.3	0.37633	0.196387	6.11729	5.4401e-06	8.54781e-06	6.73022e-06	1.10022e-05	6.48815e-06	4.0966e-06	0.075172	0.0898756	0.512728	4.68004e-06	2.89489e-05	6.66648e-06	2.75544e-06	7.62087e-06	3.92817e-06	7.99834	1.51783	8.14108	10.7451	44680.3	235447	239649	-79.2549	0.0000000E+000	0.0000000E+000	0.0000000E+000	79.2549	0.0000000E+000	0.0000000E+000	0.0000000E+000	-79.2549	0.0000000E+000	0.0000000E+000	0.0000000E+000	-10.7451	0.0000000E+000	0.0000000E+000	0.0000000E+000	10.7451	5.2696	79.2549	-0.000278368
2699.14	0.133499	0.0222731	0.135344	-9.47207	97739	9.99e-05	-0.82798	2647.37	71.6966	2	37	0.00518327	0.038297	0	-0.504321	4.3	0.301851	0.16006	6.21437	8.31146e-06	8.33944e-06	2.77295e-06	4.44117e-06	3.62558e-06	6.13507e-06	0.0546003	0.0185141	0.554804	3.29023e-06	1.60939e-05	7.36415e-06	6.27123e-06	6.04179e-06	3.98839e-06	7.28785	1.21592	7.38858	9.47207	71696.6	429729	435669	-80.5279	0.0000000E+000	0.0000000E+000	0.0000000E+000	80.5279	0.0000000E+000	0.0000000E+000	0.0000000E+000	-80.5279	0.0000000E+000	0.0000000E+000	0.0000000E+000	-9.47207	0.0000000E+000	0.0000000E+000	0.0000000E+000	9.47207	5.99371	80.5279	-0.000298154
1347.15	0.144297	0.018082	0.145425	-7.14258	97743	8.58076e-05	-0.86565	6533.65	101.011	2	37	0.00512158	0.035218	0	-0.505146	4.3	0.32432	0.152676	6.11076	6.44217e-06	3.01639e-06	6.95451e-06	6.71511e-06	7.45245e-06	5.79923e-06	0.0364797	0.0351508	0.590712	5.28976e-06	4.61791e-06	7.17667e-06	4.12309e-06	4.25459e-06	3.7516e-06	6.82302	0.855003	6.87639	7.14258	101011	806083	812387	-82.8574	0.0000000E+000	0.0000000E+000	0.0000000E+000	82.8574	0.0000000E+000	0.0000000E+000	0.0000000E+000	-82.8574	0.0000000E+000	0.0000000E+000	0.0000000E+000	-7.14258	0.0000000E+000	0.0000000E+000	0.0000000E+000	7.14258	7.98012	82.8574	-0.000233109
672.366	0.151162	0.0127498	0.151698	-4.82124	97747	0.000114552	-0.809202	18565.6	131.147	2	37	0.00498346	0.0328511	0	-0.506099	4.3	0.324965	0.176653	6.35963	7.64773e-06	6.1443e-06	3.44763e-06	8.0048e-06	5.85565e-06	4.95419e-06	0.0728665	0.01374	0.636844	4.19139e-06	1.91236e-05	5.28644e-06	9.57804e-06	4.06253e-06	5.11784e-06	6.5687	0.554042	6.59203	4.82124	131147	1.55487e+06	1.56039e+06	-85.1788	0.0000000E+000	0.0000000E+000	0.0000000E+000	85.1788	0.0000000E+000	0.0000000E+000	0.0000000E+000	-85.1788	0.0000000E+000	0.0000000E+000	0.0000000E+000	-4.82124	0.0000000E+000	0.0000000E+000	0.0000000E+000	4.82124	11.856	85.1788	-0.000360597
335.537	0.154733	0.00804105	0.154942	-2.97483	97750.5	0.000141208	-0.78845	58988.5	158.875	2	37	0.00529684	0.034186	0	-0.506866	4.3	0.302778	0.186937	6.01814	5.63085e-06	6.86406e-06	6.81039e-06	6.8744e-06	4.04826e-06	6.62669e-06	0.0855461	0.0163308	0.613401	4.02213e-06	2.19105e-05	9.68609e-06	1.41923e-05	5.65069e-06	4.39758e-06	6.44533	0.334946	6.45403	2.97483	158875	3.05721e+06	3.06134e+06	-87.0252	0.0000000E+000	0.0000000E+000	0.0000000E+000	87.0252	0.0000000E+000	0.0000000E+000	0.0000000E+000	-87.0252	0.0000000E+000	0.0000000E+000	0.0000000E+000	-2.97483	0.0000000E+000	0.0000000E+000	0.0000000E+000	2.97483	19.2429	87.0252	-0.000275513
167.481	0.15649	0.00532514	0.15658	-1.94895	97753.8	0.000115987	-0.774138	178453	206.401	2	37	0.00549612	0.0351009	0	-0.507601	4.3	0.320754	0.141404	5.75754	6.67609e-06	9.11413e-06	4.27111e-06	3.07555e-06	7.69197e-06	5.61376e-06	0.0947947	0.0225802	0.603531	2.92744e-06	2.3446e-05	7.0164e-06	2.07961e-05	4.75913e-06	4.82552e-06	6.3828	0.217198	6.38649	1.94895	206400	6.06549e+06	6.069e+06	-88.0511	0.0000000E+000	0.0000000E+000	0.0000000E+000	88.0511	0.0000000E+000	0.0000000E+000	0.0000000E+000	-88.0511	0.0000000E+000	0.0000000E+000	0.0000000E+000	-1.94895	0.0000000E+000	0.0000000E+000	0.0000000E+000	1.94895	29.387	88.0511	-0.00027547
83.635	0.157867	0.0035438	0.157906	-1.28596	97757.4	0.000104709	-0.833378	536986	270.459	2	37	0.00509215	0.0322479	0	-0.508349	4.3	0.351095	0.215277	6.12182	8.09552e-06	9.04337e-06	6.71775e-06	5.84395e-06	3.11313e-06	3.83065e-06	0.121512	0.025578	0.662245	4.9953e-06	2.78703e-05	5.74478e-06	2.33276e-05	6.84436e-06	4.29759e-06	6.33127	0.142125	6.33287	1.28596	270460	1.20482e+07	1.20513e+07	-88.714	0.0000000E+000	0.0000000E+000	0.0000000E+000	88.714	0.0000000E+000	0.0000000E+000	0.0000000E+000	-88.714	0.0000000E+000	0.0000000E+000	0.0000000E+000	-1.28596	0.0000000E+000	0.0000000E+000	0.0000000E+000	1.28596	44.5472	88.714	-0.000224019
41.7501	0.158795	0.00272274	0.158818	-0.982316	97760.7	0.000109668	-0.82759	1.40009e+06	411.5	2	37	0.0051028	0.0321299	0	-0.509087	4.3	0.339076	0.167447	6.18999	5.30061e-06	5.1366e-06	6.10494e-06	8.08786e-06	6.33613e-06	7.85206e-06	0.132313	0.075902	0.639033	5.64886e-06	2.46797e-05	6.94432e-06	2.86952e-05	1.6263e-05	4.01859e-06	6.2956	0.107946	6.29652	0.982316	411500	2.39993e+07	2.40028e+07	-89.0177	0.0000000E+000	0.0000000E+000	0.0000000E+000	89.0177	0.0000000E+000	0.0000000E+000	0.0000000E+000	-89.0177	0.0000000E+000	0.0000000E+000	0.0000000E+000	-0.982316	0.0000000E+000	0.0000000E+000	0.0000000E+000	0.982316	58.3215	89.0177	-0.000281231
20.8333	0.159658	0.00259492	0.159679	-0.931147	97764	0.00010456	-0.823086	2.944e+06	777.482	2	37	0.00510746	0.0319858	0	-0.509896	4.3	0.301967	0.161223	6.22453	4.3901e-06	5.06623e-06	6.53578e-06	5.77976e-06	5.24599e-06	6.6506e-06	0.125503	0.213291	0.618719	1.039e-05	2.61635e-05	3.37174e-06	2.28483e-05	4.91079e-06	1.42839e-05	6.26173	0.101772	6.26256	0.931147	777480	4.78362e+07	4.78425e+07	-89.0689	0.0000000E+000	0.0000000E+000	0.0000000E+000	89.0689	0.0000000E+000	0.0000000E+000	0.0000000E+000	-89.0689	0.0000000E+000	0.0000000E+000	0.0000000E+000	-0.931147	0.0000000E+000	0.0000000E+000	0.0000000E+000	0.931147	61.5271	89.0689	-0.00033256
10.3959	0.160185	0.0029988	0.160213	-1.0725	97767.4	0.000101969	-0.8556	5.10519e+06	1788.58	2	37	0.00510293	0.0318508	0	-0.510431	4.3	0.3365	0.136051	6.23749	6.42801e-06	7.50866e-06	3.29123e-06	9.002e-06	6.5955e-06	6.05419e-06	0.174748	0.2614	0.622977	1.28812e-05	3.27323e-05	1.67759e-05	3.55825e-05	7.24153e-06	3.57195e-06	6.24058	0.116829	6.24168	1.0725	1.78859e+06	9.55398e+07	9.55566e+07	-88.9275	0.0000000E+000	0.0000000E+000	0.0000000E+000	88.9275	0.0000000E+000	0.0000000E+000	0.0000000E+000	-88.9275	0.0000000E+000	0.0000000E+000	0.0000000E+000	-1.0725	0.0000000E+000	0.0000000E+000	0.0000000E+000	1.0725	53.4164	88.9275	-5.97311e-05
5.19276	0.161321	0.0040121	0.161371	-1.42466	97771.5	0.000106511	-0.856865	7.63925e+06	4722.17	2	37	0.0051046	0.0316327	0	-0.51164	4.3	0.209464	0.16174	3.64126	4.31413e-06	4.74275e-06	2.42736e-06	3.88883e-06	3.79189e-06	4.25229e-06	0.218034	0.0615734	0.429663	1.27206e-05	6.13798e-05	7.93513e-06	2.42393e-05	4.61124e-06	3.14256e-06	6.19498	0.15407	6.19689	1.42466	4.72218e+06	1.89872e+08	1.89931e+08	-88.5753	0.0000000E+000	0.0000000E+000	0.0000000E+000	88.5753	0.0000000E+000	0.0000000E+000	0.0000000E+000	-88.5753	0.0000000E+000	0.0000000E+000	0.0000000E+000	-1.42466	0.0000000E+000	0.0000000E+000	0.0000000E+000	1.42466	40.2087	88.5753	-0.000200242
2.58949	0.16279	0.00565684	0.162889	-1.99018	97778.3	0.000109764	-0.808188	1.0865e+07	13103.8	2	37	0.0051027	0.0313263	0	-0.512865	4.3	0.136939	0.109554	2.21264	3.37316e-06	3.50519e-06	1.64307e-06	2.47052e-06	2.83993e-06	1.50448e-06	0.207126	0.0730119	0.358921	1.02635e-05	2.67804e-05	9.737e-06	2.29454e-05	5.04941e-05	9.55412e-06	6.13546	0.213203	6.13917	1.99018	1.31038e+07	3.77097e+08	3.77324e+08	-88.0098	0.0000000E+000	0.0000000E+000	0.0000000E+000	88.0098	0.0000000E+000	0.0000000E+000	0.0000000E+000	-88.0098	0.0000000E+000	0.0000000E+000	0.0000000E+000	-1.99018	0.0000000E+000	0.0000000E+000	0.0000000E+000	1.99018	28.7776	88.0098	-0.000432773
1.29325	0.164901	0.00842706	0.165116	-2.92548	97790.9	0.000104285	-0.811252	1.46037e+07	38039.4	2	37	0.00510232	0.0309014	0	-0.51492	4.3	0.11826	0.060735	1.55146	2.23595e-06	4.20274e-06	1.96141e-06	2.01242e-06	1.18431e-06	1.48901e-06	0.128538	0.0920082	0.371703	1.05726e-05	2.60162e-05	7.63442e-06	2.60343e-05	2.71266e-06	3.9348e-06	6.04844	0.309098	6.05633	2.92548	3.80394e+07	7.44357e+08	7.45328e+08	-87.0745	0.0000000E+000	0.0000000E+000	0.0000000E+000	87.0745	0.0000000E+000	0.0000000E+000	0.0000000E+000	-87.0745	0.0000000E+000	0.0000000E+000	0.0000000E+000	-2.92548	0.0000000E+000	0.0000000E+000	0.0000000E+000	2.92548	19.5681	87.0745	0.000777753
0.645874	0.167938	0.0125914	0.168409	-4.2878	97814.8	0.000106351	-0.850353	1.95704e+07	109399	2	37	0.00510184	0.0302943	0	-0.520657	4.3	0.131831	0.0580046	1.08587	1.7443e-06	4.74352e-06	2.26196e-06	2.51114e-06	1.79969e-06	1.32962e-06	0.128887	0.0958906	0.355327	9.38273e-06	2.5992e-05	3.8393e-06	2.59479e-05	4.67375e-06	3.97608e-06	5.9213	0.443957	5.93792	4.2878	1.09399e+08	1.45911e+09	1.46321e+09	-85.7122	0.0000000E+000	0.0000000E+000	0.0000000E+000	85.7122	0.0000000E+000	0.0000000E+000	0.0000000E+000	-85.7122	0.0000000E+000	0.0000000E+000	0.0000000E+000	-4.2878	0.0000000E+000	0.0000000E+000	0.0000000E+000	4.2878	13.3375	85.7122	-0.00225583
0.322118	0.172451	0.0206612	0.173684	-6.83201	97861.7	0.000104128	-0.855939	2.39138e+07	338409	2	37	0.00509968	0.0293619	0	-0.528978	4.3	0.107204	0.0977219	0.788217	1.69547e-06	4.16435e-06	9.69928e-07	2.4388e-06	7.36407e-07	1.14385e-06	0.122478	0.113394	0.361123	9.06378e-06	2.21031e-05	7.65478e-06	2.39788e-05	4.96866e-06	5.65639e-06	5.71671	0.684915	5.75759	6.83201	3.38409e+08	2.82456e+09	2.84476e+09	-83.168	0.0000000E+000	0.0000000E+000	0.0000000E+000	83.168	0.0000000E+000	0.0000000E+000	0.0000000E+000	-83.168	0.0000000E+000	0.0000000E+000	0.0000000E+000	-6.83201	0.0000000E+000	0.0000000E+000	0.0000000E+000	6.83201	8.34659	83.168	5.05798e-05
0.160792	0.187206	0.0311745	0.189784	-9.4544	97954.6	0.000101471	-0.884069	3.17508e+07	856709	2	37	0.00509376	0.0268397	0	-0.562549	4.3	0.0868201	0.109246	0.546151	1.48595e-06	3.41516e-06	1.05106e-06	1.60021e-06	4.57961e-07	7.61182e-07	0.1951	0.221308	0.38242	3.02699e-05	2.11149e-05	1.07464e-05	2.53101e-05	8.24566e-06	8.62252e-06	5.19757	0.865523	5.26914	9.4544	8.56709e+08	5.14463e+09	5.21548e+09	-80.5456	0.0000000E+000	0.0000000E+000	0.0000000E+000	80.5456	0.0000000E+000	0.0000000E+000	0.0000000E+000	-80.5456	0.0000000E+000	0.0000000E+000	0.0000000E+000	-9.4544	0.0000000E+000	0.0000000E+000	0.0000000E+000	9.4544	6.00512	80.5456	-0.0148053
0.0802383	0.208176	0.0310594	0.210481	-8.4858	98164.9	0.000122606	-0.749301	6.38624e+07	1.39062e+06	2	38	0.00509059	0.0241856	0	-0.594098	4.3	0.118441	0.132165	0.402812	1.49117e-06	4.9857e-06	1.00722e-06	2.10938e-06	1.39467e-06	8.09364e-07	0.211237	0.343231	0.42709	1.9342e-05	3.26446e-05	1.60542e-05	2.42336e-05	1.09642e-05	7.25263e-06	4.69902	0.701082	4.75103	8.4858	1.39062e+09	9.32064e+09	9.4238e+09	-81.5142	0.0000000E+000	0.0000000E+000	0.0000000E+000	81.5142	0.0000000E+000	0.0000000E+000	0.0000000E+000	-81.5142	0.0000000E+000	0.0000000E+000	0.0000000E+000	-8.4858	0.0000000E+000	0.0000000E+000	0.0000000E+000	8.4858	6.70252	81.5142	-0.0123333
0.04008	0.222623	0.0225754	0.223765	-5.79036	98534.9	0.000118763	-0.76121	1.75897e+08	1.79038e+06	2	38	0.00508575	0.0227281	0	-0.693399	4.3	0.108636	0.0776432	0.310679	1.24556e-06	4.35752e-06	1.03649e-06	2.54621e-06	3.83319e-07	7.26436e-07	0.236053	0.0685879	0.619157	7.66944e-06	2.85954e-05	2.30371e-05	2.73839e-05	2.19469e-05	7.16655e-06	4.44617	0.45087	4.46898	5.79036	1.79038e+09	1.76555e+10	1.7746e+10	-84.2096	0.0000000E+000	0.0000000E+000	0.0000000E+000	84.2096	0.0000000E+000	0.0000000E+000	0.0000000E+000	-84.2096	0.0000000E+000	0.0000000E+000	0.0000000E+000	-5.79036	0.0000000E+000	0.0000000E+000	0.0000000E+000	5.79036	9.86131	84.2096	-0.0492032
0.0199946	0.229813	0.014258	0.230254	-3.55018	99275.4	0.000114544	-0.836391	5.58278e+08	2.14067e+06	2	38	0.0050866	0.0220912	0	-0.885663	4.3	0.109289	0.135571	0.2464	1.65383e-06	4.68919e-06	1.03078e-06	1.16482e-06	7.89729e-07	1.10454e-06	0.164768	0.0692279	0.658985	1.47565e-05	2.20681e-05	4.66383e-06	1.6985e-05	1.03761e-05	9.10823e-06	4.33469	0.268931	4.34302	3.55018	2.14067e+09	3.45037e+10	3.457e+10	-86.4498	0.0000000E+000	0.0000000E+000	0.0000000E+000	86.4498	0.0000000E+000	0.0000000E+000	0.0000000E+000	-86.4498	0.0000000E+000	0.0000000E+000	0.0000000E+000	-3.55018	0.0000000E+000	0.0000000E+000	0.0000000E+000	3.55018	16.1182	86.4498	-0.0623431
138435	0.085307	-0.0106071	0.0859639	7.08781	99279.2	0.000204661	-0.435245	-108.387	-1.65021	3	37	0.00510112	0.0593403	0	-0.8868	4.3	-1	-1	-1	0	0	0	0	0	0	-1	-1	-1	0	0	0	0	0	0	11.5439	-1.43537	11.6328	-7.08781	-1650.21	13271.7	13373.9	-97.0878	0.0000000E+000	0.0000000E+000	0.0000000E+000	97.0878	0.0000000E+000	0.0000000E+000	0.0000000E+000	-97.0878	0.0000000E+000	0.0000000E+000	0.0000000E+000	7.08781	0.0000000E+000	0.0000000E+000	0.0000000E+000	-7.08781	8.04243	82.9122	-0.000126987
69097	0.0896248	0.00106567	0.0896311	-0.681232	99282.6	0.000203598	-0.349205	2161.42	0.305537	3	37	0.00521931	0.058231	0	-0.887093	4.3	0.296923	0.135525	6.08776	6.7797e-06	8.91707e-06	5.8282e-06	4.51538e-06	4.37981e-06	4.68293e-06	0.098016	0.0608211	0.365064	1.77391e-05	5.34495e-05	2.8201e-06	6.93859e-06	1.8126e-06	3.4944e-06	11.156	0.132649	11.1568	0.681232	305.536	25696.3	25698.2	-89.3188	0.0000000E+000	0.0000000E+000	0.0000000E+000	89.3188	0.0000000E+000	0.0000000E+000	0.0000000E+000	-89.3188	0.0000000E+000	0.0000000E+000	0.0000000E+000	-0.681232	0.0000000E+000	0.0000000E+000	0.0000000E+000	0.681232	84.1022	89.3188	-2.87221e-05
34488.2	0.0945707	0.00955513	0.0950522	-5.76941	99286.1	0.000205034	-0.317808	482.962	4.88047	3	37	0.00519643	0.0546692	0	-0.887289	4.3	0.294597	0.177749	6.02884	7.68359e-06	3.79455e-06	6.88879e-06	6.07804e-06	5.51279e-06	4.75411e-06	0.110394	0.0513103	0.384102	1.04292e-05	5.79673e-05	4.04565e-06	1.01148e-05	4.82622e-06	3.76235e-06	10.4672	1.05758	10.5205	5.76941	4880.47	48303.9	48549.8	-84.2306	0.0000000E+000	0.0000000E+000	0.0000000E+000	84.2306	0.0000000E+000	0.0000000E+000	0.0000000E+000	-84.2306	0.0000000E+000	0.0000000E+000	0.0000000E+000	-5.76941	0.0000000E+000	0.0000000E+000	0.0000000E+000	5.76941	9.89738	84.2306	-0.000120424
17211.6	0.102055	0.0162289	0.103338	-9.03556	99289.5	0.000205947	-0.377829	569.783	14.0531	3	37	0.0051815	0.0501415	0	-0.887723	4.3	0.354651	0.103447	6.10863	6.50017e-06	5.55004e-06	1.06417e-05	4.04212e-06	8.30543e-06	6.90968e-06	0.0972537	0.0114949	0.410982	5.77143e-06	4.70485e-05	4.29201e-06	7.80885e-06	5.72301e-06	1.5974e-06	9.55694	1.51975	9.67702	9.03556	14053.1	88372.5	89482.9	-80.9644	0.0000000E+000	0.0000000E+000	0.0000000E+000	80.9644	0.0000000E+000	0.0000000E+000	0.0000000E+000	-80.9644	0.0000000E+000	0.0000000E+000	0.0000000E+000	-9.03556	0.0000000E+000	0.0000000E+000	0.0000000E+000	9.03556	6.28849	80.9644	-0.000105125
8590.41	0.112332	0.0211767	0.11431	-10.6761	99293	8.42977e-05	-0.986548	874.879	30.0257	3	37	0.00527485	0.046145	0	-0.888214	4.3	0.396615	0.167697	6.13288	7.66519e-06	1.20328e-05	6.89646e-06	8.27237e-06	4.16437e-06	9.08207e-06	0.0993037	0.052443	0.461477	4.87311e-06	4.38095e-05	5.48413e-06	8.38028e-06	5.23714e-06	3.81169e-06	8.59668	1.62064	8.74811	10.6761	30025.7	159271	162077	-79.3239	0.0000000E+000	0.0000000E+000	0.0000000E+000	79.3239	0.0000000E+000	0.0000000E+000	0.0000000E+000	-79.3239	0.0000000E+000	0.0000000E+000	0.0000000E+000	-10.6761	0.0000000E+000	0.0000000E+000	0.0000000E+000	10.6761	5.3045	79.3239	-0.000189942
4288.63	0.124704	0.0230617	0.126818	-10.4775	99296.8	8.30674e-05	-0.880073	1609.2	53.2146	3	37	0.00518676	0.0408993	0	-0.88919	4.3	0.294951	0.154469	6.13062	4.71158e-06	9.22318e-06	4.43286e-06	5.29584e-06	3.03935e-06	4.62739e-06	0.0602005	0.0308758	0.525176	5.34936e-06	2.19743e-05	3.9827e-06	6.1259e-06	4.41996e-06	2.6031e-06	7.75384	1.43393	7.88531	10.4775	53214.6	287752	292631	-79.5225	0.0000000E+000	0.0000000E+000	0.0000000E+000	79.5225	0.0000000E+000	0.0000000E+000	0.0000000E+000	-79.5225	0.0000000E+000	0.0000000E+000	0.0000000E+000	-10.4775	0.0000000E+000	0.0000000E+000	0.0000000E+000	10.4775	5.40739	79.5225	-0.000391824
2140.69	0.137124	0.0210546	0.138731	-8.72926	99300.8	7.69346e-05	-0.917463	3531.19	81.3332	3	37	0.00515817	0.0371811	0	-0.890145	4.3	0.283952	0.193976	6.22805	8.08707e-06	7.37874e-06	5.11253e-06	4.79925e-06	3.18962e-06	3.03303e-06	0.0385617	0.0335072	0.574484	5.36067e-06	7.89192e-06	5.45581e-06	2.09196e-06	5.37501e-06	2.14591e-06	7.12471	1.09396	7.2082	8.72926	81333.2	529705	535913	-81.2707	0.0000000E+000	0.0000000E+000	0.0000000E+000	81.2707	0.0000000E+000	0.0000000E+000	0.0000000E+000	-81.2707	0.0000000E+000	0.0000000E+000	0.0000000E+000	-8.72926	0.0000000E+000	0.0000000E+000	0.0000000E+000	8.72926	6.51278	81.2707	-0.000321941
1068.29	0.146542	0.0161537	0.14743	-6.29046	99304.8	6.52469e-05	-0.922786	9222.69	110.721	3	37	0.00510519	0.034628	0	-0.890984	4.3	0.23911	0.131243	6.19798	6.24862e-06	4.03054e-06	5.24843e-06	5.36331e-06	2.16541e-06	3.55199e-06	0.0458986	0.0932769	0.6297	4.4293e-06	8.98353e-06	7.57037e-06	6.52415e-06	5.86392e-06	2.03333e-06	6.74206	0.743194	6.7829	6.29046	110721	1.00443e+06	1.01052e+06	-83.7095	0.0000000E+000	0.0000000E+000	0.0000000E+000	83.7095	0.0000000E+000	0.0000000E+000	0.0000000E+000	-83.7095	0.0000000E+000	0.0000000E+000	0.0000000E+000	-6.29046	0.0000000E+000	0.0000000E+000	0.0000000E+000	6.29046	9.07173	83.7095	-0.000298539
533.464	0.152275	0.0109178	0.152666	-4.10095	99308.5	0.000102994	-0.841641	27326.3	139.753	3	37	0.00532892	0.0349057	0	-0.891971	4.3	0.335775	0.1266	5.95048	6.8302e-06	6.26379e-06	6.03257e-06	7.70488e-06	8.84259e-06	5.79663e-06	0.0659115	0.0196395	0.608596	5.44889e-06	1.40353e-05	7.29975e-06	1.15535e-05	5.0175e-06	8.01129e-06	6.53346	0.468433	6.55023	4.10095	139753	1.94921e+06	1.95421e+06	-85.8991	0.0000000E+000	0.0000000E+000	0.0000000E+000	85.8991	0.0000000E+000	0.0000000E+000	0.0000000E+000	-85.8991	0.0000000E+000	0.0000000E+000	0.0000000E+000	-4.10095	0.0000000E+000	0.0000000E+000	0.0000000E+000	4.10095	13.9475	85.8991	-0.000278547
266.278	0.155191	0.00707072	0.155352	-2.60868	99312.1	8.32165e-05	-0.891612	84532.1	175.112	3	37	0.00540161	0.0347702	0	-0.892792	4.3	0.265001	0.187069	5.87794	7.13811e-06	4.66202e-06	3.46291e-06	6.96833e-06	4.31651e-06	4.88771e-06	0.0833433	0.0169374	0.60229	2.75308e-06	2.14471e-05	2.45152e-06	1.70719e-05	6.44961e-06	3.65457e-06	6.43034	0.292976	6.43701	2.60868	175113	3.84343e+06	3.84742e+06	-87.3913	0.0000000E+000	0.0000000E+000	0.0000000E+000	87.3913	0.0000000E+000	0.0000000E+000	0.0000000E+000	-87.3913	0.0000000E+000	0.0000000E+000	0.0000000E+000	-2.60868	0.0000000E+000	0.0000000E+000	0.0000000E+000	2.60868	21.9484	87.3913	-0.000283408
132.916	0.156753	0.00446915	0.156816	-1.63311	99315.6	0.000102733	-0.88709	267928	217.613	3	37	0.00506875	0.0323228	0	-0.893691	4.3	0.31649	0.126401	6.35167	6.07094e-06	6.65729e-06	6.10247e-06	6.04963e-06	7.50784e-06	3.18171e-06	0.112856	0.0256325	0.669513	3.76482e-06	2.47268e-05	6.55721e-06	2.45211e-05	2.94961e-06	6.2137e-06	6.3743	0.181737	6.37689	1.63311	217613	7.63264e+06	7.63575e+06	-88.3669	0.0000000E+000	0.0000000E+000	0.0000000E+000	88.3669	0.0000000E+000	0.0000000E+000	0.0000000E+000	-88.3669	0.0000000E+000	0.0000000E+000	0.0000000E+000	-1.63311	0.0000000E+000	0.0000000E+000	0.0000000E+000	1.63311	35.0744	88.3669	-0.0002963
66.3374	0.157845	0.00326824	0.157879	-1.18616	99319	0.000105306	-0.878101	734088	314.577	3	37	0.00509952	0.0323002	0	-0.894458	4.3	0.315634	0.192508	6.18489	5.0798e-06	2.91766e-06	5.13608e-06	8.67621e-06	4.72045e-06	8.03377e-06	0.114318	0.0253289	0.663365	6.45801e-06	2.6982e-05	6.00555e-06	2.24774e-05	6.11033e-06	2.06876e-06	6.33261	0.131119	6.33397	1.18616	314577	1.5193e+07	1.51963e+07	-88.8138	0.0000000E+000	0.0000000E+000	0.0000000E+000	88.8138	0.0000000E+000	0.0000000E+000	0.0000000E+000	-88.8138	0.0000000E+000	0.0000000E+000	0.0000000E+000	-1.18616	0.0000000E+000	0.0000000E+000	0.0000000E+000	1.18616	48.2967	88.8138	-0.000241562
33.1038	0.15853	0.00268419	0.158553	-0.970024	99322.3	0.00010154	-0.902072	1.79114e+06	513.342	3	37	0.00510544	0.0322002	0	-0.895273	4.3	0.284599	0.245392	6.13322	6.52688e-06	7.72364e-06	3.23188e-06	3.01739e-06	5.67602e-06	5.40983e-06	0.117046	0.0280937	0.664977	8.18224e-06	2.30433e-05	6.78015e-06	2.58044e-05	7.50581e-06	4.93537e-06	6.30614	0.106774	6.30704	0.970024	513342	3.03183e+07	3.03227e+07	-89.03	0.0000000E+000	0.0000000E+000	0.0000000E+000	89.03	0.0000000E+000	0.0000000E+000	0.0000000E+000	-89.03	0.0000000E+000	0.0000000E+000	0.0000000E+000	-0.970024	0.0000000E+000	0.0000000E+000	0.0000000E+000	0.970024	59.0607	89.03	-0.000284363
16.5286	0.159334	0.0025779	0.159355	-0.926916	99325.5	0.000109947	-0.829339	3.73524e+06	977.5	3	37	0.00510478	0.0320339	0	-0.895969	4.3	0.250424	0.187616	6.29317	3.77373e-06	3.1739e-06	3.83255e-06	5.25591e-06	6.11334e-06	5.90031e-06	0.144019	0.0866659	0.614417	3.1581e-06	3.76978e-05	4.1302e-06	2.44738e-05	6.40607e-06	2.85358e-06	6.27446	0.101515	6.27528	0.926916	977502	6.04172e+07	6.04251e+07	-89.0731	0.0000000E+000	0.0000000E+000	0.0000000E+000	89.0731	0.0000000E+000	0.0000000E+000	0.0000000E+000	-89.0731	0.0000000E+000	0.0000000E+000	0.0000000E+000	-0.926916	0.0000000E+000	0.0000000E+000	0.0000000E+000	0.926916	61.8079	89.0731	-0.000267974
8.24973	0.160044	0.00329817	0.160078	-1.18058	99329	0.00011046	-0.905087	5.84934e+06	2483.07	3	37	0.00510297	0.031878	0	-0.896819	4.3	0.218635	0.106167	4.35647	3.74027e-06	3.3581e-06	5.92759e-06	3.8483e-06	4.44388e-06	4.05397e-06	0.237783	0.128973	0.462531	4.88735e-05	3.27193e-05	7.27576e-06	2.71718e-05	3.76414e-05	4.19688e-06	6.24562	0.128709	6.24695	1.18058	2.48308e+06	1.20491e+08	1.20517e+08	-88.8194	0.0000000E+000	0.0000000E+000	0.0000000E+000	88.8194	0.0000000E+000	0.0000000E+000	0.0000000E+000	-88.8194	0.0000000E+000	0.0000000E+000	0.0000000E+000	-1.18058	0.0000000E+000	0.0000000E+000	0.0000000E+000	1.18058	48.5251	88.8194	-0.000222676
4.11618	0.161078	0.00453019	0.161141	-1.61098	99333.8	0.000112259	-0.865734	8.53511e+06	6745.74	3	37	0.00510267	0.0316658	0	-0.897379	4.3	0.150785	0.0772667	2.93411	1.50134e-06	5.62899e-06	2.0804e-06	2.10286e-06	2.56436e-06	2.07957e-06	0.155288	0.0413798	0.418862	6.00394e-06	2.56917e-05	2.94773e-05	2.60556e-05	5.38497e-06	5.29566e-06	6.20329	0.174463	6.20574	1.61098	6.74573e+06	2.39854e+08	2.39949e+08	-88.389	0.0000000E+000	0.0000000E+000	0.0000000E+000	88.389	0.0000000E+000	0.0000000E+000	0.0000000E+000	-88.389	0.0000000E+000	0.0000000E+000	0.0000000E+000	-1.61098	0.0000000E+000	0.0000000E+000	0.0000000E+000	1.61098	35.5564	88.389	0.00010116
2.05457	0.162896	0.00653929	0.163027	-2.29885	99342.1	0.000109877	-0.883344	1.18459e+07	19059.5	3	37	0.00510265	0.0312994	0	-0.899885	4.3	0.161591	0.0704918	2.02057	2.49598e-06	5.55975e-06	2.64898e-06	1.77922e-06	2.99116e-06	2.92903e-06	0.156059	0.0627431	0.370096	7.59897e-06	2.46957e-05	5.00731e-06	2.05504e-05	1.05211e-05	3.38085e-05	6.12902	0.246044	6.13396	2.29885	1.90595e+07	4.74777e+08	4.7516e+08	-87.7011	0.0000000E+000	0.0000000E+000	0.0000000E+000	87.7011	0.0000000E+000	0.0000000E+000	0.0000000E+000	-87.7011	0.0000000E+000	0.0000000E+000	0.0000000E+000	-2.29885	0.0000000E+000	0.0000000E+000	0.0000000E+000	2.29885	24.9103	87.7011	-0.000521232
1.02607	0.165225	0.00962525	0.165505	-3.33402	99357.6	0.000116831	-0.783468	1.6115e+07	54504.3	3	37	0.00510112	0.0308215	0	-0.901761	4.3	0.133515	0.0646482	1.42118	2.11698e-06	4.87754e-06	1.37168e-06	2.90822e-06	1.60919e-06	1.79063e-06	0.119572	0.0480435	0.360455	4.57307e-06	2.59805e-05	2.74233e-06	2.4988e-05	2.33439e-06	2.41175e-06	6.03188	0.351389	6.04211	3.33402	5.45043e+07	9.35611e+08	9.37197e+08	-86.666	0.0000000E+000	0.0000000E+000	0.0000000E+000	86.666	0.0000000E+000	0.0000000E+000	0.0000000E+000	-86.666	0.0000000E+000	0.0000000E+000	0.0000000E+000	-3.33402	0.0000000E+000	0.0000000E+000	0.0000000E+000	3.33402	17.1658	86.666	0.000562439
0.511825	0.168575	0.0145628	0.169203	-4.93739	99387.5	0.000116635	-0.795566	2.13528e+07	158172	3	37	0.00510276	0.0301577	0	-0.907236	4.3	0.106915	0.046871	0.968531	1.06476e-06	4.4778e-06	1.32605e-06	1.53405e-06	1.15938e-06	1.33071e-06	0.118204	0.173944	0.359222	1.13684e-05	2.28539e-05	5.55403e-06	2.1283e-05	5.02555e-06	3.28806e-06	5.88815	0.508664	5.91008	4.93739	1.58172e+08	1.83095e+09	1.83777e+09	-85.0626	0.0000000E+000	0.0000000E+000	0.0000000E+000	85.0626	0.0000000E+000	0.0000000E+000	0.0000000E+000	-85.0626	0.0000000E+000	0.0000000E+000	0.0000000E+000	-4.93739	0.0000000E+000	0.0000000E+000	0.0000000E+000	4.93739	11.5757	85.0626	-0.00110405
0.255612	0.175391	0.0247023	0.177122	-8.01686	99446.3	0.000111195	-0.794251	2.52059e+07	490264	3	37	0.00509933	0.0287899	0	-0.921805	4.3	0.102079	0.0685997	0.692523	1.21865e-06	4.13604e-06	1.16299e-06	1.91492e-06	8.43383e-07	4.64745e-07	0.134271	0.216265	0.358249	1.26907e-05	2.67499e-05	8.3305e-06	1.92931e-05	7.53619e-06	3.64695e-06	5.59064	0.787391	5.64581	8.01686	4.90264e+08	3.48098e+09	3.51533e+09	-81.9831	0.0000000E+000	0.0000000E+000	0.0000000E+000	81.9831	0.0000000E+000	0.0000000E+000	0.0000000E+000	-81.9831	0.0000000E+000	0.0000000E+000	0.0000000E+000	-8.01686	0.0000000E+000	0.0000000E+000	0.0000000E+000	8.01686	7.10021	81.9831	-0.00131592
0.127525	0.193989	0.0327032	0.196727	-9.56909	99563.2	0.000137159	-0.820026	3.81623e+07	1.0546e+06	3	37	0.00509442	0.0258959	0	-0.949078	4.3	0.103364	0.0742758	0.49296	1.35539e-06	4.14955e-06	7.8352e-07	2.39657e-06	1.18036e-06	4.55304e-07	0.173199	0.349206	0.392502	1.77395e-05	2.87941e-05	9.89914e-06	2.56372e-05	4.23559e-06	7.8015e-06	5.01247	0.845014	5.0832	9.56909	1.0546e+09	6.25571e+09	6.34398e+09	-80.4309	0.0000000E+000	0.0000000E+000	0.0000000E+000	80.4309	0.0000000E+000	0.0000000E+000	0.0000000E+000	-80.4309	0.0000000E+000	0.0000000E+000	0.0000000E+000	-9.56909	0.0000000E+000	0.0000000E+000	0.0000000E+000	9.56909	5.93182	80.4309	-0.0172733
0.0636941	0.213608	0.0285803	0.215511	-7.6208	99828	0.00013339	-0.70475	8.74287e+07	1.53761e+06	3	38	0.00508692	0.0236039	0	-1.01594	4.3	0.0999417	0.0830626	0.359654	1.92363e-06	3.4159e-06	1.45667e-06	1.55776e-06	1.44496e-06	1.14516e-06	0.476519	0.161614	0.389505	8.81169e-05	2.46282e-05	5.53996e-05	2.91139e-05	7.0533e-06	9.08713e-06	4.59914	0.615356	4.64013	7.6208	1.53761e+09	1.14921e+10	1.15945e+10	-82.3792	0.0000000E+000	0.0000000E+000	0.0000000E+000	82.3792	0.0000000E+000	0.0000000E+000	0.0000000E+000	-82.3792	0.0000000E+000	0.0000000E+000	0.0000000E+000	-7.6208	0.0000000E+000	0.0000000E+000	0.0000000E+000	7.6208	7.47395	82.3792	-0.0227191
0.0317924	0.225283	0.0194502	0.226121	-4.93452	100294	0.000135557	-0.751236	2.57378e+08	1.90432e+06	3	38	0.00508855	0.0225037	0	-1.07259	4.3	0.10887	0.13012	0.281705	2.8311e-06	4.05833e-06	8.03462e-07	1.99843e-06	6.72611e-07	7.95341e-07	0.458103	0.132519	0.467392	9.84442e-06	2.27187e-05	1.34243e-05	7.94739e-05	2.16269e-05	5.38372e-05	4.40603	0.380404	4.42242	4.93452	1.90432e+09	2.20568e+10	2.21389e+10	-85.0655	0.0000000E+000	0.0000000E+000	0.0000000E+000	85.0655	0.0000000E+000	0.0000000E+000	0.0000000E+000	-85.0655	0.0000000E+000	0.0000000E+000	0.0000000E+000	-4.93452	0.0000000E+000	0.0000000E+000	0.0000000E+000	4.93452	11.5825	85.0655	-0.031687
0.0199946	0.229524	0.0141961	0.229962	-3.53924	100842	0.000114295	-0.84876	5.60711e+08	2.13679e+06	3	38	0.00508682	0.0221202	0	-1.2352	4.3	0.140696	0.109664	0.251826	1.68751e-06	6.09665e-06	1.28263e-06	2.23003e-06	8.32699e-07	4.89766e-07	0.196783	0.127786	0.617921	1.28751e-05	2.75689e-05	5.70465e-06	1.60984e-05	1.20033e-05	1.74099e-05	4.34024	0.268444	4.34854	3.53924	2.13679e+09	3.45479e+10	3.46139e+10	-86.4608	0.0000000E+000	0.0000000E+000	0.0000000E+000	86.4608	0.0000000E+000	0.0000000E+000	0.0000000E+000	-86.4608	0.0000000E+000	0.0000000E+000	0.0000000E+000	-3.53924	0.0000000E+000	0.0000000E+000	0.0000000E+000	3.53924	16.1681	86.4608	-0.0988938