File: Python/Experiments/IRFB/240507-Cloth-1p5M_FeCl2FeCl3-1M_HCl/Data/240507-EIS-Cloth-1p5M_FeCl2FeCl3-1M_HCl-Wamup_10mLmin-4xFlowRate-20mHz_10ppd_05_PEIS_C15.mpt
EC-Lab ASCII FILE
Nb header lines : 75

Potentio Electrochemical Impedance Spectroscopy

Run on channel : 15 (SN 19485)
User :
Electrode connection : standard
Potential control : Ewe
Ewe ctrl range : min = -1.00 V, max = 1.00 V
Ewe,I filtering : 50 kHz
Safety Limits :
	Do not start on E overload
Channel : Grounded
Acquisition started on : 05/08/2024 12:03:59.706
Loaded Setting File :  C:\Data\mathias\IRFB\240503-EIS-Felt-1p5M_FeCl2FeCl3-1M_HCl-Wamup_10mLmin-4xFlowRate-20mHz_10ppd.mps
Saved on :
	File : 240507-EIS-Cloth-1p5M_FeCl2FeCl3-1M_HCl-Wamup_10mLmin-4xFlowRate-20mHz_10ppd_05_PEIS_C15.mpr
	Directory : C:\Data\mathias\IRFB\
	Host : 192.168.0.1
Device : VMP-300 (SN 0826)
Address : USB
EC-Lab for windows v11.52 (software)
Internet server v11.52 (firmware)
Command interpretor v11.52 (firmware)
Electrode material :
Initial state :
Electrolyte :
Comments :
Cable : special
Electrode surface area : 0.001 cm²
Characteristic mass : 0.001 g
Equivalent Weight : 0.000 g/eq.
Density : 0.000 g/cm3
Volume (V) : 0.001 cm³
Record EIS quality indicators
Cycle Definition : Charge/Discharge alternance
External device configuration :
   device type : Other
   device name : Other
   Analog OUT :
      mode : E/V
      unit : KNF Pump/ml/min
      max : 120.000 at 5.000 V
      min : 0.000 at 0.000 V
      current : 4.300
Mode                Single sine
E (V)               0.0000
vs.                 Eoc
tE (h:m:s)          0:00:0.0000
record              0
dI                  0.000
unit dI             mA
dt (s)              0.000
fi                  220.000
unit fi             kHz
ff                  20.000
unit ff             mHz
Nd                  10
Points              per decade
spacing             Logarithmic
Va (mV)             5.0
pw                  0.10
Na                  3
corr                0
E range min (V)     -1.000
E range max (V)     1.000
I Range             Auto
Bandwidth           8
nc cycles           2
goto Ns'            0
nr cycles           0
inc. cycle          0

freq/Hz	Re(Z)/Ohm	-Im(Z)/Ohm	|Z|/Ohm	Phase(Z)/deg	time/s	<Ewe>/V	<I>/mA	Cs/µF	Cp/µF	cycle number	I Range	|Ewe|/V	|I|/A	Ns	(Q-Qo)/mA.h	Analog OUT/V	THD Ewe/%	NSD Ewe/%	NSR Ewe/%	|Ewe h2|/V	|Ewe h3|/V	|Ewe h4|/V	|Ewe h5|/V	|Ewe h6|/V	|Ewe h7|/V	THD I/%	NSD I/%	NSR I/%	|I h2|/A	|I h3|/A	|I h4|/A	|I h5|/A	|I h6|/A	|I h7|/A	Re(Y)/Ohm-1	Im(Y)/Ohm-1	|Y|/Ohm-1	Phase(Y)/deg	Re(C)/nF	Im(C)/nF	|C|/nF	Phase(C)/deg	Re(M)	Im(M)	|M|	Phase(M)/deg	Re(Permittivity)	Im(Permittivity)	|Permittivity|	Phase(Permittivity)/deg	Re(Resistivity)/Ohm.cm	Im(Resistivity)/Ohm.cm	|Resistivity|/Ohm.cm	Phase(Resistivity)/deg	Re(Conductivity)/mS/cm	Im(Conductivity)/mS/cm	|Conductivity|/mS/cm	Phase(Conductivity)/deg	Tan(Delta)	Loss Angle(Delta)/deg	dq/mA.h
220003	0.0809127	-0.0225578	0.0839983	15.578	101444	0.000210197	-0.377885	-32.0697	-2.31285	1	37	0.00298633	0.0355523	0	-0.000216531	6.2	-1	-1	-1	0	0	0	0	0	0	-1	-1	-1	0	0	0	0	0	0	11.4677	-3.19709	11.905	-15.578	-2312.85	8295.98	8612.35	-105.578	0.0000000E+000	0.0000000E+000	0.0000000E+000	105.578	0.0000000E+000	0.0000000E+000	0.0000000E+000	-105.578	0.0000000E+000	0.0000000E+000	0.0000000E+000	15.578	0.0000000E+000	0.0000000E+000	0.0000000E+000	-15.578	3.5869	74.422	-0.000216531
109811	0.0869527	-0.00593103	0.0871548	3.90209	101448	0.00019631	-0.441703	-244.368	-1.13167	1	37	0.00522553	0.0599568	0	-0.000560087	6.2	-1	-1	-1	0	0	0	0	0	0	-1	-1	-1	0	0	0	0	0	0	11.4472	-0.780814	11.4738	-3.90209	-1131.67	16591.1	16629.6	-93.9021	0.0000000E+000	0.0000000E+000	0.0000000E+000	93.9021	0.0000000E+000	0.0000000E+000	0.0000000E+000	-93.9021	0.0000000E+000	0.0000000E+000	0.0000000E+000	3.90209	0.0000000E+000	0.0000000E+000	0.0000000E+000	-3.90209	14.6606	86.0979	-6.03422e-05
54808.1	0.0910566	0.00420369	0.0911536	-2.64322	101451	0.000210104	-0.380342	690.788	1.46912	1	37	0.00521044	0.0571612	0	-0.00107232	6.2	0.359937	0.195317	6.04729	9.95505e-06	9.90537e-06	6.44874e-06	4.93234e-06	4.48462e-06	4.89968e-06	0.115401	0.0486706	0.359888	7.71493e-06	6.45591e-05	3.31464e-06	8.64382e-06	3.66789e-06	3.72278e-06	10.9588	0.505921	10.9705	2.64322	1469.12	31822.9	31856.8	-87.3568	0.0000000E+000	0.0000000E+000	0.0000000E+000	87.3568	0.0000000E+000	0.0000000E+000	0.0000000E+000	-87.3568	0.0000000E+000	0.0000000E+000	0.0000000E+000	-2.64322	0.0000000E+000	0.0000000E+000	0.0000000E+000	2.64322	21.6611	87.3568	-0.000235897
27362.3	0.0967209	0.011934	0.0974544	-7.03395	101455	0.0002107	-0.358697	487.395	7.30888	1	37	0.00519544	0.0533115	0	-0.00155296	6.2	0.288892	0.182315	5.99382	3.73248e-06	4.30261e-06	5.77384e-06	5.70243e-06	6.73116e-06	7.29395e-06	0.115986	0.0394081	0.396283	3.35263e-06	6.10628e-05	2.15158e-06	7.3932e-06	3.1703e-06	2.63445e-06	10.184	1.25656	10.2612	7.03395	7308.89	59235.9	59685.1	-82.966	0.0000000E+000	0.0000000E+000	0.0000000E+000	82.966	0.0000000E+000	0.0000000E+000	0.0000000E+000	-82.966	0.0000000E+000	0.0000000E+000	0.0000000E+000	-7.03395	0.0000000E+000	0.0000000E+000	0.0000000E+000	7.03395	8.10464	82.966	-0.00018389
13658	0.105224	0.0181979	0.106786	-9.81192	101458	0.000209135	-0.380956	640.342	18.5963	1	37	0.00518349	0.0485408	0	-0.00193044	6.2	0.391814	0.17504	6.08592	9.50249e-06	1.11876e-05	5.60384e-06	5.35466e-06	4.0822e-06	8.12529e-06	0.0900956	0.0137445	0.438125	4.58402e-06	4.16926e-05	6.19617e-06	6.45784e-06	5.55464e-06	2.10155e-06	9.22752	1.59585	9.3645	9.81192	18596.3	107527	109124	-80.1881	0.0000000E+000	0.0000000E+000	0.0000000E+000	80.1881	0.0000000E+000	0.0000000E+000	0.0000000E+000	-80.1881	0.0000000E+000	0.0000000E+000	0.0000000E+000	-9.81192	0.0000000E+000	0.0000000E+000	0.0000000E+000	9.81192	5.78221	80.1881	-0.000104738
6816.86	0.116374	0.0222112	0.118475	-10.8055	101462	7.5201e-05	-1.00542	1051.15	36.9451	1	37	0.00521637	0.0440293	0	-0.00270465	6.2	0.295212	0.130745	6.13889	5.41222e-06	7.57788e-06	7.66009e-06	4.22832e-06	4.73751e-06	5.66599e-06	0.0897511	0.0429495	0.475103	5.97926e-06	3.6328e-05	7.83654e-06	7.168e-06	7.70021e-06	2.79754e-06	8.29096	1.58242	8.44062	10.8055	36945.1	193571	197065	-79.1945	0.0000000E+000	0.0000000E+000	0.0000000E+000	79.1945	0.0000000E+000	0.0000000E+000	0.0000000E+000	-79.1945	0.0000000E+000	0.0000000E+000	0.0000000E+000	-10.8055	0.0000000E+000	0.0000000E+000	0.0000000E+000	10.8055	5.23943	79.1945	-0.000294276
3403.27	0.128905	0.022812	0.130908	-10.0356	101466	9.15862e-05	-0.874974	2050.03	62.2522	1	37	0.0051761	0.03954	0	-0.00364262	6.2	0.337513	0.222253	6.1112	6.03817e-06	6.83844e-06	6.19365e-06	6.36262e-06	4.86174e-06	8.52736e-06	0.0535024	0.0448022	0.535579	1.83607e-06	1.7659e-05	6.35455e-06	4.61801e-06	6.20845e-06	4.72028e-06	7.52208	1.33116	7.63896	10.0356	62252.2	351772	357238	-79.9644	0.0000000E+000	0.0000000E+000	0.0000000E+000	79.9644	0.0000000E+000	0.0000000E+000	0.0000000E+000	-79.9644	0.0000000E+000	0.0000000E+000	0.0000000E+000	-10.0356	0.0000000E+000	0.0000000E+000	0.0000000E+000	10.0356	5.65076	79.9644	-0.000304687
1698.37	0.140715	0.0195871	0.142072	-7.92448	101470	7.86309e-05	-0.874099	4784.29	90.9376	1	37	0.00514851	0.0362388	0	-0.00456793	6.2	0.278311	0.143278	6.12845	5.4539e-06	5.37631e-06	6.29582e-06	6.41471e-06	6.22847e-06	3.71444e-06	0.0354133	0.0614696	0.593936	5.99805e-06	5.01765e-06	5.05812e-06	4.26537e-06	3.32185e-06	4.23716e-06	6.97148	0.970409	7.03869	7.92448	90937.6	653301	659600	-82.0755	0.0000000E+000	0.0000000E+000	0.0000000E+000	82.0755	0.0000000E+000	0.0000000E+000	0.0000000E+000	-82.0755	0.0000000E+000	0.0000000E+000	0.0000000E+000	-7.92448	0.0000000E+000	0.0000000E+000	0.0000000E+000	7.92448	7.18406	82.0755	-0.000238709
847.556	0.148713	0.0143589	0.149404	-5.51508	101474	8.94798e-05	-0.879199	13077.7	120.794	1	37	0.00499157	0.0334098	0	-0.00546857	6.2	0.400144	0.222983	6.29416	6.55757e-06	7.08176e-06	1.08718e-05	8.63131e-06	6.56862e-06	4.61297e-06	0.0537249	0.092635	0.638062	2.18594e-06	1.14151e-05	7.89109e-06	8.1372e-06	5.24163e-06	3.71687e-06	6.66226	0.643272	6.69324	5.51508	120794	1.25105e+06	1.25686e+06	-84.4849	0.0000000E+000	0.0000000E+000	0.0000000E+000	84.4849	0.0000000E+000	0.0000000E+000	0.0000000E+000	-84.4849	0.0000000E+000	0.0000000E+000	0.0000000E+000	-5.51508	0.0000000E+000	0.0000000E+000	0.0000000E+000	5.51508	10.3568	84.4849	-0.000312983
423.239	0.15345	0.00947002	0.153741	-3.53149	101477	0.000109612	-0.916887	39708.5	150.662	1	37	0.00543749	0.0353677	0	-0.00636742	6.2	0.268738	0.155358	5.676	5.38458e-06	5.08214e-06	6.04794e-06	4.237e-06	6.74817e-06	6.06838e-06	0.0691302	0.0196962	0.607125	4.47559e-06	1.62889e-05	6.84005e-06	1.43113e-05	4.68916e-06	3.32213e-06	6.49207	0.400653	6.50443	3.53149	150662	2.44128e+06	2.44593e+06	-86.4685	0.0000000E+000	0.0000000E+000	0.0000000E+000	86.4685	0.0000000E+000	0.0000000E+000	0.0000000E+000	-86.4685	0.0000000E+000	0.0000000E+000	0.0000000E+000	-3.53149	0.0000000E+000	0.0000000E+000	0.0000000E+000	3.53149	16.2037	86.4685	-0.000293516
211.149	0.155713	0.00609451	0.155832	-2.24138	101481	0.000116677	-0.873783	123678	189.172	1	37	0.00516356	0.0331354	0	-0.00721213	6.2	0.31895	0.117041	6.10455	3.93426e-06	7.34084e-06	7.97874e-06	7.76402e-06	5.74715e-06	2.45439e-06	0.0927417	0.0216735	0.633751	4.38549e-06	2.50566e-05	3.18382e-06	1.44178e-05	6.36446e-06	4.29734e-06	6.41226	0.250972	6.41717	2.24138	189172	4.83329e+06	4.83699e+06	-87.7586	0.0000000E+000	0.0000000E+000	0.0000000E+000	87.7586	0.0000000E+000	0.0000000E+000	0.0000000E+000	-87.7586	0.0000000E+000	0.0000000E+000	0.0000000E+000	-2.24138	0.0000000E+000	0.0000000E+000	0.0000000E+000	2.24138	25.5497	87.7586	-0.000235192
105.438	0.156868	0.00393205	0.156918	-1.43587	101484	0.000114197	-0.865147	383886	241.044	1	37	0.00523438	0.0333575	0	-0.0080515	6.2	0.257809	0.225495	6.00574	5.70115e-06	6.45505e-06	3.80733e-06	5.14169e-06	3.61613e-06	5.06991e-06	0.108909	0.0143432	0.641902	4.83187e-06	2.5239e-05	6.0527e-06	2.39462e-05	4.09547e-06	2.7886e-06	6.37077	0.159689	6.37277	1.43587	241044	9.61641e+06	9.61943e+06	-88.5641	0.0000000E+000	0.0000000E+000	0.0000000E+000	88.5641	0.0000000E+000	0.0000000E+000	0.0000000E+000	-88.5641	0.0000000E+000	0.0000000E+000	0.0000000E+000	-1.43587	0.0000000E+000	0.0000000E+000	0.0000000E+000	1.43587	39.8948	88.5641	-0.00028596
52.6255	0.157861	0.00282064	0.157886	-1.02364	101487	0.000132726	-0.790274	1.0722e+06	342.203	1	37	0.0052538	0.0332759	0	-0.00879476	6.2	0.321744	0.176775	6.05668	4.55199e-06	8.27093e-06	3.45769e-06	7.45996e-06	8.29836e-06	5.22541e-06	0.11589	0.0991131	0.633922	3.57989e-06	2.81259e-05	4.90346e-06	2.41178e-05	6.24331e-06	4.78621e-06	6.33267	0.113151	6.33368	1.02364	342202	1.91518e+07	1.91549e+07	-88.9764	0.0000000E+000	0.0000000E+000	0.0000000E+000	88.9764	0.0000000E+000	0.0000000E+000	0.0000000E+000	-88.9764	0.0000000E+000	0.0000000E+000	0.0000000E+000	-1.02364	0.0000000E+000	0.0000000E+000	0.0000000E+000	1.02364	55.9664	88.9764	-0.000230558
26.2693	0.158603	0.00254556	0.158623	-0.919515	101491	0.000135839	-0.831256	2.38006e+06	612.947	1	37	0.0052562	0.0331364	0	-0.00955134	6.2	0.332423	0.164265	5.98257	4.35065e-06	7.72377e-06	1.09532e-05	5.83396e-06	4.65398e-06	5.36701e-06	0.150823	0.0420085	0.642725	2.97271e-05	2.50479e-05	6.80911e-06	2.67149e-05	1.22024e-05	6.62125e-06	6.30345	0.10117	6.30426	0.919515	612948	3.81899e+07	3.81949e+07	-89.0805	0.0000000E+000	0.0000000E+000	0.0000000E+000	89.0805	0.0000000E+000	0.0000000E+000	0.0000000E+000	-89.0805	0.0000000E+000	0.0000000E+000	0.0000000E+000	-0.919515	0.0000000E+000	0.0000000E+000	0.0000000E+000	0.919515	62.3055	89.0805	-0.000215246
13.1083	0.159337	0.00277784	0.159361	-0.998783	101494	0.000118858	-0.895623	4.37087e+06	1328.07	1	37	0.00525961	0.0330044	0	-0.010427	6.2	0.34671	0.0930819	4.14353	2.43425e-06	4.807e-06	1.48595e-05	5.02773e-06	3.21824e-06	4.24649e-06	0.118376	0.106324	0.470804	1.2086e-05	1.81296e-05	1.56217e-05	2.63699e-05	2.77505e-06	3.94965e-06	6.27412	0.109382	6.27507	0.998783	1.32806e+06	7.61777e+07	7.61893e+07	-89.0012	0.0000000E+000	0.0000000E+000	0.0000000E+000	89.0012	0.0000000E+000	0.0000000E+000	0.0000000E+000	-89.0012	0.0000000E+000	0.0000000E+000	0.0000000E+000	-0.998783	0.0000000E+000	0.0000000E+000	0.0000000E+000	0.998783	57.3598	89.0012	-0.000294666
6.54313	0.160373	0.0033591	0.160408	-1.19992	101498	0.000117236	-0.870293	7.24121e+06	3175.46	1	37	0.00525938	0.0327875	0	-0.0115978	6.2	0.223024	0.157402	4.41355	5.8837e-06	2.23237e-06	4.1288e-06	4.18809e-06	4.17826e-06	5.84116e-06	0.17705	0.0564366	0.497322	2.86452e-05	4.05736e-05	7.32212e-06	2.34363e-05	6.53786e-06	1.05153e-05	6.23274	0.130549	6.23411	1.19992	3.17546e+06	1.51605e+08	1.51638e+08	-88.8001	0.0000000E+000	0.0000000E+000	0.0000000E+000	88.8001	0.0000000E+000	0.0000000E+000	0.0000000E+000	-88.8001	0.0000000E+000	0.0000000E+000	0.0000000E+000	-1.19992	0.0000000E+000	0.0000000E+000	0.0000000E+000	1.19992	47.7427	88.8001	-0.000635248
3.26541	0.16172	0.00480974	0.161791	-1.70354	101503	0.0001191	-0.91326	1.01335e+07	8955.58	1	37	0.0052594	0.0325073	0	-0.012559	6.2	0.179251	0.0959204	2.52193	2.2521e-06	4.39602e-06	4.48691e-06	4.48624e-06	3.426e-06	1.72724e-06	0.126579	0.0845864	0.399598	6.01908e-06	3.01883e-05	1.1974e-05	2.32338e-05	4.53453e-06	4.2765e-06	6.17807	0.183743	6.18081	1.70354	8.95559e+06	3.01117e+08	3.0125e+08	-88.2965	0.0000000E+000	0.0000000E+000	0.0000000E+000	88.2965	0.0000000E+000	0.0000000E+000	0.0000000E+000	-88.2965	0.0000000E+000	0.0000000E+000	0.0000000E+000	-1.70354	0.0000000E+000	0.0000000E+000	0.0000000E+000	1.70354	33.6234	88.2965	0.000136088
1.63084	0.163541	0.00684428	0.163685	-2.39645	101513	0.000124492	-0.86426	1.42588e+07	24930	1	37	0.00525897	0.0321287	0	-0.0165925	6.2	0.159363	0.101887	1.68954	2.99875e-06	4.55793e-06	2.802e-06	3.49438e-06	3.11335e-06	2.19764e-06	0.142407	0.0819128	0.374515	1.11407e-05	3.24555e-05	4.54647e-06	2.67663e-05	8.07666e-06	7.98507e-06	6.10397	0.255454	6.10931	2.39645	2.493e+07	5.95692e+08	5.96214e+08	-87.6035	0.0000000E+000	0.0000000E+000	0.0000000E+000	87.6035	0.0000000E+000	0.0000000E+000	0.0000000E+000	-87.6035	0.0000000E+000	0.0000000E+000	0.0000000E+000	-2.39645	0.0000000E+000	0.0000000E+000	0.0000000E+000	2.39645	23.8946	87.6035	-0.0022184
0.813551	0.165965	0.0101539	0.166275	-3.50104	101533	0.000122522	-0.922723	1.92666e+07	71847.6	1	37	0.00525677	0.0316149	0	-0.0186915	6.2	0.134758	0.0424205	1.1951	1.91166e-06	4.99398e-06	1.80787e-06	3.181e-06	2.10339e-06	1.09591e-06	0.108671	0.0992488	0.345181	6.59797e-06	2.06632e-05	5.29192e-06	2.4918e-05	4.38842e-06	2.84178e-06	6.00291	0.367263	6.01413	3.50104	7.18476e+07	1.17435e+09	1.17654e+09	-86.499	0.0000000E+000	0.0000000E+000	0.0000000E+000	86.499	0.0000000E+000	0.0000000E+000	0.0000000E+000	-86.499	0.0000000E+000	0.0000000E+000	0.0000000E+000	-3.50104	0.0000000E+000	0.0000000E+000	0.0000000E+000	3.50104	16.345	86.499	0.00105592
0.406108	0.170425	0.0167287	0.171244	-5.60612	101570	0.000126611	-0.891997	2.3427e+07	223568	1	37	0.00525593	0.0306927	0	-0.0287932	6.2	0.109133	0.0450059	0.84002	2.02617e-06	3.82348e-06	1.06808e-06	2.87037e-06	9.97612e-07	1.3835e-06	0.129761	0.0920376	0.343541	1.41565e-05	2.35816e-05	9.28024e-06	2.3464e-05	5.30405e-06	3.4856e-06	5.8117	0.570469	5.83963	5.60612	2.23568e+08	2.27762e+09	2.28857e+09	-84.3939	0.0000000E+000	0.0000000E+000	0.0000000E+000	84.3939	0.0000000E+000	0.0000000E+000	0.0000000E+000	-84.3939	0.0000000E+000	0.0000000E+000	0.0000000E+000	-5.60612	0.0000000E+000	0.0000000E+000	0.0000000E+000	5.60612	10.1876	84.3939	-0.000111209
0.202719	0.18319	0.0219086	0.184496	-6.81989	101644	0.000131142	-0.852212	3.58352e+07	505321	1	37	0.00525154	0.0284642	0	-0.0529478	6.2	0.131397	0.0710149	0.599931	1.83544e-06	5.57545e-06	1.09012e-06	2.6767e-06	1.46458e-06	1.30678e-06	0.166463	0.11172	0.373672	1.00106e-05	3.00695e-05	6.83383e-06	2.96363e-05	8.29547e-06	1.04541e-05	5.38182	0.643639	5.42018	6.81989	5.05321e+08	4.22527e+09	4.25538e+09	-83.1801	0.0000000E+000	0.0000000E+000	0.0000000E+000	83.1801	0.0000000E+000	0.0000000E+000	0.0000000E+000	-83.1801	0.0000000E+000	0.0000000E+000	0.0000000E+000	-6.81989	0.0000000E+000	0.0000000E+000	0.0000000E+000	6.81989	8.36156	83.1801	-0.0131782
0.101164	0.196221	0.0187751	0.197117	-5.46562	101791	0.0001215	-0.885226	8.37937e+07	760199	1	37	0.00524804	0.0266239	0	-0.0764096	6.2	0.116539	0.123046	0.438261	2.20413e-06	4.3558e-06	1.42545e-06	3.00152e-06	6.81166e-07	8.46045e-07	0.145432	0.0812234	0.354317	1.42235e-05	1.9544e-05	6.77742e-06	2.65261e-05	5.942e-06	7.74926e-06	5.05006	0.483207	5.07312	5.46562	7.60199e+08	7.94494e+09	7.98122e+09	-84.5344	0.0000000E+000	0.0000000E+000	0.0000000E+000	84.5344	0.0000000E+000	0.0000000E+000	0.0000000E+000	-84.5344	0.0000000E+000	0.0000000E+000	0.0000000E+000	-5.46562	0.0000000E+000	0.0000000E+000	0.0000000E+000	5.46562	10.4511	84.5344	-0.00542238
0.0505041	0.203825	0.0129342	0.204235	-3.63097	102085	0.000116086	-0.935563	2.43644e+08	977178	1	37	0.00524785	0.0256952	0	-0.157112	6.2	0.10259	0.102005	0.324628	1.94039e-06	4.14071e-06	5.2183e-07	2.44309e-06	8.75057e-07	6.75781e-07	0.150165	0.112267	0.346577	8.32088e-06	2.65305e-05	7.12673e-06	2.18577e-05	1.11594e-05	5.66877e-06	4.8865	0.310084	4.89633	3.63097	9.77179e+08	1.5399e+10	1.54299e+10	-86.369	0.0000000E+000	0.0000000E+000	0.0000000E+000	86.369	0.0000000E+000	0.0000000E+000	0.0000000E+000	-86.369	0.0000000E+000	0.0000000E+000	0.0000000E+000	-3.63097	0.0000000E+000	0.0000000E+000	0.0000000E+000	3.63097	15.7586	86.369	-0.0440264
0.0252177	0.207656	0.00814354	0.207815	-2.24579	102672	0.000135086	-0.819718	7.75e+08	1.19007e+06	1	37	0.00524687	0.0252478	0	-0.329085	6.2	0.110863	0.136849	0.248668	1.80412e-06	4.57943e-06	1.13948e-06	2.21492e-06	9.92407e-07	8.12666e-07	0.130015	0.197286	0.302412	1.04067e-05	2.40984e-05	5.48764e-06	1.63413e-05	5.03059e-06	5.99326e-06	4.80826	0.188563	4.81196	2.24579	1.19007e+09	3.03461e+10	3.03695e+10	-87.7542	0.0000000E+000	0.0000000E+000	0.0000000E+000	87.7542	0.0000000E+000	0.0000000E+000	0.0000000E+000	-87.7542	0.0000000E+000	0.0000000E+000	0.0000000E+000	-2.24579	0.0000000E+000	0.0000000E+000	0.0000000E+000	2.24579	25.4995	87.7542	-0.0516263
174510	0.0832307	-0.0158771	0.0847315	10.8	102981	0.000223227	-0.701963	-57.442	-2.01688	2	37	0.0042659	0.0503461	0	-0.370846	6.2	-1	-1	-1	0	0	0	0	0	0	-1	-1	-1	0	0	0	0	0	0	11.5929	-2.21147	11.802	-10.8	-2016.88	10572.9	10763.5	-100.8	0.0000000E+000	0.0000000E+000	0.0000000E+000	100.8	0.0000000E+000	0.0000000E+000	0.0000000E+000	-100.8	0.0000000E+000	0.0000000E+000	0.0000000E+000	10.8	0.0000000E+000	0.0000000E+000	0.0000000E+000	-10.8	5.2422	79.2	-0.000204645
87106.6	0.0881342	-0.00233277	0.0881651	1.51617	102984	0.000225333	-0.399418	-783.243	-0.548338	2	37	0.00523793	0.0594104	0	-0.371273	6.2	0.316096	0.216013	6.05885	7.16724e-06	5.05353e-06	5.26721e-06	4.42272e-06	9.74924e-06	4.35757e-06	0.0963367	0.0292032	0.358498	1.3808e-05	5.46407e-05	3.61047e-06	4.59221e-06	3.48772e-06	4.14096e-06	11.3384	-0.300109	11.3424	-1.51617	-548.338	20716.7	20723.9	-91.5162	0.0000000E+000	0.0000000E+000	0.0000000E+000	91.5162	0.0000000E+000	0.0000000E+000	0.0000000E+000	-91.5162	0.0000000E+000	0.0000000E+000	0.0000000E+000	1.51617	0.0000000E+000	0.0000000E+000	0.0000000E+000	-1.51617	37.7809	88.4838	-0.000113152
43479.1	0.0924847	0.00704862	0.0927529	-4.35831	102987	0.000214876	-0.400535	519.321	2.99908	2	37	0.00520453	0.0561118	0	-0.371594	6.2	0.277968	0.237239	6.07267	5.00073e-06	9.60276e-06	3.52677e-06	3.75374e-06	4.1665e-06	5.2401e-06	0.11896	0.0376815	0.381993	7.94108e-06	6.48533e-05	5.04265e-06	6.8555e-06	7.2622e-06	6.7041e-06	10.7502	0.819311	10.7813	4.35831	2999.08	39350.9	39465	-85.6417	0.0000000E+000	0.0000000E+000	0.0000000E+000	85.6417	0.0000000E+000	0.0000000E+000	0.0000000E+000	-85.6417	0.0000000E+000	0.0000000E+000	0.0000000E+000	-4.35831	0.0000000E+000	0.0000000E+000	0.0000000E+000	4.35831	13.121	85.6417	-0.000140426
21702.4	0.0991282	0.0142495	0.100147	-8.18015	102991	0.000222407	-0.374907	514.649	10.4192	2	37	0.00519042	0.051828	0	-0.372045	6.2	0.2476	0.111132	6.40916	4.65075e-06	4.38408e-06	4.22663e-06	5.12778e-06	6.46657e-06	5.53621e-06	0.103319	0.053301	0.412452	3.13626e-06	5.18927e-05	4.82772e-06	7.13601e-06	7.17298e-06	5.35724e-06	9.88371	1.42077	9.98531	8.18015	10419.2	72482.3	73227.4	-81.8198	0.0000000E+000	0.0000000E+000	0.0000000E+000	81.8198	0.0000000E+000	0.0000000E+000	0.0000000E+000	-81.8198	0.0000000E+000	0.0000000E+000	0.0000000E+000	-8.18015	0.0000000E+000	0.0000000E+000	0.0000000E+000	8.18015	6.95659	81.8198	-9.49196e-05
10837.3	0.108404	0.0198178	0.1102	-10.3601	102994	0.000207774	-0.440717	741.045	23.9656	2	37	0.00517221	0.0469346	0	-0.372327	6.2	0.36919	0.157454	6.12212	6.89763e-06	9.19244e-06	5.58751e-06	6.68245e-06	7.71181e-06	4.63934e-06	0.119478	0.0366098	0.440655	5.29766e-06	3.26739e-05	6.062e-06	6.61324e-06	5.8063e-06	4.3694e-05	8.92645	1.63188	9.07439	10.3601	23965.6	131093	133265	-79.6399	0.0000000E+000	0.0000000E+000	0.0000000E+000	79.6399	0.0000000E+000	0.0000000E+000	0.0000000E+000	-79.6399	0.0000000E+000	0.0000000E+000	0.0000000E+000	-10.3601	0.0000000E+000	0.0000000E+000	0.0000000E+000	10.3601	5.47002	79.6399	-0.000140858
5406.63	0.120266	0.0228484	0.122417	-10.757	102998	7.71956e-05	-1.01629	1288.36	44.8815	2	37	0.00517548	0.0422775	0	-0.373463	6.2	0.286253	0.213749	6.1541	4.82335e-06	2.65679e-06	7.29961e-06	3.98312e-06	7.09437e-06	6.83637e-06	0.080269	0.103373	0.507142	5.4305e-06	3.11402e-05	6.46438e-06	5.13491e-06	7.06386e-06	2.52547e-06	8.02526	1.52466	8.16881	10.757	44881.5	236240	240465	-79.243	0.0000000E+000	0.0000000E+000	0.0000000E+000	79.243	0.0000000E+000	0.0000000E+000	0.0000000E+000	-79.243	0.0000000E+000	0.0000000E+000	0.0000000E+000	-10.757	0.0000000E+000	0.0000000E+000	0.0000000E+000	10.757	5.26364	79.243	-0.000410349
2699.14	0.133078	0.0221593	0.13491	-9.4538	103002	9.6004e-05	-0.943091	2660.96	71.7896	2	37	0.00518755	0.0384518	0	-0.374473	6.2	0.28723	0.15178	6.09044	2.51647e-06	5.95534e-06	6.20381e-06	6.57802e-06	6.15392e-06	5.13209e-06	0.0511933	0.0153567	0.551139	2.48372e-06	1.46262e-05	1.05135e-05	2.98267e-06	3.95205e-06	4.30007e-06	7.31166	1.21749	7.41233	9.4538	71789.5	431133	437069	-80.5462	0.0000000E+000	0.0000000E+000	0.0000000E+000	80.5462	0.0000000E+000	0.0000000E+000	0.0000000E+000	-80.5462	0.0000000E+000	0.0000000E+000	0.0000000E+000	-9.4538	0.0000000E+000	0.0000000E+000	0.0000000E+000	9.4538	6.00551	80.5462	-0.000366748
1347.15	0.143797	0.0180094	0.14492	-7.13869	103006	9.55567e-05	-0.927644	6559.98	101.309	2	37	0.00512392	0.0353569	0	-0.37561	6.2	0.332878	0.149437	6.13435	5.88288e-06	3.82158e-06	7.57196e-06	1.04816e-05	4.88441e-06	5.77377e-06	0.0356282	0.0296127	0.602597	4.10141e-06	3.78453e-06	4.61762e-06	6.26925e-06	6.24715e-06	2.93671e-06	6.84687	0.857519	6.90036	7.13869	101309	808900	815220	-82.8613	0.0000000E+000	0.0000000E+000	0.0000000E+000	82.8613	0.0000000E+000	0.0000000E+000	0.0000000E+000	-82.8613	0.0000000E+000	0.0000000E+000	0.0000000E+000	-7.13869	0.0000000E+000	0.0000000E+000	0.0000000E+000	7.13869	7.98451	82.8613	-0.000418447
672.366	0.150651	0.0126808	0.151184	-4.81142	103010	0.000132764	-0.884261	18666.7	131.325	2	37	0.00498626	0.0329814	0	-0.376599	6.2	0.398214	0.100747	6.24396	9.39503e-06	7.22271e-06	7.97439e-06	5.47213e-06	8.12861e-06	8.91617e-06	0.0553924	0.0257808	0.634383	2.22325e-06	1.44357e-05	5.18527e-06	7.47221e-06	3.41473e-06	3.01285e-06	6.59115	0.554797	6.61445	4.81142	131325	1.56018e+06	1.5657e+06	-85.1886	0.0000000E+000	0.0000000E+000	0.0000000E+000	85.1886	0.0000000E+000	0.0000000E+000	0.0000000E+000	-85.1886	0.0000000E+000	0.0000000E+000	0.0000000E+000	-4.81142	0.0000000E+000	0.0000000E+000	0.0000000E+000	4.81142	11.8803	85.1886	-0.000291158
335.537	0.154147	0.00815524	0.154363	-3.02844	103014	0.000102528	-0.908921	58162.5	162.342	2	37	0.00529969	0.0343327	0	-0.377503	6.2	0.259365	0.197769	5.93803	5.22158e-06	4.86653e-06	4.11485e-06	6.56824e-06	6.02026e-06	4.84145e-06	0.0806197	0.0224903	0.618069	5.98051e-06	1.99593e-05	6.76856e-06	1.40722e-05	4.71439e-06	4.63596e-06	6.4692	0.342257	6.47825	3.02844	162342	3.06853e+06	3.07282e+06	-86.9716	0.0000000E+000	0.0000000E+000	0.0000000E+000	86.9716	0.0000000E+000	0.0000000E+000	0.0000000E+000	-86.9716	0.0000000E+000	0.0000000E+000	0.0000000E+000	-3.02844	0.0000000E+000	0.0000000E+000	0.0000000E+000	3.02844	18.9016	86.9716	-0.000256102
167.481	0.155989	0.0051926	0.156075	-1.90658	103017	0.000115856	-0.905515	183008	202.569	2	37	0.00504279	0.03231	0	-0.378309	6.2	0.294163	0.160882	6.16585	4.60856e-06	7.85712e-06	7.21766e-06	4.34851e-06	2.85901e-06	4.95063e-06	0.114812	0.0279223	0.654175	3.31762e-06	2.69605e-05	7.88548e-06	2.20845e-05	6.82867e-06	3.95385e-06	6.40362	0.213166	6.40717	1.90658	202569	6.08528e+06	6.08865e+06	-88.0934	0.0000000E+000	0.0000000E+000	0.0000000E+000	88.0934	0.0000000E+000	0.0000000E+000	0.0000000E+000	-88.0934	0.0000000E+000	0.0000000E+000	0.0000000E+000	-1.90658	0.0000000E+000	0.0000000E+000	0.0000000E+000	1.90658	30.0406	88.0934	-0.000257943
83.635	0.157141	0.00350851	0.15718	-1.27904	103020	0.000126109	-0.927253	542386	270.246	2	37	0.00509001	0.0323833	0	-0.379158	6.2	0.335941	0.141862	6.15293	3.22629e-06	1.07071e-05	6.00896e-06	7.87894e-06	3.06986e-06	5.39102e-06	0.124562	0.02267	0.647131	6.53784e-06	3.15314e-05	7.58997e-06	2.10024e-05	5e-06	4.68677e-06	6.36054	0.142013	6.36212	1.27904	270246	1.21039e+07	1.21069e+07	-88.721	0.0000000E+000	0.0000000E+000	0.0000000E+000	88.721	0.0000000E+000	0.0000000E+000	0.0000000E+000	-88.721	0.0000000E+000	0.0000000E+000	0.0000000E+000	-1.27904	0.0000000E+000	0.0000000E+000	0.0000000E+000	1.27904	44.7885	88.721	-0.000265633
41.7501	0.157948	0.00290035	0.157975	-1.05198	103024	0.000123667	-0.955728	1.31435e+06	443.033	2	37	0.00509914	0.0322781	0	-0.380086	6.2	0.400182	0.183709	6.08835	7.80635e-06	7.82006e-06	8.66189e-06	8.10926e-06	7.22685e-06	4.00123e-06	0.136378	0.0774758	0.657405	4.60538e-06	2.79696e-05	8.75782e-06	2.72297e-05	1.55757e-05	2.98393e-06	6.32905	0.116218	6.33012	1.05198	443034	2.41269e+07	2.41309e+07	-88.948	0.0000000E+000	0.0000000E+000	0.0000000E+000	88.948	0.0000000E+000	0.0000000E+000	0.0000000E+000	-88.948	0.0000000E+000	0.0000000E+000	0.0000000E+000	-1.05198	0.0000000E+000	0.0000000E+000	0.0000000E+000	1.05198	54.4584	88.948	-0.000328137
20.8333	0.159051	0.0025817	0.159072	-0.929934	103027	0.000129017	-0.938811	2.95908e+06	779.431	2	37	0.00511141	0.0321326	0	-0.381027	6.2	0.26891	0.184393	6.01506	5.77898e-06	6.81591e-06	3.823e-06	3.33845e-06	6.05066e-06	4.74594e-06	0.138099	0.207463	0.627112	1.28844e-05	2.866e-05	9.5121e-06	2.57034e-05	6.01806e-06	1.17116e-05	6.28562	0.102027	6.28645	0.929934	779429	4.80186e+07	4.8025e+07	-89.0701	0.0000000E+000	0.0000000E+000	0.0000000E+000	89.0701	0.0000000E+000	0.0000000E+000	0.0000000E+000	-89.0701	0.0000000E+000	0.0000000E+000	0.0000000E+000	-0.929934	0.0000000E+000	0.0000000E+000	0.0000000E+000	0.929934	61.6073	89.0701	-0.000406398
10.3959	0.15951	0.00289399	0.159536	-1.0394	103030	0.00012801	-0.921205	5.29008e+06	1740.76	2	37	0.00510249	0.0319833	0	-0.381767	6.2	0.34222	0.134212	6.1825	6.72391e-06	6.51109e-06	5.0138e-06	5.30755e-06	6.75038e-06	8.98502e-06	0.15673	0.208551	0.614955	7.78667e-06	2.42154e-05	8.60176e-06	3.88162e-05	7.34327e-06	6.15885e-06	6.26714	0.113705	6.26817	1.0394	1.74076e+06	9.59465e+07	9.59622e+07	-88.9606	0.0000000E+000	0.0000000E+000	0.0000000E+000	88.9606	0.0000000E+000	0.0000000E+000	0.0000000E+000	-88.9606	0.0000000E+000	0.0000000E+000	0.0000000E+000	-1.0394	0.0000000E+000	0.0000000E+000	0.0000000E+000	1.0394	55.1176	88.9606	-0.000212037
5.19276	0.160625	0.00387729	0.160672	-1.38278	103034	0.00011682	-1.00706	7.90486e+06	4603.3	2	37	0.00510398	0.0317664	0	-0.382942	6.2	0.168783	0.152247	3.56501	1.62411e-06	3.90698e-06	3.17301e-06	3.85875e-06	3.93637e-06	2.12161e-06	0.232165	0.0551868	0.421283	8.72766e-06	6.4624e-05	1.21364e-05	2.74107e-05	2.8108e-06	2.79611e-06	6.22204	0.150192	6.22385	1.38278	4.60329e+06	1.90702e+08	1.90757e+08	-88.6172	0.0000000E+000	0.0000000E+000	0.0000000E+000	88.6172	0.0000000E+000	0.0000000E+000	0.0000000E+000	-88.6172	0.0000000E+000	0.0000000E+000	0.0000000E+000	-1.38278	0.0000000E+000	0.0000000E+000	0.0000000E+000	1.38278	41.4273	88.6172	-0.00018569
2.58949	0.162148	0.00536015	0.162237	-1.89334	103041	0.000112576	-0.989738	1.14664e+07	12516.5	2	37	0.00510456	0.0314637	0	-0.384564	6.2	0.172638	0.099059	2.18373	3.96692e-06	4.10518e-06	3.6528e-06	3.87231e-06	2.57663e-06	1.8969e-06	0.218276	0.0858729	0.356141	8.8013e-06	2.82049e-05	1.00089e-05	2.90837e-05	5.0981e-05	1.1194e-05	6.16047	0.203647	6.16383	1.89334	1.25165e+07	3.78633e+08	3.7884e+08	-88.1067	0.0000000E+000	0.0000000E+000	0.0000000E+000	88.1067	0.0000000E+000	0.0000000E+000	0.0000000E+000	-88.1067	0.0000000E+000	0.0000000E+000	0.0000000E+000	-1.89334	0.0000000E+000	0.0000000E+000	0.0000000E+000	1.89334	30.2507	88.1067	-0.000662454
1.29325	0.164115	0.00785096	0.164303	-2.73883	103054	0.000121361	-0.94387	1.56753e+07	35790.6	2	37	0.0051028	0.0310572	0	-0.387789	6.2	0.109404	0.07369	1.54355	2.31684e-06	3.91249e-06	9.44437e-07	1.97912e-06	1.48041e-06	1.41033e-06	0.127313	0.0739335	0.362494	1.40596e-05	1.97356e-05	1.12547e-05	2.3578e-05	5.30765e-06	8.39994e-06	6.07936	0.290824	6.08631	2.73883	3.57906e+07	7.48162e+08	7.49017e+08	-87.2612	0.0000000E+000	0.0000000E+000	0.0000000E+000	87.2612	0.0000000E+000	0.0000000E+000	0.0000000E+000	-87.2612	0.0000000E+000	0.0000000E+000	0.0000000E+000	-2.73883	0.0000000E+000	0.0000000E+000	0.0000000E+000	2.73883	20.9039	87.2612	0.000332974
0.645874	0.166925	0.0117916	0.167341	-4.04066	103078	0.000122597	-0.915741	2.08977e+07	103762	2	37	0.00510208	0.030489	0	-0.395552	6.2	0.12983	0.0633336	1.07976	2.87638e-06	4.82728e-06	8.84091e-07	2.19802e-06	1.50331e-06	1.05303e-06	0.161084	0.169984	0.367283	1.65532e-05	3.47413e-05	1.51328e-05	2.21394e-05	7.39152e-06	8.71728e-06	5.96096	0.421081	5.97581	4.04066	1.03762e+08	1.46889e+09	1.47255e+09	-85.9593	0.0000000E+000	0.0000000E+000	0.0000000E+000	85.9593	0.0000000E+000	0.0000000E+000	0.0000000E+000	-85.9593	0.0000000E+000	0.0000000E+000	0.0000000E+000	-4.04066	0.0000000E+000	0.0000000E+000	0.0000000E+000	4.04066	14.1563	85.9593	-0.00495171
0.322118	0.173879	0.0192622	0.174943	-6.3214	103125	0.000127752	-0.930671	2.56507e+07	310969	2	37	0.00509731	0.0291369	0	-0.402874	6.2	0.105161	0.0554469	0.784906	9.9939e-07	3.80981e-06	1.76898e-06	1.9748e-06	1.12671e-06	1.79737e-06	0.14928	0.141548	0.378755	1.63754e-05	2.67021e-05	1.25437e-05	1.99752e-05	9.99518e-06	8.57689e-06	5.68139	0.629379	5.71614	6.3214	3.10969e+08	2.80711e+09	2.82428e+09	-83.6786	0.0000000E+000	0.0000000E+000	0.0000000E+000	83.6786	0.0000000E+000	0.0000000E+000	0.0000000E+000	-83.6786	0.0000000E+000	0.0000000E+000	0.0000000E+000	-6.3214	0.0000000E+000	0.0000000E+000	0.0000000E+000	6.3214	9.02698	83.6786	-0.00296667
0.160792	0.188106	0.0217588	0.18936	-6.59828	103218	0.000137045	-0.883381	4.54903e+07	600640	2	37	0.0050973	0.0269186	0	-0.436144	6.2	0.113781	0.0687206	0.547309	1.58672e-06	4.62653e-06	1.07004e-06	2.32971e-06	8.40752e-07	1.02924e-06	0.13364	0.0622852	0.35737	7.81899e-06	2.48587e-05	3.52392e-06	2.23274e-05	4.73386e-06	6.62563e-06	5.24597	0.60682	5.28095	6.59828	6.0064e+08	5.19255e+09	5.22717e+09	-83.4017	0.0000000E+000	0.0000000E+000	0.0000000E+000	83.4017	0.0000000E+000	0.0000000E+000	0.0000000E+000	-83.4017	0.0000000E+000	0.0000000E+000	0.0000000E+000	-6.59828	0.0000000E+000	0.0000000E+000	0.0000000E+000	6.59828	8.64502	83.4017	-0.0101732
0.0802383	0.199364	0.0169046	0.20008	-4.84665	103403	0.000139186	-0.825888	1.17337e+08	837599	2	37	0.00509181	0.0254489	0	-0.45863	6.2	0.128	0.0668393	0.397729	3.39995e-06	4.7165e-06	1.42357e-06	1.63679e-06	1.46188e-06	8.26824e-07	0.151442	0.076274	0.343756	1.39385e-05	2.34826e-05	9.15942e-06	2.26916e-05	7.0544e-06	5.38192e-06	4.98013	0.422277	4.998	4.84665	8.37599e+08	9.87824e+09	9.91368e+09	-85.1534	0.0000000E+000	0.0000000E+000	0.0000000E+000	85.1534	0.0000000E+000	0.0000000E+000	0.0000000E+000	-85.1534	0.0000000E+000	0.0000000E+000	0.0000000E+000	-4.84665	0.0000000E+000	0.0000000E+000	0.0000000E+000	4.84665	11.7935	85.1534	-0.0125411
0.04008	0.205576	0.0112536	0.205884	-3.13333	103773	0.000121871	-0.879565	3.5286e+08	1.05424e+06	2	37	0.00509081	0.0247266	0	-0.584546	6.2	0.126529	0.103936	0.315649	1.49395e-06	5.47412e-06	7.96187e-07	2.19864e-06	1.16959e-06	5.86232e-07	0.15345	0.143214	0.338919	1.19866e-05	2.80422e-05	6.56344e-06	1.77523e-05	6.02526e-06	6.06839e-06	4.84984	0.265488	4.8571	3.13333	1.05423e+09	1.92584e+10	1.92872e+10	-86.8667	0.0000000E+000	0.0000000E+000	0.0000000E+000	86.8667	0.0000000E+000	0.0000000E+000	0.0000000E+000	-86.8667	0.0000000E+000	0.0000000E+000	0.0000000E+000	-3.13333	0.0000000E+000	0.0000000E+000	0.0000000E+000	3.13333	18.2677	86.8667	-0.0558209
0.0199946	0.208964	0.00703979	0.209082	-1.92951	104513	0.000122436	-0.87042	1.1307e+09	1.28184e+06	2	37	0.0050932	0.0243598	0	-0.739257	6.2	0.105079	0.0890037	0.248143	2.48873e-06	3.38847e-06	9.76257e-07	2.57523e-06	6.17661e-07	1.04916e-06	0.142483	0.125251	0.299458	1.36151e-05	2.1593e-05	8.76724e-06	1.93233e-05	3.12745e-06	5.29041e-06	4.78009	0.161037	4.78281	1.92951	1.28184e+09	3.8049e+10	3.80706e+10	-88.0705	0.0000000E+000	0.0000000E+000	0.0000000E+000	88.0705	0.0000000E+000	0.0000000E+000	0.0000000E+000	-88.0705	0.0000000E+000	0.0000000E+000	0.0000000E+000	-1.92951	0.0000000E+000	0.0000000E+000	0.0000000E+000	1.92951	29.6832	88.0705	-0.0429264
138435	0.0852725	-0.0104912	0.0859154	7.01394	104517	0.000214522	-0.524002	-109.584	-1.63402	3	37	0.00510931	0.0594691	0	-0.741004	6.2	-1	-1	-1	0	0	0	0	0	0	-1	-1	-1	0	0	0	0	0	0	11.5522	-1.42129	11.6394	-7.01394	-1634.02	13281.3	13381.4	-97.0139	0.0000000E+000	0.0000000E+000	0.0000000E+000	97.0139	0.0000000E+000	0.0000000E+000	0.0000000E+000	-97.0139	0.0000000E+000	0.0000000E+000	0.0000000E+000	7.01394	0.0000000E+000	0.0000000E+000	0.0000000E+000	-7.01394	8.128	82.9861	-0.000235262
69097	0.089563	0.00109346	0.0895696	-0.69948	104520	0.000207103	-0.408463	2106.48	0.313937	3	37	0.00522821	0.0583703	0	-0.741298	6.2	0.351409	0.14206	5.90717	6.17426e-06	7.72966e-06	8.37136e-06	5.42558e-06	4.96897e-06	7.9055e-06	0.107686	0.0620575	0.359127	1.44937e-05	6.01837e-05	4.28278e-06	7.1505e-06	4.05098e-06	3.34808e-06	11.1637	0.136295	11.1645	0.69948	313.936	25713.9	25715.8	-89.3005	0.0000000E+000	0.0000000E+000	0.0000000E+000	89.3005	0.0000000E+000	0.0000000E+000	0.0000000E+000	-89.3005	0.0000000E+000	0.0000000E+000	0.0000000E+000	-0.69948	0.0000000E+000	0.0000000E+000	0.0000000E+000	0.69948	81.9079	89.3005	-0.000222911
34488.2	0.0944648	0.00969682	0.0949612	-5.86089	104524	0.000208091	-0.412018	475.905	4.96234	3	37	0.0052013	0.054773	0	-0.741799	6.2	0.35128	0.2021	6.04811	4.93983e-06	1.10727e-05	6.32182e-06	5.46288e-06	6.37435e-06	7.38489e-06	0.125089	0.0543218	0.390483	9.69069e-06	6.63184e-05	4.45342e-06	8.74441e-06	5.96017e-06	4.57513e-06	10.4756	1.07532	10.5306	5.86089	4962.34	48342.3	48596.3	-84.1391	0.0000000E+000	0.0000000E+000	0.0000000E+000	84.1391	0.0000000E+000	0.0000000E+000	0.0000000E+000	-84.1391	0.0000000E+000	0.0000000E+000	0.0000000E+000	-5.86089	0.0000000E+000	0.0000000E+000	0.0000000E+000	5.86089	9.74184	84.1391	-0.000219903
17211.6	0.102043	0.0164181	0.103355	-9.1402	104527	0.000214447	-0.403904	563.217	14.212	3	37	0.00518642	0.0501805	0	-0.742272	6.2	0.329743	0.152698	6.12773	3.72405e-06	2.97286e-06	9.49947e-06	6.44709e-06	8.51157e-06	7.05958e-06	0.106891	0.0138471	0.421591	4.38978e-06	5.173e-05	3.51121e-06	9.24624e-06	6.08809e-06	5.25147e-06	9.55251	1.53694	9.67536	9.1402	14212	88331.5	89467.6	-80.8598	0.0000000E+000	0.0000000E+000	0.0000000E+000	80.8598	0.0000000E+000	0.0000000E+000	0.0000000E+000	-80.8598	0.0000000E+000	0.0000000E+000	0.0000000E+000	-9.1402	0.0000000E+000	0.0000000E+000	0.0000000E+000	9.1402	6.21528	80.8598	-0.000215917
8590.41	0.112358	0.0212722	0.114354	-10.7206	104531	9.5594e-05	-0.996505	870.952	30.138	3	37	0.00527487	0.0461274	0	-0.742921	6.2	0.316595	0.145855	6.03266	7.19493e-06	4.55788e-06	2.10941e-06	9.21883e-06	6.78792e-06	6.88579e-06	0.100231	0.0621548	0.463258	4.91213e-06	4.38546e-05	5.47776e-06	9.94333e-06	3.94278e-06	4.85551e-06	8.59212	1.6267	8.74476	10.7206	30138	159187	162015	-79.2794	0.0000000E+000	0.0000000E+000	0.0000000E+000	79.2794	0.0000000E+000	0.0000000E+000	0.0000000E+000	-79.2794	0.0000000E+000	0.0000000E+000	0.0000000E+000	-10.7206	0.0000000E+000	0.0000000E+000	0.0000000E+000	10.7206	5.28193	79.2794	-0.00043153
4288.63	0.124818	0.0232596	0.126967	-10.5558	104535	8.3086e-05	-0.997399	1595.51	53.5453	3	37	0.00517645	0.0407701	0	-0.743908	6.2	0.374934	0.199739	6.09509	8.4242e-06	4.07546e-06	6.87718e-06	1.0012e-05	4.53906e-06	8.60805e-06	0.067981	0.0316219	0.532017	5.79748e-06	2.40121e-05	6.84159e-06	3.52122e-06	8.47417e-06	3.76689e-06	7.74277	1.44284	7.87606	10.5558	53545.3	287341	292288	-79.4442	0.0000000E+000	0.0000000E+000	0.0000000E+000	79.4442	0.0000000E+000	0.0000000E+000	0.0000000E+000	-79.4442	0.0000000E+000	0.0000000E+000	0.0000000E+000	-10.5558	0.0000000E+000	0.0000000E+000	0.0000000E+000	10.5558	5.36632	79.4442	-0.00029736
2140.69	0.137008	0.0213066	0.138655	-8.83945	104539	8.29556e-05	-1.00099	3489.42	82.3968	3	37	0.00516613	0.0372589	0	-0.745003	6.2	0.292614	0.1626	6.05847	1.97812e-06	6.81929e-06	2.67442e-06	7.24785e-06	7.5241e-06	7.13777e-06	0.0443972	0.0329199	0.569388	4.30406e-06	9.61332e-06	8.12174e-06	6.67958e-06	4.59113e-06	3.54432e-06	7.12649	1.10826	7.21215	8.83945	82396.8	529838	536206	-81.1605	0.0000000E+000	0.0000000E+000	0.0000000E+000	81.1605	0.0000000E+000	0.0000000E+000	0.0000000E+000	-81.1605	0.0000000E+000	0.0000000E+000	0.0000000E+000	-8.83945	0.0000000E+000	0.0000000E+000	0.0000000E+000	8.83945	6.43032	81.1605	-0.000415066
1068.29	0.146768	0.0162488	0.147665	-6.31756	104543	8.07e-05	-1.03161	9168.68	111.02	3	37	0.00511875	0.0346647	0	-0.746089	6.2	0.313333	0.231911	6.15949	6.04816e-06	6.25907e-06	5.63161e-06	4.36138e-06	6.59279e-06	8.52461e-06	0.0348664	0.101117	0.617015	4.12036e-06	6.53571e-06	5.26162e-06	5.59632e-06	2.66718e-06	2.81086e-06	6.73098	0.745195	6.77211	6.31756	111020	1.00278e+06	1.00891e+06	-83.6824	0.0000000E+000	0.0000000E+000	0.0000000E+000	83.6824	0.0000000E+000	0.0000000E+000	0.0000000E+000	-83.6824	0.0000000E+000	0.0000000E+000	0.0000000E+000	-6.31756	0.0000000E+000	0.0000000E+000	0.0000000E+000	6.31756	9.03251	83.6824	-0.000379135
533.464	0.152491	0.0110336	0.15289	-4.13847	104546	0.000109574	-0.944171	27039.4	140.824	3	37	0.00506349	0.0331186	0	-0.747047	6.2	0.248815	0.165815	6.27696	5.00643e-06	6.55124e-06	4.41713e-06	4.45006e-06	3.29791e-06	4.66246e-06	0.0629184	0.0208069	0.643334	4.61569e-06	1.74095e-05	6.57143e-06	4.60834e-06	2.54924e-06	5.4628e-06	6.52361	0.472022	6.54067	4.13847	140824	1.94627e+06	1.95136e+06	-85.8615	0.0000000E+000	0.0000000E+000	0.0000000E+000	85.8615	0.0000000E+000	0.0000000E+000	0.0000000E+000	-85.8615	0.0000000E+000	0.0000000E+000	0.0000000E+000	-4.13847	0.0000000E+000	0.0000000E+000	0.0000000E+000	4.13847	13.8206	85.8615	-0.000299435
266.278	0.155524	0.00708809	0.155686	-2.60948	104550	0.000111178	-0.892469	84324.9	174.79	3	37	0.0051078	0.0328084	0	-0.747925	6.2	0.305194	0.181908	6.18708	5.90605e-06	3.99817e-06	7.36129e-06	6.48714e-06	6.00102e-06	6.55526e-06	0.0863279	0.023036	0.639216	4.85498e-06	2.21504e-05	5.74733e-06	1.28681e-05	7.17348e-06	3.10254e-06	6.41654	0.292437	6.4232	2.60948	174790	3.83518e+06	3.83916e+06	-87.3905	0.0000000E+000	0.0000000E+000	0.0000000E+000	87.3905	0.0000000E+000	0.0000000E+000	0.0000000E+000	-87.3905	0.0000000E+000	0.0000000E+000	0.0000000E+000	-2.60948	0.0000000E+000	0.0000000E+000	0.0000000E+000	2.60948	21.9416	87.3905	-0.000340146
132.916	0.157072	0.00446351	0.157135	-1.62774	104553	0.000107095	-0.915323	268266	216.458	3	37	0.00522729	0.0332662	0	-0.748708	6.2	0.3324	0.139048	6.12802	8.13449e-06	5.46826e-06	7.14287e-06	4.66359e-06	4.93972e-06	7.73319e-06	0.123748	0.0244922	0.642477	4.60247e-06	2.90619e-05	9.93264e-06	2.42918e-05	8.79425e-06	6.16124e-06	6.36139	0.180772	6.36395	1.62774	216458	7.61718e+06	7.62025e+06	-88.3723	0.0000000E+000	0.0000000E+000	0.0000000E+000	88.3723	0.0000000E+000	0.0000000E+000	0.0000000E+000	-88.3723	0.0000000E+000	0.0000000E+000	0.0000000E+000	-1.62774	0.0000000E+000	0.0000000E+000	0.0000000E+000	1.62774	35.1901	88.3723	-0.000246074
66.3374	0.157776	0.00322054	0.157809	-1.16937	104557	0.00012294	-0.941305	744960	310.263	3	37	0.00524828	0.0332573	0	-0.749556	6.2	0.306352	0.141061	6.05785	3.53713e-06	5.4502e-06	4.89247e-06	5.89095e-06	9.54536e-06	6.32844e-06	0.112584	0.0223152	0.646369	5.1056e-06	2.67971e-05	4.29963e-06	2.37589e-05	5.07216e-06	4.07719e-06	6.33547	0.129321	6.33679	1.16937	310262	1.51999e+07	1.52031e+07	-88.8306	0.0000000E+000	0.0000000E+000	0.0000000E+000	88.8306	0.0000000E+000	0.0000000E+000	0.0000000E+000	-88.8306	0.0000000E+000	0.0000000E+000	0.0000000E+000	-1.16937	0.0000000E+000	0.0000000E+000	0.0000000E+000	1.16937	48.9904	88.8306	-0.000286573
33.1038	0.158718	0.00262235	0.158739	-0.94656	104560	0.000125233	-0.872964	1.83337e+06	500.338	3	37	0.00525777	0.033122	0	-0.750373	6.2	0.291186	0.143972	6.02181	3.61792e-06	5.46259e-06	7.97373e-06	5.15424e-06	3.99832e-06	5.98291e-06	0.117467	0.0302129	0.646457	7.43614e-06	2.85512e-05	5.24503e-06	2.19938e-05	7.54755e-06	6.72047e-06	6.29877	0.104069	6.29963	0.94656	500339	3.02829e+07	3.02871e+07	-89.0534	0.0000000E+000	0.0000000E+000	0.0000000E+000	89.0534	0.0000000E+000	0.0000000E+000	0.0000000E+000	-89.0534	0.0000000E+000	0.0000000E+000	0.0000000E+000	-0.94656	0.0000000E+000	0.0000000E+000	0.0000000E+000	0.94656	60.525	89.0534	-0.000243972
16.5286	0.159395	0.00263261	0.159416	-0.94623	104563	0.000117348	-0.940523	3.65761e+06	997.483	3	37	0.00525979	0.032994	0	-0.751193	6.2	0.295637	0.135894	6.04802	4.03771e-06	5.01254e-06	6.4366e-06	6.87112e-06	6.45159e-06	7.78747e-06	0.16068	0.0960894	0.602235	9.22421e-06	4.4563e-05	7.17518e-06	2.39637e-05	5.24599e-06	3.63159e-06	6.27203	0.103591	6.27288	0.94623	997481	6.03938e+07	6.0402e+07	-89.0538	0.0000000E+000	0.0000000E+000	0.0000000E+000	89.0538	0.0000000E+000	0.0000000E+000	0.0000000E+000	-89.0538	0.0000000E+000	0.0000000E+000	0.0000000E+000	-0.94623	0.0000000E+000	0.0000000E+000	0.0000000E+000	0.94623	60.5462	89.0538	-0.000172268
8.24973	0.160344	0.0032429	0.160377	-1.15863	104567	0.000123919	-0.936736	5.94904e+06	2432.37	3	37	0.00525856	0.0327887	0	-0.752149	6.2	0.280211	0.169321	4.30197	4.39669e-06	7.08124e-06	3.23014e-06	5.8465e-06	7.78294e-06	3.93158e-06	0.244143	0.107855	0.456767	4.98441e-05	2.79046e-05	1.32953e-05	2.69437e-05	4.61863e-05	4.06406e-06	6.23404	0.126081	6.23531	1.15863	2.43238e+06	1.20268e+08	1.20292e+08	-88.8414	0.0000000E+000	0.0000000E+000	0.0000000E+000	88.8414	0.0000000E+000	0.0000000E+000	0.0000000E+000	-88.8414	0.0000000E+000	0.0000000E+000	0.0000000E+000	-1.15863	0.0000000E+000	0.0000000E+000	0.0000000E+000	1.15863	49.4447	88.8414	-0.000474129
4.11618	0.161449	0.0042789	0.161506	-1.51816	104571	0.000121826	-0.957706	9.03636e+06	6342.81	3	37	0.00525823	0.0325575	0	-0.753896	6.2	0.151187	0.117693	2.89226	3.51981e-06	4.43209e-06	2.71324e-06	3.4226e-06	1.18727e-06	2.3167e-06	0.137204	0.0451689	0.416836	3.33727e-06	2.72042e-05	2.50972e-05	2.25246e-05	6.02697e-06	3.1377e-06	6.18955	0.164042	6.19172	1.51816	6.3428e+06	2.39323e+08	2.39407e+08	-88.4818	0.0000000E+000	0.0000000E+000	0.0000000E+000	88.4818	0.0000000E+000	0.0000000E+000	0.0000000E+000	-88.4818	0.0000000E+000	0.0000000E+000	0.0000000E+000	-1.51816	0.0000000E+000	0.0000000E+000	0.0000000E+000	1.51816	37.7314	88.4818	-0.000941322
2.05457	0.163114	0.00609281	0.163228	-2.13918	104580	0.000116509	-0.961617	1.2714e+07	17714.4	3	37	0.00525811	0.0322133	0	-0.755828	6.2	0.162557	0.0700964	1.92244	1.48589e-06	6.38407e-06	1.5623e-06	2.20298e-06	3.65847e-06	2.61033e-06	0.165747	0.0864423	0.358447	6.73468e-06	2.83381e-05	9.02517e-06	2.78376e-05	9.59856e-06	3.1958e-05	6.12213	0.22868	6.1264	2.13918	1.77144e+07	4.74243e+08	4.74574e+08	-87.8608	0.0000000E+000	0.0000000E+000	0.0000000E+000	87.8608	0.0000000E+000	0.0000000E+000	0.0000000E+000	-87.8608	0.0000000E+000	0.0000000E+000	0.0000000E+000	-2.13918	0.0000000E+000	0.0000000E+000	0.0000000E+000	2.13918	26.7716	87.8608	-0.0013575
1.02607	0.165344	0.00890866	0.165584	-3.08408	104595	0.000126538	-0.928953	1.74113e+07	50398.6	3	37	0.00525625	0.0317437	0	-0.761322	6.2	0.12845	0.048689	1.367	1.81713e-06	5.02778e-06	2.45472e-06	1.6627e-06	8.96975e-07	1.66008e-06	0.113083	0.0840559	0.351499	7.21592e-06	2.19212e-05	5.10461e-06	2.55049e-05	2.66875e-06	3.0927e-06	6.03049	0.324919	6.03923	3.08408	5.03985e+07	9.35394e+08	9.36751e+08	-86.9159	0.0000000E+000	0.0000000E+000	0.0000000E+000	86.9159	0.0000000E+000	0.0000000E+000	0.0000000E+000	-86.9159	0.0000000E+000	0.0000000E+000	0.0000000E+000	-3.08408	0.0000000E+000	0.0000000E+000	0.0000000E+000	3.08408	18.5599	86.9159	-0.00414973
0.511825	0.168524	0.0139502	0.1691	-4.73208	104625	0.000115918	-0.931843	2.22905e+07	151702	3	37	0.00525758	0.0310915	0	-0.769934	6.2	0.109967	0.0610163	0.93283	1.75569e-06	4.22419e-06	1.07066e-06	2.69538e-06	8.269e-07	1.00702e-06	0.121041	0.124588	0.344753	1.21871e-05	2.18087e-05	5.20753e-06	2.65209e-05	3.29808e-06	2.64295e-06	5.8935	0.487857	5.91366	4.73208	1.51702e+08	1.83262e+09	1.83889e+09	-85.2679	0.0000000E+000	0.0000000E+000	0.0000000E+000	85.2679	0.0000000E+000	0.0000000E+000	0.0000000E+000	-85.2679	0.0000000E+000	0.0000000E+000	0.0000000E+000	-4.73208	0.0000000E+000	0.0000000E+000	0.0000000E+000	4.73208	12.0804	85.2679	-0.00596804
0.255612	0.178598	0.0213585	0.179871	-6.81959	104684	0.000104813	-1.01377	2.91521e+07	411045	3	37	0.00525207	0.0291992	0	-0.781391	6.2	0.141743	0.10568	0.664315	1.64296e-06	6.66735e-06	7.89172e-07	1.8751e-06	1.25385e-06	1.15524e-06	0.137935	0.0736787	0.342886	5.45247e-06	2.94748e-05	6.45003e-06	2.36701e-05	7.73422e-06	4.35842e-06	5.52022	0.66016	5.55955	6.81959	4.11045e+08	3.43713e+09	3.46162e+09	-83.1804	0.0000000E+000	0.0000000E+000	0.0000000E+000	83.1804	0.0000000E+000	0.0000000E+000	0.0000000E+000	-83.1804	0.0000000E+000	0.0000000E+000	0.0000000E+000	-6.81959	0.0000000E+000	0.0000000E+000	0.0000000E+000	6.81959	8.36193	83.1804	-0.00896136
0.127525	0.192889	0.0207203	0.193999	-6.13125	104801	0.000110114	-0.984479	6.02322e+07	687106	3	37	0.00524971	0.0270605	0	-0.818303	6.2	0.117996	0.0978565	0.483347	2.76227e-06	4.69027e-06	9.27783e-07	2.33191e-06	5.82536e-07	8.56675e-07	0.142073	0.118001	0.342695	9.07593e-06	2.413e-05	5.31504e-06	2.67646e-05	1.90348e-06	3.11854e-06	5.12519	0.550552	5.15467	6.13125	6.87105e+08	6.39639e+09	6.43319e+09	-83.8688	0.0000000E+000	0.0000000E+000	0.0000000E+000	83.8688	0.0000000E+000	0.0000000E+000	0.0000000E+000	-83.8688	0.0000000E+000	0.0000000E+000	0.0000000E+000	-6.13125	0.0000000E+000	0.0000000E+000	0.0000000E+000	6.13125	9.30918	83.8688	-0.00936208
0.0636941	0.202325	0.015029	0.202883	-4.24822	105034	0.000128767	-0.858528	1.66261e+08	912351	3	37	0.00524693	0.0258619	0	-0.857426	6.2	0.124325	0.0999133	0.364503	1.39141e-06	5.37098e-06	8.63956e-07	2.59929e-06	8.6874e-07	7.93024e-07	0.159826	0.104508	0.349974	1.18327e-05	2.65819e-05	7.96401e-06	2.38205e-05	9.60573e-06	5.16702e-06	4.91542	0.365125	4.92896	4.24822	9.12351e+08	1.22823e+10	1.23162e+10	-85.7518	0.0000000E+000	0.0000000E+000	0.0000000E+000	85.7518	0.0000000E+000	0.0000000E+000	0.0000000E+000	-85.7518	0.0000000E+000	0.0000000E+000	0.0000000E+000	-4.24822	0.0000000E+000	0.0000000E+000	0.0000000E+000	4.24822	13.4623	85.7518	-0.0210716
0.0317924	0.207597	0.00967863	0.207823	-2.66932	105500	0.000127057	-0.884703	5.17228e+08	1.12182e+06	3	37	0.00524613	0.0252433	0	-1.02177	6.2	0.123265	0.105575	0.286052	1.18399e-06	5.68196e-06	8.70443e-07	2.01776e-06	1.39454e-06	7.989e-07	0.149606	0.143097	0.319748	1.26364e-05	2.74261e-05	5.36303e-06	1.96024e-05	3.12594e-06	6.56497e-06	4.80657	0.224093	4.81179	2.66932	1.12182e+09	2.4062e+10	2.40881e+10	-87.3307	0.0000000E+000	0.0000000E+000	0.0000000E+000	87.3307	0.0000000E+000	0.0000000E+000	0.0000000E+000	-87.3307	0.0000000E+000	0.0000000E+000	0.0000000E+000	-2.66932	0.0000000E+000	0.0000000E+000	0.0000000E+000	2.66932	21.449	87.3307	-0.0654987
0.0199946	0.209541	0.00710748	0.209662	-1.94269	106048	0.000138057	-0.861092	1.11993e+09	1.28702e+06	3	37	0.00524638	0.0250231	0	-1.13448	6.2	0.113886	0.121059	0.240555	2.03236e-06	4.10355e-06	1.75772e-06	2.14421e-06	9.57291e-07	6.23835e-07	0.124743	0.148559	0.283837	1.06334e-05	1.90058e-05	7.01897e-06	1.8039e-05	5.68794e-06	3.71577e-06	4.76685	0.161688	4.76959	1.94269	1.28702e+09	3.79436e+10	3.79655e+10	-88.0573	0.0000000E+000	0.0000000E+000	0.0000000E+000	88.0573	0.0000000E+000	0.0000000E+000	0.0000000E+000	-88.0573	0.0000000E+000	0.0000000E+000	0.0000000E+000	-1.94269	0.0000000E+000	0.0000000E+000	0.0000000E+000	1.94269	29.4818	88.0573	-0.0509726