File: Python/Experiments/IRFB/240507-Cloth-1p5M_FeCl2FeCl3-1M_HCl/Data/240507-EIS-Cloth-1p5M_FeCl2FeCl3-1M_HCl-Wamup_10mLmin-4xFlowRate-20mHz_10ppd_02_PEIS_C15.mpt
EC-Lab ASCII FILE
Nb header lines : 75

Potentio Electrochemical Impedance Spectroscopy

Run on channel : 15 (SN 19485)
User :
Electrode connection : standard
Potential control : Ewe
Ewe ctrl range : min = -1.00 V, max = 1.00 V
Ewe,I filtering : 50 kHz
Safety Limits :
	Do not start on E overload
Channel : Grounded
Acquisition started on : 05/08/2024 12:03:59.706
Loaded Setting File :  C:\Data\mathias\IRFB\240503-EIS-Felt-1p5M_FeCl2FeCl3-1M_HCl-Wamup_10mLmin-4xFlowRate-20mHz_10ppd.mps
Saved on :
	File : 240507-EIS-Cloth-1p5M_FeCl2FeCl3-1M_HCl-Wamup_10mLmin-4xFlowRate-20mHz_10ppd_02_PEIS_C15.mpr
	Directory : C:\Data\mathias\IRFB\
	Host : 192.168.0.1
Device : VMP-300 (SN 0826)
Address : USB
EC-Lab for windows v11.52 (software)
Internet server v11.52 (firmware)
Command interpretor v11.52 (firmware)
Electrode material :
Initial state :
Electrolyte :
Comments :
Cable : special
Electrode surface area : 0.001 cm²
Characteristic mass : 0.001 g
Equivalent Weight : 0.000 g/eq.
Density : 0.000 g/cm3
Volume (V) : 0.001 cm³
Record EIS quality indicators
Cycle Definition : Charge/Discharge alternance
External device configuration :
   device type : Other
   device name : Other
   Analog OUT :
      mode : E/V
      unit : KNF Pump/ml/min
      max : 120.000 at 5.000 V
      min : 0.000 at 0.000 V
      current : 4.300
Mode                Single sine
E (V)               0.0000
vs.                 Eoc
tE (h:m:s)          0:00:0.0000
record              0
dI                  0.000
unit dI             mA
dt (s)              0.000
fi                  220.000
unit fi             kHz
ff                  20.000
unit ff             mHz
Nd                  10
Points              per decade
spacing             Logarithmic
Va (mV)             5.0
pw                  0.10
Na                  3
corr                0
E range min (V)     -1.000
E range max (V)     1.000
I Range             Auto
Bandwidth           8
nc cycles           59
goto Ns'            0
nr cycles           0
inc. cycle          0

freq/Hz	Re(Z)/Ohm	-Im(Z)/Ohm	|Z|/Ohm	Phase(Z)/deg	time/s	<Ewe>/V	<I>/mA	Cs/µF	Cp/µF	cycle number	I Range	|Ewe|/V	|I|/A	Ns	(Q-Qo)/mA.h	Analog OUT/V	THD Ewe/%	NSD Ewe/%	NSR Ewe/%	|Ewe h2|/V	|Ewe h3|/V	|Ewe h4|/V	|Ewe h5|/V	|Ewe h6|/V	|Ewe h7|/V	THD I/%	NSD I/%	NSR I/%	|I h2|/A	|I h3|/A	|I h4|/A	|I h5|/A	|I h6|/A	|I h7|/A	Re(Y)/Ohm-1	Im(Y)/Ohm-1	|Y|/Ohm-1	Phase(Y)/deg	Re(C)/nF	Im(C)/nF	|C|/nF	Phase(C)/deg	Re(M)	Im(M)	|M|	Phase(M)/deg	Re(Permittivity)	Im(Permittivity)	|Permittivity|	Phase(Permittivity)/deg	Re(Resistivity)/Ohm.cm	Im(Resistivity)/Ohm.cm	|Resistivity|/Ohm.cm	Phase(Resistivity)/deg	Re(Conductivity)/mS/cm	Im(Conductivity)/mS/cm	|Conductivity|/mS/cm	Phase(Conductivity)/deg	Tan(Delta)	Loss Angle(Delta)/deg	dq/mA.h
220003	0.0786665	-0.0226026	0.0818492	16.0305	601.823	0.000187474	-0.319465	-32.0061	-2.44074	1	37	0.00291093	0.0355646	0	-0.000137311	4.3	-1	-1	-1	0	0	0	0	0	0	-1	-1	-1	0	0	0	0	0	0	11.7425	-3.37388	12.2176	-16.0305	-2440.74	8494.79	8838.48	-106.031	0.0000000E+000	0.0000000E+000	0.0000000E+000	106.031	0.0000000E+000	0.0000000E+000	0.0000000E+000	-106.031	0.0000000E+000	0.0000000E+000	0.0000000E+000	16.0305	0.0000000E+000	0.0000000E+000	0.0000000E+000	-16.0305	3.48041	73.9695	-0.000137311
0.645874	0.152312	0.0128166	0.15285	-4.80994	700.195	9.12802e-05	-0.887437	1.92264e+07	135180	1	37	0.00526131	0.0344213	0	-0.0195668	4.3	0.113295	0.068429	1.03667	1.7181e-06	4.1724e-06	8.63274e-07	3.23321e-06	1.46069e-06	8.27428e-07	0.120268	0.0891567	0.340963	5.5876e-06	2.61963e-05	5.57267e-06	3.00138e-05	7.01234e-06	2.49197e-06	6.51931	0.548581	6.54235	4.80994	1.3518e+08	1.60647e+09	1.61215e+09	-85.1901	0.0000000E+000	0.0000000E+000	0.0000000E+000	85.1901	0.0000000E+000	0.0000000E+000	0.0000000E+000	-85.1901	0.0000000E+000	0.0000000E+000	0.0000000E+000	-4.80994	0.0000000E+000	0.0000000E+000	0.0000000E+000	4.80994	11.8839	85.1901	9.67578e-05
26.2693	0.143576	0.00217822	0.143593	-0.869178	2183.61	8.89206e-05	-0.811342	2.78144e+06	640.042	2	37	0.00510772	0.0355709	0	-0.420135	4.3	0.359841	0.245813	6.23809	7.5283e-06	6.14917e-06	5.97226e-06	7.19374e-06	6.62589e-06	8.60082e-06	0.150949	0.0444203	0.597368	3.31483e-05	2.63237e-05	6.90553e-06	2.77851e-05	1.24257e-05	5.25556e-06	6.96334	0.105642	6.96414	0.869178	640042	4.2188e+07	4.21929e+07	-89.1308	0.0000000E+000	0.0000000E+000	0.0000000E+000	89.1308	0.0000000E+000	0.0000000E+000	0.0000000E+000	-89.1308	0.0000000E+000	0.0000000E+000	0.0000000E+000	-0.869178	0.0000000E+000	0.0000000E+000	0.0000000E+000	0.869178	65.9145	89.1308	-0.000154076
1068.29	0.135935	0.0114561	0.136417	-4.81728	3763.48	8.15761e-05	-0.886066	13004.5	91.7125	3	37	0.00518589	0.038015	0	-0.741927	4.3	0.270658	0.182774	6.11225	5.85712e-06	3.36133e-06	3.79038e-06	7.22432e-06	7.24668e-06	2.66494e-06	0.0332011	0.0906783	0.579599	4.65222e-06	3.83489e-06	4.71054e-06	6.88023e-06	5.83698e-06	2.99375e-06	7.30457	0.615601	7.33046	4.81728	91712.5	1.08824e+06	1.0921e+06	-85.1827	0.0000000E+000	0.0000000E+000	0.0000000E+000	85.1827	0.0000000E+000	0.0000000E+000	0.0000000E+000	-85.1827	0.0000000E+000	0.0000000E+000	0.0000000E+000	-4.81728	0.0000000E+000	0.0000000E+000	0.0000000E+000	4.81728	11.8658	85.1827	-0.000279112
43479.1	0.0904516	0.00642153	0.0906792	-4.06085	5342.09	0.000208109	-0.251589	570.035	2.85866	4	37	0.00521317	0.0574902	0	-1.16295	4.3	0.356413	0.198358	6.05066	6.61228e-06	5.15695e-06	8.32074e-06	4.31908e-06	6.90619e-06	1.02098e-05	0.117395	0.0385097	0.374781	7.87568e-06	6.59221e-05	2.13713e-06	1.06235e-05	3.20427e-06	3.91501e-06	11.0002	0.780949	11.0279	4.06085	2858.66	40266.2	40367.5	-85.9391	0.0000000E+000	0.0000000E+000	0.0000000E+000	85.9391	0.0000000E+000	0.0000000E+000	0.0000000E+000	-85.9391	0.0000000E+000	0.0000000E+000	0.0000000E+000	-4.06085	0.0000000E+000	0.0000000E+000	0.0000000E+000	4.06085	14.0857	85.9391	-8.76485e-05
0.127525	0.180016	0.0321983	0.182873	-10.1409	5620.42	0.000104905	-0.872073	3.87608e+07	1.2016e+06	4	37	0.00525219	0.0287205	0	-1.24063	4.3	0.121146	0.0757374	0.483292	1.46644e-06	5.14083e-06	1.35148e-06	2.59518e-06	9.48486e-07	8.66725e-07	0.184557	0.459354	0.41975	2.98623e-05	2.99198e-05	1.76322e-05	2.38784e-05	6.10774e-06	5.0339e-06	5.38286	0.962797	5.46829	10.1409	1.2016e+09	6.71797e+09	6.82459e+09	-79.8591	0.0000000E+000	0.0000000E+000	0.0000000E+000	79.8591	0.0000000E+000	0.0000000E+000	0.0000000E+000	-79.8591	0.0000000E+000	0.0000000E+000	0.0000000E+000	-10.1409	0.0000000E+000	0.0000000E+000	0.0000000E+000	10.1409	5.59085	79.8591	-0.0159256
5.19276	0.146627	0.00396998	0.146681	-1.55092	6924.39	0.000109189	-0.923133	7.72029e+06	5655.39	5	37	0.00511238	0.0348537	0	-1.59639	4.3	0.23362	0.141395	3.6479	5.50597e-06	6.88165e-06	2.80273e-06	4.21791e-06	2.98699e-06	2.51895e-06	0.235613	0.0845784	0.401034	1.89877e-05	7.15103e-05	9.30155e-06	2.90501e-05	6.15398e-06	3.19191e-06	6.81501	0.184519	6.81751	1.55092	5.6554e+06	2.08876e+08	2.08953e+08	-88.4491	0.0000000E+000	0.0000000E+000	0.0000000E+000	88.4491	0.0000000E+000	0.0000000E+000	0.0000000E+000	-88.4491	0.0000000E+000	0.0000000E+000	0.0000000E+000	-1.55092	0.0000000E+000	0.0000000E+000	0.0000000E+000	1.55092	36.934	88.4491	-0.000443805
211.149	0.142507	0.00438657	0.142575	-1.76308	8504.13	0.000106872	-0.822099	171833	162.656	6	37	0.00543503	0.0381205	0	-1.91245	4.3	0.286255	0.219838	5.8674	2.85719e-06	3.55018e-06	8.9258e-06	7.23474e-06	3.67206e-06	7.19367e-06	0.0918342	0.0137978	0.56574	3.48484e-06	2.73231e-05	3.31127e-06	1.9871e-05	6.77281e-06	2.83226e-06	7.01053	0.215793	7.01385	1.76308	162656	5.28424e+06	5.28674e+06	-88.2369	0.0000000E+000	0.0000000E+000	0.0000000E+000	88.2369	0.0000000E+000	0.0000000E+000	0.0000000E+000	-88.2369	0.0000000E+000	0.0000000E+000	0.0000000E+000	-1.76308	0.0000000E+000	0.0000000E+000	0.0000000E+000	1.76308	32.4872	88.2369	-0.000255246
8590.41	0.10942	0.0188041	0.111024	-9.75114	10082.4	7.19016e-05	-0.990457	985.267	28.2633	7	37	0.00528089	0.0475651	0	-2.29368	4.3	0.280128	0.196035	5.99255	4.60531e-06	4.45739e-06	3.9551e-06	7.13734e-06	4.8679e-06	7.95823e-06	0.103884	0.0560771	0.468994	5.20198e-06	4.71045e-05	3.94813e-06	1.00244e-05	6.1245e-06	3.47645e-06	8.87691	1.52551	9.00704	9.75114	28263.3	164463	166874	-80.2489	0.0000000E+000	0.0000000E+000	0.0000000E+000	80.2489	0.0000000E+000	0.0000000E+000	0.0000000E+000	-80.2489	0.0000000E+000	0.0000000E+000	0.0000000E+000	-9.75114	0.0000000E+000	0.0000000E+000	0.0000000E+000	9.75114	5.81896	80.2489	-0.000317512
0.0252177	0.21386	0.0159049	0.21445	-4.25331	11357.6	0.000107166	-0.808155	3.9681e+08	2.1827e+06	7	38	0.00509047	0.0237373	0	-2.5411	4.3	0.100335	0.114663	0.259336	2.89446e-06	3.13508e-06	7.78969e-07	2.07242e-06	8.45914e-07	9.67749e-07	0.407022	0.200574	0.976125	1.56953e-05	1.29726e-05	1.20526e-05	2.66465e-05	7.26185e-05	5.08971e-05	4.65025	0.345843	4.66309	4.25331	2.1827e+09	2.93488e+10	2.94299e+10	-85.7467	0.0000000E+000	0.0000000E+000	0.0000000E+000	85.7467	0.0000000E+000	0.0000000E+000	0.0000000E+000	-85.7467	0.0000000E+000	0.0000000E+000	0.0000000E+000	-4.25331	0.0000000E+000	0.0000000E+000	0.0000000E+000	4.25331	13.4461	85.7467	-0.0442754
1.02607	0.151961	0.00981861	0.152278	-3.69689	11745.5	0.000106828	-0.827399	1.57976e+07	65677.8	8	37	0.00510682	0.0335362	0	-2.63799	4.3	0.116279	0.078831	1.40884	2.27576e-06	3.84803e-06	1.67168e-06	2.12406e-06	1.93326e-06	1.01945e-06	0.127074	0.0814739	0.36715	1.39858e-05	2.70995e-05	1.0959e-05	2.37885e-05	8.35102e-06	5.94705e-06	6.55327	0.423424	6.56694	3.69689	6.56777e+07	1.01648e+09	1.0186e+09	-86.3031	0.0000000E+000	0.0000000E+000	0.0000000E+000	86.3031	0.0000000E+000	0.0000000E+000	0.0000000E+000	-86.3031	0.0000000E+000	0.0000000E+000	0.0000000E+000	-3.69689	0.0000000E+000	0.0000000E+000	0.0000000E+000	3.69689	15.4768	86.3031	-0.00276065
41.7501	0.145173	0.00218378	0.14519	-0.861809	13307.6	0.000129352	-0.787054	1.74564e+06	394.911	9	37	0.00510444	0.035157	0	-2.98656	4.3	0.355515	0.162369	6.19538	5.27083e-06	7.21257e-06	4.53841e-06	6.98769e-06	8.83345e-06	7.09787e-06	0.120741	0.0701146	0.610919	6.86844e-06	2.5078e-05	5.36354e-06	2.6932e-05	1.76103e-05	5.72705e-06	6.88676	0.103594	6.88754	0.861809	394910	2.62529e+07	2.62559e+07	-89.1382	0.0000000E+000	0.0000000E+000	0.0000000E+000	89.1382	0.0000000E+000	0.0000000E+000	0.0000000E+000	-89.1382	0.0000000E+000	0.0000000E+000	0.0000000E+000	-0.861809	0.0000000E+000	0.0000000E+000	0.0000000E+000	0.861809	66.4781	89.1382	-0.000277788
1698.37	0.133118	0.0152193	0.133985	-6.52229	14887	4.51336e-05	-1.00564	6157.35	79.4461	10	37	0.00511088	0.0381452	0	-3.34049	4.3	0.287775	0.241318	6.20521	4.5145e-06	7.71682e-06	5.4997e-06	5.98345e-06	4.56976e-06	4.68656e-06	0.033584	0.0659337	0.581255	3.34252e-06	7.19211e-06	4.87676e-06	2.082e-06	7.348e-06	1.48561e-06	7.41523	0.847781	7.46353	6.52229	79446	694885	699412	-83.4777	0.0000000E+000	0.0000000E+000	0.0000000E+000	83.4777	0.0000000E+000	0.0000000E+000	0.0000000E+000	-83.4777	0.0000000E+000	0.0000000E+000	0.0000000E+000	-6.52229	0.0000000E+000	0.0000000E+000	0.0000000E+000	6.52229	8.74663	83.4777	-0.000311071
69097	0.087539	0.000729683	0.0875421	-0.477579	16466	0.000233144	-0.292813	3156.65	0.219312	11	37	0.00522408	0.059675	0	-3.74157	4.3	0.359314	0.173939	6.01832	8.03235e-06	1.07903e-05	9.82215e-06	3.33342e-06	4.97653e-06	4.25947e-06	0.100072	0.0556009	0.354968	1.53918e-05	5.68456e-05	3.05011e-06	2.60669e-06	5.33321e-06	5.068e-06	11.4227	0.095214	11.4231	0.477579	219.311	26310.5	26311.4	-89.5224	0.0000000E+000	0.0000000E+000	0.0000000E+000	89.5224	0.0000000E+000	0.0000000E+000	0.0000000E+000	-89.5224	0.0000000E+000	0.0000000E+000	0.0000000E+000	-0.477579	0.0000000E+000	0.0000000E+000	0.0000000E+000	0.477579	119.969	89.5224	8.27659e-05
0.202719	0.168448	0.0282673	0.170803	-9.52607	16660.1	0.000138908	-0.874133	2.77742e+07	760709	11	37	0.00510045	0.0298616	0	-3.77739	4.3	0.119933	0.0777056	0.622154	2.31204e-06	4.86987e-06	1.19475e-06	1.98277e-06	6.89606e-07	1.40876e-06	0.21881	0.21023	0.414431	3.71062e-05	3.68221e-05	1.79234e-05	2.94657e-05	9.77098e-06	6.08056e-06	5.77396	0.968931	5.8547	9.52607	7.60709e+08	4.53314e+09	4.59653e+09	-80.4739	0.0000000E+000	0.0000000E+000	0.0000000E+000	80.4739	0.0000000E+000	0.0000000E+000	0.0000000E+000	-80.4739	0.0000000E+000	0.0000000E+000	0.0000000E+000	-9.52607	0.0000000E+000	0.0000000E+000	0.0000000E+000	9.52607	5.95911	80.4739	-0.00537043
8.24973	0.147956	0.00314871	0.147989	-1.21915	18097.9	0.000134488	-0.784337	6.12699e+06	2773.66	12	37	0.00510931	0.0345249	0	-4.1601	4.3	0.246141	0.103667	4.28762	5.63947e-06	5.01642e-06	4.86699e-06	4.83702e-06	4.005e-06	3.6883e-06	0.248669	0.111893	0.428888	5.74508e-05	2.78524e-05	8.73297e-06	2.89496e-05	4.75578e-05	4.20335e-06	6.75572	0.143772	6.75725	1.21915	2.77366e+06	1.30332e+08	1.30362e+08	-88.7808	0.0000000E+000	0.0000000E+000	0.0000000E+000	88.7808	0.0000000E+000	0.0000000E+000	0.0000000E+000	-88.7808	0.0000000E+000	0.0000000E+000	0.0000000E+000	-1.21915	0.0000000E+000	0.0000000E+000	0.0000000E+000	1.21915	46.9893	88.7808	5.2117e-05
335.537	0.143998	0.00616069	0.14413	-2.4498	19678.3	8.89765e-05	-0.955021	76992.8	140.671	13	37	0.00524582	0.0363966	0	-4.502	4.3	0.249093	0.151733	5.99642	2.89072e-06	2.80116e-06	4.71747e-06	7.62665e-06	7.09384e-06	3.22133e-06	0.0764074	0.0250076	0.603077	4.26665e-06	2.05178e-05	7.09105e-06	1.53291e-05	4.45761e-06	2.57588e-06	6.93186	0.296567	6.9382	2.4498	140671	3.28798e+06	3.29099e+06	-87.5502	0.0000000E+000	0.0000000E+000	0.0000000E+000	87.5502	0.0000000E+000	0.0000000E+000	0.0000000E+000	-87.5502	0.0000000E+000	0.0000000E+000	0.0000000E+000	-2.4498	0.0000000E+000	0.0000000E+000	0.0000000E+000	2.4498	23.3736	87.5502	-0.000267719
13658	0.10344	0.0169071	0.104812	-9.28285	21243.4	0.000175469	-0.42955	689.233	17.9341	14	37	0.00518172	0.0494382	0	-4.85229	4.3	0.222162	0.158971	6.05898	4.913e-06	3.20349e-06	5.36084e-06	4.63367e-06	4.52485e-06	2.52761e-06	0.0896999	0.00860772	0.433403	1.42117e-06	4.32538e-05	3.7236e-06	4.63539e-06	5.77579e-06	4.33192e-06	9.41593	1.53902	9.54088	9.28285	17934.1	109723	111179	-80.7172	0.0000000E+000	0.0000000E+000	0.0000000E+000	80.7172	0.0000000E+000	0.0000000E+000	0.0000000E+000	-80.7172	0.0000000E+000	0.0000000E+000	0.0000000E+000	-9.28285	0.0000000E+000	0.0000000E+000	0.0000000E+000	9.28285	6.11812	80.7172	-0.000271179
0.04008	0.211567	0.0221352	0.212721	-5.97286	22073.2	9.92188e-05	-0.946246	1.79395e+08	1.94247e+06	14	38	0.00508814	0.0239193	0	-5.03868	4.3	0.11775	0.112306	0.319487	2.26952e-06	4.20462e-06	9.42658e-07	2.55786e-06	1.43379e-06	7.14376e-07	0.260614	0.153234	0.817593	1.66219e-05	2.57551e-05	2.89839e-05	2.37796e-05	3.19874e-05	1.03407e-05	4.67547	0.489172	4.70099	5.97286	1.94247e+09	1.8566e+10	1.86673e+10	-84.0271	0.0000000E+000	0.0000000E+000	0.0000000E+000	84.0271	0.0000000E+000	0.0000000E+000	0.0000000E+000	-84.0271	0.0000000E+000	0.0000000E+000	0.0000000E+000	-5.97286	0.0000000E+000	0.0000000E+000	0.0000000E+000	5.97286	9.55792	84.0271	-0.0307119
1.63084	0.152828	0.00762895	0.153018	-2.85775	22884.5	0.000107767	-0.873044	1.27922e+07	31797.1	15	37	0.00510622	0.03337	0	-5.24175	4.3	0.149873	0.0896558	1.72937	2.93733e-06	4.6313e-06	2.10939e-06	2.99039e-06	1.62473e-06	2.07736e-06	0.136854	0.0893402	0.370222	1.04027e-05	2.97021e-05	7.17837e-06	2.92825e-05	7.5687e-06	7.08332e-06	6.52703	0.32582	6.53516	2.85775	3.17971e+07	6.3698e+08	6.37773e+08	-87.1423	0.0000000E+000	0.0000000E+000	0.0000000E+000	87.1423	0.0000000E+000	0.0000000E+000	0.0000000E+000	-87.1423	0.0000000E+000	0.0000000E+000	0.0000000E+000	-2.85775	0.0000000E+000	0.0000000E+000	0.0000000E+000	2.85775	20.0327	87.1423	0.000423393
66.3374	0.147598	0.00255086	0.14762	-0.990113	24442.7	0.000109071	-0.822918	940536	280.838	16	37	0.00509875	0.0345397	0	-5.63276	4.3	0.303686	0.151364	6.24231	9.46306e-06	5.0778e-06	5.06026e-06	6.43394e-06	4.64571e-06	4.10713e-06	0.117617	0.0259297	0.618762	4.97212e-06	2.79823e-05	5.16979e-06	2.74656e-05	5.80363e-06	2.77344e-06	6.77313	0.117056	6.77414	0.990113	280838	1.62499e+07	1.62523e+07	-89.0099	0.0000000E+000	0.0000000E+000	0.0000000E+000	89.0099	0.0000000E+000	0.0000000E+000	0.0000000E+000	-89.0099	0.0000000E+000	0.0000000E+000	0.0000000E+000	-0.990113	0.0000000E+000	0.0000000E+000	0.0000000E+000	0.990113	57.8621	89.0099	-0.000304363
2699.14	0.12944	0.018842	0.130804	-8.28214	26008.6	8.20981e-05	-0.926359	3129.45	64.9354	17	37	0.00518005	0.0396016	0	-5.96608	4.3	0.268032	0.0806836	6.10278	5.1546e-06	3.5232e-06	4.95481e-06	6.18377e-06	5.22774e-06	4.72221e-06	0.0505691	0.0185206	0.55018	2.89088e-06	1.61789e-05	6.69708e-06	3.13622e-06	5.02009e-06	6.52695e-06	7.5653	1.10125	7.64503	8.28214	64935.4	446089	450790	-81.7179	0.0000000E+000	0.0000000E+000	0.0000000E+000	81.7179	0.0000000E+000	0.0000000E+000	0.0000000E+000	-81.7179	0.0000000E+000	0.0000000E+000	0.0000000E+000	-8.28214	0.0000000E+000	0.0000000E+000	0.0000000E+000	8.28214	6.86974	81.7179	-0.000362199
109811	0.085894	-0.00612438	0.0861121	4.07838	27564.6	0.000219275	-0.226371	-236.653	-1.19704	18	37	0.00522226	0.0606449	0	-6.38382	4.3	-1	-1	-1	0	0	0	0	0	0	-1	-1	-1	0	0	0	0	0	0	11.5834	-0.825912	11.6128	-4.07838	-1197.04	16788.4	16831	-94.0784	0.0000000E+000	0.0000000E+000	0.0000000E+000	94.0784	0.0000000E+000	0.0000000E+000	0.0000000E+000	-94.0784	0.0000000E+000	0.0000000E+000	0.0000000E+000	4.07838	0.0000000E+000	0.0000000E+000	0.0000000E+000	-4.07838	14.0249	85.9216	-4.3457e-05
0.322118	0.163555	0.0207406	0.164865	-7.22717	27706.4	0.000127523	-0.865004	2.38223e+07	377025	18	37	0.00510211	0.0309473	0	-6.41996	4.3	0.115942	0.0906709	0.775151	1.92891e-06	4.73073e-06	1.00712e-06	1.92997e-06	1.37729e-06	1.18298e-06	0.158693	0.237131	0.373913	2.11952e-05	2.65023e-05	1.38003e-05	2.11898e-05	7.03422e-06	7.18834e-06	6.01739	0.763072	6.06558	7.22717	3.77025e+08	2.97312e+09	2.99693e+09	-82.7728	0.0000000E+000	0.0000000E+000	0.0000000E+000	82.7728	0.0000000E+000	0.0000000E+000	0.0000000E+000	-82.7728	0.0000000E+000	0.0000000E+000	0.0000000E+000	-7.22717	0.0000000E+000	0.0000000E+000	0.0000000E+000	7.22717	7.88574	82.7728	-0.00804578
13.1083	0.15121	0.00256987	0.151232	-0.973666	29186.2	0.00011882	-0.812077	4.7246e+06	1364.26	19	37	0.00510787	0.033775	0	-6.75043	4.3	0.457206	0.0780966	4.26158	5.36662e-06	8.18683e-06	5.91258e-06	1.8772e-05	4.06541e-06	2.92698e-06	0.148504	0.1295	0.458805	1.16472e-05	2.82151e-05	2.73824e-05	2.77346e-05	5.1973e-06	3.28804e-06	6.6114	0.112363	6.61235	0.973666	1.36426e+06	8.02728e+07	8.02844e+07	-89.0263	0.0000000E+000	0.0000000E+000	0.0000000E+000	89.0263	0.0000000E+000	0.0000000E+000	0.0000000E+000	-89.0263	0.0000000E+000	0.0000000E+000	0.0000000E+000	-0.973666	0.0000000E+000	0.0000000E+000	0.0000000E+000	0.973666	58.8397	89.0263	-0.000443611
533.464	0.14553	0.00907491	0.145813	-3.56821	30743.2	0.000123741	-0.843539	32875.5	127.34	20	37	0.00537301	0.0368487	0	-7.15657	4.3	0.266725	0.185973	5.89945	3.96847e-06	3.21168e-06	5.40562e-06	7.19391e-06	6.85624e-06	5.64801e-06	0.0608821	0.0138668	0.586195	2.42287e-06	1.51891e-05	6.37945e-06	1.26886e-05	6.11507e-06	3.10147e-06	6.84482	0.426826	6.85811	3.56821	127340	2.0421e+06	2.04607e+06	-86.4318	0.0000000E+000	0.0000000E+000	0.0000000E+000	86.4318	0.0000000E+000	0.0000000E+000	0.0000000E+000	-86.4318	0.0000000E+000	0.0000000E+000	0.0000000E+000	-3.56821	0.0000000E+000	0.0000000E+000	0.0000000E+000	3.56821	16.0365	86.4318	-0.000239186
21702.4	0.0985467	0.0137207	0.0994972	-7.92636	32298.1	0.000218026	-0.499156	534.486	10.164	21	37	0.00519503	0.0522128	0	-7.51001	4.3	0.309505	0.123546	6.07385	4.65811e-06	9.65477e-06	6.0016e-06	3.97913e-06	5.46472e-06	5.25793e-06	0.103358	0.0547716	0.402999	4.79556e-06	5.2151e-05	6.2286e-06	8.06551e-06	5.15734e-06	4.90366e-06	9.95451	1.38597	10.0505	7.92636	10164	73001.5	73705.7	-82.0736	0.0000000E+000	0.0000000E+000	0.0000000E+000	82.0736	0.0000000E+000	0.0000000E+000	0.0000000E+000	-82.0736	0.0000000E+000	0.0000000E+000	0.0000000E+000	-7.92636	0.0000000E+000	0.0000000E+000	0.0000000E+000	7.92636	7.18234	82.0736	-0.000132105
0.0636941	0.206349	0.0281896	0.208266	-7.77909	32806.3	0.000129129	-0.888765	8.86403e+07	1.62395e+06	21	37	0.00509292	0.0244539	0	-7.64817	4.3	0.118092	0.0737927	0.369372	2.80766e-06	4.28194e-06	1.80123e-06	2.00505e-06	6.32897e-07	7.77383e-07	0.634839	0.141826	0.402611	0.000122854	3.75458e-05	8.04673e-05	2.35682e-05	1.02697e-05	8.45072e-06	4.75737	0.649909	4.80155	7.77909	1.62395e+09	1.18874e+10	1.19978e+10	-82.2209	0.0000000E+000	0.0000000E+000	0.0000000E+000	82.2209	0.0000000E+000	0.0000000E+000	0.0000000E+000	-82.2209	0.0000000E+000	0.0000000E+000	0.0000000E+000	-7.77909	0.0000000E+000	0.0000000E+000	0.0000000E+000	7.77909	7.32005	82.2209	-0.031776
2.58949	0.15492	0.00582284	0.15503	-2.15251	33923.7	0.00012139	-0.851135	1.05553e+07	14890.5	22	37	0.00510448	0.0329258	0	-7.85549	4.3	0.162822	0.0904599	2.20581	1.65163e-06	4.06767e-06	1.50452e-06	3.85266e-06	2.79371e-06	3.96565e-06	0.198137	0.0552775	0.346232	5.43423e-06	2.46983e-05	1.20035e-05	2.13858e-05	5.30772e-05	9.69694e-06	6.44582	0.242273	6.45037	2.15251	1.48905e+07	3.96172e+08	3.96451e+08	-87.8475	0.0000000E+000	0.0000000E+000	0.0000000E+000	87.8475	0.0000000E+000	0.0000000E+000	0.0000000E+000	-87.8475	0.0000000E+000	0.0000000E+000	0.0000000E+000	-2.15251	0.0000000E+000	0.0000000E+000	0.0000000E+000	2.15251	26.6057	87.8475	-0.000468427
105.438	0.150745	0.00332523	0.150782	-1.26366	35476.8	0.000129967	-0.836988	453941	220.773	23	37	0.00508754	0.0337411	0	-8.24882	4.3	0.320152	0.182354	6.18917	4.39355e-06	9.45757e-06	6.29967e-06	6.19765e-06	4.10282e-06	4.67721e-06	0.109804	0.0189547	0.630113	4.05316e-06	2.6956e-05	5.97896e-06	2.3142e-05	4.76087e-06	4.35056e-06	6.63049	0.14626	6.6321	1.26366	220773	1.00085e+07	1.00109e+07	-88.7363	0.0000000E+000	0.0000000E+000	0.0000000E+000	88.7363	0.0000000E+000	0.0000000E+000	0.0000000E+000	-88.7363	0.0000000E+000	0.0000000E+000	0.0000000E+000	-1.26366	0.0000000E+000	0.0000000E+000	0.0000000E+000	1.26366	45.3337	88.7363	-0.00027109
4288.63	0.123271	0.0210591	0.125057	-9.69462	37032.1	9.10643e-05	-0.820945	1762.22	49.9723	24	37	0.00518803	0.0414855	0	-8.62101	4.3	0.292754	0.19364	6.06663	4.74314e-06	8.12179e-06	5.39348e-06	6.3224e-06	4.44686e-06	6.08623e-06	0.0644011	0.0251179	0.51458	2.32561e-06	2.48365e-05	3.59207e-06	4.51806e-06	4.27841e-06	5.21331e-06	7.88219	1.34657	7.99638	9.69462	49972.3	292515	296753	-80.3054	0.0000000E+000	0.0000000E+000	0.0000000E+000	80.3054	0.0000000E+000	0.0000000E+000	0.0000000E+000	-80.3054	0.0000000E+000	0.0000000E+000	0.0000000E+000	-9.69462	0.0000000E+000	0.0000000E+000	0.0000000E+000	9.69462	5.85355	80.3054	-0.000270951
174510	0.0832451	-0.016033	0.084775	10.9017	38598.7	0.000220393	0.668069	-56.8835	-2.03459	25	37	0.0042675	0.0503391	0	-9.02376	4.3	-1	-1	-1	0	0	0	0	0	0	-1	-1	-1	0	0	0	0	0	0	11.5831	-2.23089	11.7959	-10.9017	-2034.59	10563.9	10758	-100.902	0.0000000E+000	0.0000000E+000	0.0000000E+000	100.902	0.0000000E+000	0.0000000E+000	0.0000000E+000	-100.902	0.0000000E+000	0.0000000E+000	0.0000000E+000	10.9017	0.0000000E+000	0.0000000E+000	0.0000000E+000	-10.9017	5.19212	79.0984	0.000256298
0.511825	0.162886	0.0147369	0.163551	-5.16968	38708.2	0.000117774	-0.861215	2.11005e+07	171315	25	37	0.00525857	0.0321524	0	-9.0501	4.3	0.142429	0.059939	0.939487	1.73801e-06	6.09923e-06	2.14461e-06	2.27985e-06	1.4167e-06	9.45447e-07	0.127176	0.150493	0.357646	1.66478e-05	2.46156e-05	6.58023e-06	2.22741e-05	6.85434e-06	6.56696e-06	6.08942	0.550931	6.11429	5.16968	1.71315e+08	1.89354e+09	1.90127e+09	-84.8303	0.0000000E+000	0.0000000E+000	0.0000000E+000	84.8303	0.0000000E+000	0.0000000E+000	0.0000000E+000	-84.8303	0.0000000E+000	0.0000000E+000	0.0000000E+000	-5.16968	0.0000000E+000	0.0000000E+000	0.0000000E+000	5.16968	11.0529	84.8303	-0.00522586
20.8333	0.15333	0.00249908	0.15335	-0.933767	40230.6	0.000129688	-0.807992	3.0569e+06	811.847	26	37	0.00510492	0.0332893	0	-9.38178	4.3	0.400213	0.109995	6.26806	5.42536e-06	6.09714e-06	8.58898e-06	9.34935e-06	3.45449e-06	1.20428e-05	0.134252	0.229587	0.610781	1.1489e-05	2.84096e-05	1.046e-05	2.33658e-05	7.85914e-06	1.47872e-05	6.52016	0.10627	6.52102	0.933767	811849	4.98104e+07	4.9817e+07	-89.0662	0.0000000E+000	0.0000000E+000	0.0000000E+000	89.0662	0.0000000E+000	0.0000000E+000	0.0000000E+000	-89.0662	0.0000000E+000	0.0000000E+000	0.0000000E+000	-0.933767	0.0000000E+000	0.0000000E+000	0.0000000E+000	0.933767	61.3544	89.0662	-0.000243563
847.556	0.145162	0.0126339	0.145711	-4.97409	41779.2	0.000103125	-0.908251	14863.3	111.739	27	37	0.00513666	0.0352525	0	-9.66941	4.3	0.218817	0.198487	6.14703	2.92506e-06	4.41063e-06	6.40234e-06	3.66448e-06	3.53077e-06	4.76897e-06	0.0517045	0.100053	0.611474	3.57205e-06	1.46386e-05	4.82931e-06	5.21743e-06	4.96317e-06	3.69788e-06	6.83708	0.595051	6.86292	4.97409	111739	1.28387e+06	1.28873e+06	-85.0259	0.0000000E+000	0.0000000E+000	0.0000000E+000	85.0259	0.0000000E+000	0.0000000E+000	0.0000000E+000	-85.0259	0.0000000E+000	0.0000000E+000	0.0000000E+000	-4.97409	0.0000000E+000	0.0000000E+000	0.0000000E+000	4.97409	11.4899	85.0259	-0.000297717
34488.2	0.0943613	0.00938136	0.0948265	-5.67766	43326.1	0.000202648	-0.348665	491.908	4.81456	28	37	0.00519354	0.0547689	0	-10.0584	4.3	0.365997	0.169416	6.13809	5.16948e-06	6.84597e-06	1.10731e-05	7.0104e-06	3.54022e-06	7.14402e-06	0.112738	0.0574973	0.390116	8.87263e-06	5.98952e-05	3.08761e-06	1.00297e-05	4.35839e-06	2.65343e-06	10.4938	1.04329	10.5456	5.67766	4814.56	48426.6	48665.4	-84.3223	0.0000000E+000	0.0000000E+000	0.0000000E+000	84.3223	0.0000000E+000	0.0000000E+000	0.0000000E+000	-84.3223	0.0000000E+000	0.0000000E+000	0.0000000E+000	-5.67766	0.0000000E+000	0.0000000E+000	0.0000000E+000	5.67766	10.0584	84.3223	-0.000100623
0.101164	0.196573	0.0325275	0.199246	-9.39575	43663.9	0.000123379	-0.90522	4.83663e+07	1.28903e+06	28	37	0.00524645	0.0263315	0	-10.1279	4.3	0.109824	0.0574778	0.444089	1.86974e-06	4.34666e-06	1.36896e-06	2.40652e-06	7.00574e-07	1.03138e-06	0.272273	0.293891	0.40236	1.55871e-05	6.16999e-05	1.73933e-05	2.38864e-05	7.49806e-06	8.44678e-06	4.95158	0.819351	5.01891	9.39575	1.28903e+09	7.79001e+09	7.89594e+09	-80.6042	0.0000000E+000	0.0000000E+000	0.0000000E+000	80.6042	0.0000000E+000	0.0000000E+000	0.0000000E+000	-80.6042	0.0000000E+000	0.0000000E+000	0.0000000E+000	-9.39575	0.0000000E+000	0.0000000E+000	0.0000000E+000	9.39575	6.04329	80.6042	-0.014551
4.11618	0.156659	0.00449107	0.156724	-1.64209	44959.1	0.000135331	-0.840841	8.60946e+06	7069.79	29	37	0.0054171	0.0345646	0	-10.3824	4.3	0.156513	0.106172	2.82681	2.88995e-06	5.32875e-06	1.54997e-06	3.38191e-06	3.33047e-06	2.30726e-06	0.148692	0.0426675	0.394754	1.08675e-05	2.69908e-05	2.89571e-05	2.71042e-05	9.50811e-06	6.16887e-06	6.37803	0.182844	6.38065	1.64209	7.06978e+06	2.46611e+08	2.46712e+08	-88.3579	0.0000000E+000	0.0000000E+000	0.0000000E+000	88.3579	0.0000000E+000	0.0000000E+000	0.0000000E+000	-88.3579	0.0000000E+000	0.0000000E+000	0.0000000E+000	-1.64209	0.0000000E+000	0.0000000E+000	0.0000000E+000	1.64209	34.8824	88.3579	-0.000659564
167.481	0.152085	0.00444349	0.15215	-1.67354	46554.7	0.000134646	-0.742257	213861	182.405	30	37	0.00504115	0.0331328	0	-10.784	4.3	0.331628	0.1797	6.38299	7.38979e-06	6.58638e-06	7.86933e-06	4.11878e-06	4.79129e-06	6.72485e-06	0.100404	0.0287254	0.642272	3.03094e-06	2.48135e-05	7.20859e-06	1.91121e-05	4.01555e-06	5.79252e-06	6.56967	0.191947	6.57248	1.67354	182405	6.24308e+06	6.24574e+06	-88.3265	0.0000000E+000	0.0000000E+000	0.0000000E+000	88.3265	0.0000000E+000	0.0000000E+000	0.0000000E+000	-88.3265	0.0000000E+000	0.0000000E+000	0.0000000E+000	-1.67354	0.0000000E+000	0.0000000E+000	0.0000000E+000	1.67354	34.2264	88.3265	-0.000207487
6816.86	0.115913	0.021177	0.117832	-10.3536	48101.3	0.000113564	-0.947576	1102.48	35.6102	31	37	0.00519617	0.0440981	0	-11.1071	4.3	0.300709	0.165203	6.27391	9.31371e-06	4.69607e-06	4.8522e-06	5.94843e-06	4.49387e-06	6.43647e-06	0.0874628	0.0471154	0.494157	4.08583e-06	3.63396e-05	5.28983e-06	5.73887e-06	5.45149e-06	4.93062e-06	8.34848	1.52524	8.48666	10.3536	35610.2	194914	198140	-79.6464	0.0000000E+000	0.0000000E+000	0.0000000E+000	79.6464	0.0000000E+000	0.0000000E+000	0.0000000E+000	-79.6464	0.0000000E+000	0.0000000E+000	0.0000000E+000	-10.3536	0.0000000E+000	0.0000000E+000	0.0000000E+000	10.3536	5.47355	79.6464	-0.000291118
0.0199946	0.225982	0.0140729	0.22642	-3.56345	49649.5	0.000129824	-0.819302	5.6562e+08	2.18505e+06	31	38	0.00508692	0.0224667	0	-11.5083	4.3	0.100594	0.129204	0.249439	8.47148e-07	4.37631e-06	9.70841e-07	2.0255e-06	4.19362e-07	3.62133e-07	0.186745	0.221146	0.739003	1.52321e-05	2.30328e-05	8.36985e-06	2.1698e-05	1.19862e-05	1.69546e-05	4.40803	0.274507	4.41657	3.56345	2.18505e+09	3.50875e+10	3.51554e+10	-86.4365	0.0000000E+000	0.0000000E+000	0.0000000E+000	86.4365	0.0000000E+000	0.0000000E+000	0.0000000E+000	-86.4365	0.0000000E+000	0.0000000E+000	0.0000000E+000	-3.56345	0.0000000E+000	0.0000000E+000	0.0000000E+000	3.56345	16.058	86.4365	-0.096358
0.813551	0.162566	0.0111392	0.162947	-3.91983	49739.5	0.000137949	-0.805021	1.75623e+07	82071.6	32	37	0.0051047	0.0313273	0	-11.5237	4.3	0.122561	0.0512341	1.20652	1.99068e-06	4.8472e-06	1.68654e-06	2.2217e-06	4.87637e-07	1.24482e-06	0.131697	0.13647	0.358638	1.30925e-05	2.43544e-05	8.80741e-06	2.73852e-05	7.09958e-06	5.46776e-06	6.12259	0.419525	6.13695	3.91983	8.20716e+07	1.19776e+09	1.20057e+09	-86.0802	0.0000000E+000	0.0000000E+000	0.0000000E+000	86.0802	0.0000000E+000	0.0000000E+000	0.0000000E+000	-86.0802	0.0000000E+000	0.0000000E+000	0.0000000E+000	-3.91983	0.0000000E+000	0.0000000E+000	0.0000000E+000	3.91983	14.5941	86.0802	-0.00466736
33.1038	0.155053	0.0024845	0.155073	-0.918003	51263.3	0.000120945	-0.825654	1.9351e+06	496.716	33	37	0.00510825	0.0329409	0	-11.8525	4.3	0.390821	0.180336	6.30913	1.39439e-05	7.18051e-06	4.92955e-06	6.91877e-06	5.47937e-06	5.77201e-06	0.114953	0.0400295	0.659427	4.53045e-06	2.8553e-05	9.49558e-06	2.05062e-05	5.71946e-06	4.86253e-06	6.44774	0.103316	6.44857	0.918003	496714	3.09991e+07	3.10031e+07	-89.082	0.0000000E+000	0.0000000E+000	0.0000000E+000	89.082	0.0000000E+000	0.0000000E+000	0.0000000E+000	-89.082	0.0000000E+000	0.0000000E+000	0.0000000E+000	-0.918003	0.0000000E+000	0.0000000E+000	0.0000000E+000	0.918003	62.4082	89.082	-0.000303321
1347.15	0.142131	0.0164788	0.143083	-6.61344	52811.4	9.86324e-05	-0.884466	7169.29	95.0945	34	37	0.00513823	0.0359109	0	-12.1625	4.3	0.285276	0.105581	6.1142	5.12209e-06	5.71635e-06	5.66156e-06	4.37575e-06	6.25977e-06	5.79278e-06	0.0363579	0.0344095	0.598748	3.26174e-06	3.98009e-06	7.44221e-06	6.20203e-06	3.58134e-06	4.3507e-06	6.94246	0.80492	6.98897	6.61344	95094.5	820193	825687	-83.3866	0.0000000E+000	0.0000000E+000	0.0000000E+000	83.3866	0.0000000E+000	0.0000000E+000	0.0000000E+000	-83.3866	0.0000000E+000	0.0000000E+000	0.0000000E+000	-6.61344	0.0000000E+000	0.0000000E+000	0.0000000E+000	6.61344	8.62503	83.3866	-0.000316271
54808.1	0.0912306	0.00399286	0.091318	-2.50604	54406.4	0.000208426	-0.260857	727.263	1.39042	35	37	0.00519976	0.0569412	0	-12.5724	4.3	0.314	0.156946	6.1573	5.04063e-06	6.23635e-06	5.60653e-06	5.45192e-06	8.30729e-06	5.60846e-06	0.112301	0.0456603	0.370199	6.1119e-06	6.21886e-05	2.68731e-06	1.091e-05	3.29654e-06	5.72569e-06	10.9403	0.478819	10.9507	2.50604	1390.42	31769	31799.4	-87.494	0.0000000E+000	0.0000000E+000	0.0000000E+000	87.494	0.0000000E+000	0.0000000E+000	0.0000000E+000	-87.494	0.0000000E+000	0.0000000E+000	0.0000000E+000	-2.50604	0.0000000E+000	0.0000000E+000	0.0000000E+000	2.50604	22.8485	87.494	-0.000148873
0.160792	0.183867	0.03111	0.186481	-9.60338	54637.7	0.000129148	-0.894625	3.18166e+07	885497	35	37	0.00509529	0.0273234	0	-12.619	4.3	0.0948642	0.0716591	0.560961	2.00694e-06	3.32038e-06	8.2243e-07	2.0328e-06	8.10669e-07	1.15199e-06	0.185485	0.192857	0.391675	2.8303e-05	3.02907e-05	1.18869e-05	2.026e-05	8.91289e-06	5.61957e-06	5.28734	0.894607	5.36249	9.60338	8.85497e+08	5.23349e+09	5.30787e+09	-80.3966	0.0000000E+000	0.0000000E+000	0.0000000E+000	80.3966	0.0000000E+000	0.0000000E+000	0.0000000E+000	-80.3966	0.0000000E+000	0.0000000E+000	0.0000000E+000	-9.60338	0.0000000E+000	0.0000000E+000	0.0000000E+000	9.60338	5.91023	80.3966	-0.00632189
6.54313	0.157341	0.0035082	0.15738	-1.2773	56019.9	0.000135644	-0.848742	6.93346e+06	3445.24	36	37	0.00510351	0.0324279	0	-12.9265	4.3	0.290384	0.129653	4.59932	4.72307e-06	8.94176e-06	5.37181e-06	4.81866e-06	4.20374e-06	3.37534e-06	0.186615	0.050683	0.499331	3.38396e-05	4.19137e-05	1.05491e-05	2.17784e-05	6.90539e-06	9.37948e-06	6.35246	0.14164	6.35404	1.2773	3.44523e+06	1.54517e+08	1.54556e+08	-88.7227	0.0000000E+000	0.0000000E+000	0.0000000E+000	88.7227	0.0000000E+000	0.0000000E+000	0.0000000E+000	-88.7227	0.0000000E+000	0.0000000E+000	0.0000000E+000	-1.2773	0.0000000E+000	0.0000000E+000	0.0000000E+000	1.2773	44.8495	88.7227	-4.33248e-05
266.278	0.15256	0.00635312	0.152693	-2.38461	57568.6	0.000130788	-0.881935	94080.2	162.868	37	37	0.00538818	0.0352877	0	-13.27	4.3	0.342615	0.118603	5.91221	5.02488e-06	8.60573e-06	3.67163e-06	1.13121e-05	4.81362e-06	5.9598e-06	0.0878986	0.0202886	0.596393	4.77131e-06	2.3193e-05	6.37306e-06	1.80214e-05	3.87598e-06	3.31152e-06	6.54343	0.27249	6.5491	2.38461	162868	3.91103e+06	3.91442e+06	-87.6154	0.0000000E+000	0.0000000E+000	0.0000000E+000	87.6154	0.0000000E+000	0.0000000E+000	0.0000000E+000	-87.6154	0.0000000E+000	0.0000000E+000	0.0000000E+000	-2.38461	0.0000000E+000	0.0000000E+000	0.0000000E+000	2.38461	24.0135	87.6154	-0.000243559
10837.3	0.108691	0.0194274	0.110413	-10.1341	59115.3	0.000231149	-0.279562	755.935	23.403	38	37	0.00516474	0.0467764	0	-13.6306	4.3	0.311063	0.154378	6.05383	3.24025e-06	3.79126e-06	6.1634e-06	7.05931e-06	7.85695e-06	7.34509e-06	0.129529	0.0320073	0.450592	4.83754e-06	2.92554e-05	5.21378e-06	6.37704e-06	3.542e-06	5.19171e-05	8.91559	1.59358	9.05688	10.1341	23403	130933	133008	-79.8659	0.0000000E+000	0.0000000E+000	0.0000000E+000	79.8659	0.0000000E+000	0.0000000E+000	0.0000000E+000	-79.8659	0.0000000E+000	0.0000000E+000	0.0000000E+000	-10.1341	0.0000000E+000	0.0000000E+000	0.0000000E+000	10.1341	5.59471	79.8659	-8.87371e-05
0.0317924	0.223211	0.0194033	0.224053	-4.96813	60149	0.000115202	-0.829503	2.58e+08	1.93496e+06	38	38	0.00539593	0.0240833	0	-13.8782	4.3	0.111008	0.0976027	0.266793	1.14469e-06	4.73475e-06	1.29372e-06	2.89128e-06	7.78018e-07	9.40638e-07	0.575484	0.0942302	0.530206	5.23592e-06	2.43129e-05	2.60206e-05	9.9013e-05	1.60657e-05	8.69891e-05	4.44646	0.386523	4.46323	4.96813	1.93496e+09	2.22593e+10	2.23432e+10	-85.0319	0.0000000E+000	0.0000000E+000	0.0000000E+000	85.0319	0.0000000E+000	0.0000000E+000	0.0000000E+000	-85.0319	0.0000000E+000	0.0000000E+000	0.0000000E+000	-4.96813	0.0000000E+000	0.0000000E+000	0.0000000E+000	4.96813	11.5037	85.0319	-0.082692
1.29325	0.161999	0.00848911	0.162222	-2.99968	60773.1	0.000124782	-0.861225	1.44969e+07	39699.3	39	37	0.00510293	0.0314565	0	-14.0522	4.3	0.125749	0.0571967	1.54801	2.36146e-06	4.86649e-06	9.96218e-07	1.93366e-06	8.78758e-07	1.95344e-06	0.134538	0.0548897	0.373535	1.22846e-05	2.92347e-05	7.53511e-06	2.38863e-05	6.95491e-06	6.52112e-06	6.15596	0.322586	6.16441	2.99968	3.96993e+07	7.57589e+08	7.58629e+08	-87.0003	0.0000000E+000	0.0000000E+000	0.0000000E+000	87.0003	0.0000000E+000	0.0000000E+000	0.0000000E+000	-87.0003	0.0000000E+000	0.0000000E+000	0.0000000E+000	-2.99968	0.0000000E+000	0.0000000E+000	0.0000000E+000	2.99968	19.0832	87.0003	-0.0015721
52.6255	0.155946	0.00280282	0.155972	-1.02966	62308.8	0.000122735	-0.766098	1.07902e+06	348.44	40	37	0.00510104	0.0327049	0	-14.4332	4.3	0.370117	0.14296	6.18376	5.15038e-06	8.22978e-06	5.93274e-06	5.95228e-06	8.27241e-06	5.60518e-06	0.107372	0.0991554	0.635416	2.7953e-06	2.18223e-05	6.61124e-06	2.5038e-05	5.64998e-06	5.32405e-06	6.41039	0.115214	6.41142	1.02966	348439	1.93869e+07	1.939e+07	-88.9703	0.0000000E+000	0.0000000E+000	0.0000000E+000	88.9703	0.0000000E+000	0.0000000E+000	0.0000000E+000	-88.9703	0.0000000E+000	0.0000000E+000	0.0000000E+000	-1.02966	0.0000000E+000	0.0000000E+000	0.0000000E+000	1.02966	55.6391	88.9703	-0.000229657
2140.69	0.136743	0.0202	0.138227	-8.40313	63856.4	0.000111513	-0.765614	3680.57	78.6024	41	37	0.00519403	0.0375762	0	-14.83	4.3	0.333504	0.129668	6.27672	3.04603e-06	7.65201e-06	7.20771e-06	7.94549e-06	4.16014e-06	5.60675e-06	0.0428209	0.0358464	0.572607	4.29273e-06	1.11293e-05	5.45728e-06	5.29568e-06	5.06398e-06	4.05043e-06	7.15683	1.05723	7.2345	8.40313	78602.4	532093	537868	-81.5969	0.0000000E+000	0.0000000E+000	0.0000000E+000	81.5969	0.0000000E+000	0.0000000E+000	0.0000000E+000	-81.5969	0.0000000E+000	0.0000000E+000	0.0000000E+000	-8.40313	0.0000000E+000	0.0000000E+000	0.0000000E+000	8.40313	6.76943	81.5969	-0.000319425
87106.6	0.0885456	-0.00232223	0.0885761	1.50231	65435.3	0.000217336	-0.166386	-786.799	-0.540806	42	37	0.00522966	0.0590415	0	-15.1666	4.3	0.32475	0.149681	6.08101	8.81288e-06	8.41979e-06	5.86689e-06	5.00883e-06	4.97613e-06	5.52123e-06	0.0829877	0.0250428	0.355081	1.19439e-05	4.66639e-05	4.63619e-06	4.76498e-06	2.72023e-06	3.97773e-06	11.2858	-0.295987	11.2897	-1.50231	-540.804	20620.7	20627.8	-91.5023	0.0000000E+000	0.0000000E+000	0.0000000E+000	91.5023	0.0000000E+000	0.0000000E+000	0.0000000E+000	-91.5023	0.0000000E+000	0.0000000E+000	0.0000000E+000	1.50231	0.0000000E+000	0.0000000E+000	0.0000000E+000	-1.50231	38.1296	88.4977	-0.000106254
0.255612	0.173988	0.0246354	0.175723	-8.0591	65600.2	0.000133064	-0.790122	2.52743e+07	496755	42	37	0.00509871	0.0290156	0	-15.2061	4.3	0.107172	0.0713895	0.691099	2.22983e-06	4.25491e-06	7.97809e-07	1.25927e-06	8.68969e-07	1.29254e-06	0.172496	0.326419	0.393125	1.90698e-05	3.15175e-05	1.37884e-05	2.51686e-05	9.83378e-06	6.34158e-06	5.63457	0.797815	5.69077	8.0591	4.96755e+08	3.50833e+09	3.54332e+09	-81.9409	0.0000000E+000	0.0000000E+000	0.0000000E+000	81.9409	0.0000000E+000	0.0000000E+000	0.0000000E+000	-81.9409	0.0000000E+000	0.0000000E+000	0.0000000E+000	-8.0591	0.0000000E+000	0.0000000E+000	0.0000000E+000	8.0591	7.0625	81.9409	-0.00633547
10.3959	0.158074	0.00295718	0.158102	-1.07174	67048.4	9.70106e-05	-0.916421	5.17704e+06	1811.18	43	37	0.0054151	0.0342507	0	-15.4923	4.3	0.290513	0.148718	5.91032	5.53944e-06	3.31369e-06	7.20617e-06	5.58277e-06	6.40725e-06	6.15836e-06	0.156171	0.19337	0.57636	9.78809e-06	3.26142e-05	1.12934e-05	3.71564e-05	5.95857e-06	2.2561e-06	6.32392	0.118305	6.32503	1.07174	1.81119e+06	9.68157e+07	9.68327e+07	-88.9283	0.0000000E+000	0.0000000E+000	0.0000000E+000	88.9283	0.0000000E+000	0.0000000E+000	0.0000000E+000	-88.9283	0.0000000E+000	0.0000000E+000	0.0000000E+000	-1.07174	0.0000000E+000	0.0000000E+000	0.0000000E+000	1.07174	53.4545	88.9283	-0.000108669
423.239	0.152367	0.00894805	0.152629	-3.36096	68628.9	0.00011498	-0.816684	42024.8	144.44	44	37	0.00499711	0.0327402	0	-15.8615	4.3	0.265527	0.194572	6.29517	3.20841e-06	5.38665e-06	4.16175e-06	1.88005e-06	8.60906e-06	5.07661e-06	0.0772149	0.0220152	0.643141	4.14209e-06	1.6987e-05	8.70536e-06	1.30794e-05	6.64188e-06	4.20858e-06	6.54056	0.384108	6.55183	3.36096	144440	2.45951e+06	2.46375e+06	-86.639	0.0000000E+000	0.0000000E+000	0.0000000E+000	86.639	0.0000000E+000	0.0000000E+000	0.0000000E+000	-86.639	0.0000000E+000	0.0000000E+000	0.0000000E+000	-3.36096	0.0000000E+000	0.0000000E+000	0.0000000E+000	3.36096	17.0279	86.639	-0.000294644
17211.6	0.102416	0.0162536	0.103698	-9.01772	70206.8	0.000218846	-0.262644	568.915	13.9768	45	37	0.00518329	0.0499844	0	-16.2574	4.3	0.268618	0.170399	6.14379	3.76071e-06	5.35545e-06	7.77306e-06	4.37215e-06	5.10865e-06	4.17115e-06	0.0933827	0.0139575	0.423687	3.38461e-06	4.52804e-05	4.99708e-06	6.32109e-06	3.63213e-06	4.06855e-06	9.52418	1.5115	9.64337	9.01772	13976.8	88069.5	89171.7	-80.9823	0.0000000E+000	0.0000000E+000	0.0000000E+000	80.9823	0.0000000E+000	0.0000000E+000	0.0000000E+000	-80.9823	0.0000000E+000	0.0000000E+000	0.0000000E+000	-9.01772	0.0000000E+000	0.0000000E+000	0.0000000E+000	9.01772	6.30114	80.9823	-0.000141888
0.0505041	0.217551	0.0256366	0.219056	-6.72087	70866.5	0.000146743	-0.761069	1.22923e+08	1.68362e+06	45	38	0.00508871	0.0232302	0	-16.4195	4.3	0.112165	0.124004	0.327899	2.04967e-06	4.52942e-06	1.66788e-06	1.72867e-06	8.3268e-07	6.60177e-07	0.302808	0.152413	0.618044	3.09716e-05	3.63676e-05	7.64431e-06	4.31181e-05	1.59798e-05	9.02549e-06	4.53368	0.534258	4.56505	6.72087	1.68362e+09	1.42871e+10	1.4386e+10	-83.2791	0.0000000E+000	0.0000000E+000	0.0000000E+000	83.2791	0.0000000E+000	0.0000000E+000	0.0000000E+000	-83.2791	0.0000000E+000	0.0000000E+000	0.0000000E+000	-6.72087	0.0000000E+000	0.0000000E+000	0.0000000E+000	6.72087	8.48592	83.2791	-0.0415323
2.05457	0.161925	0.00651645	0.162056	-2.30455	71826.2	0.000134605	-0.802685	1.18874e+07	19221.2	46	37	0.00541417	0.0334092	0	-16.5939	4.3	0.140555	0.0594006	1.90534	1.47113e-06	5.70324e-06	2.86428e-06	2.79914e-06	1.64217e-06	1.51484e-06	0.147209	0.0331324	0.34625	4.91178e-06	2.51916e-05	4.97439e-06	2.21921e-05	6.47035e-06	3.41971e-05	6.16572	0.248131	6.17071	2.30455	1.92212e+07	4.7762e+08	4.78006e+08	-87.6954	0.0000000E+000	0.0000000E+000	0.0000000E+000	87.6954	0.0000000E+000	0.0000000E+000	0.0000000E+000	-87.6954	0.0000000E+000	0.0000000E+000	0.0000000E+000	-2.30455	0.0000000E+000	0.0000000E+000	0.0000000E+000	2.30455	24.8486	87.6954	-0.00136819
83.635	0.156726	0.00350653	0.156765	-1.2817	73400.2	0.000121952	-0.80989	542694	271.525	47	37	0.00540473	0.0344766	0	-16.982	4.3	0.278117	0.133087	5.75062	5.202e-06	4.45552e-06	4.70906e-06	8.70681e-06	5.27725e-06	5.3762e-06	0.136416	0.0179962	0.604669	5.81257e-06	3.58481e-05	3.2712e-06	2.69126e-05	3.53809e-06	4.54844e-06	6.37737	0.142685	6.37896	1.2817	271525	1.21359e+07	1.2139e+07	-88.7183	0.0000000E+000	0.0000000E+000	0.0000000E+000	88.7183	0.0000000E+000	0.0000000E+000	0.0000000E+000	-88.7183	0.0000000E+000	0.0000000E+000	0.0000000E+000	-1.2817	0.0000000E+000	0.0000000E+000	0.0000000E+000	1.2817	44.6955	88.7183	-0.000232215
3403.27	0.129392	0.0223689	0.131311	-9.80818	74965.9	7.93393e-05	-0.92193	2090.64	60.6686	48	37	0.00519028	0.0395265	0	-17.298	4.3	0.273283	0.180556	6.19421	4.45543e-06	4.08634e-06	3.50679e-06	4.28025e-06	5.6483e-06	9.25765e-06	0.0608225	0.0408153	0.544732	3.92338e-06	2.12884e-05	2.64879e-06	6.08564e-06	4.25017e-06	4.64823e-06	7.50417	1.2973	7.61548	9.80818	60668.5	350935	356140	-80.1918	0.0000000E+000	0.0000000E+000	0.0000000E+000	80.1918	0.0000000E+000	0.0000000E+000	0.0000000E+000	-80.1918	0.0000000E+000	0.0000000E+000	0.0000000E+000	-9.80818	0.0000000E+000	0.0000000E+000	0.0000000E+000	9.80818	5.78446	80.1918	-0.000349605
138435	0.0856634	-0.0105584	0.0863117	7.02652	76545.2	0.000202387	-0.830232	-108.887	-1.62942	49	37	0.0051111	0.0592168	0	-17.6513	4.3	-1	-1	-1	0	0	0	0	0	0	-1	-1	-1	0	0	0	0	0	0	11.4989	-1.41729	11.5859	-7.02652	-1629.42	13220	13320	-97.0265	0.0000000E+000	0.0000000E+000	0.0000000E+000	97.0265	0.0000000E+000	0.0000000E+000	0.0000000E+000	-97.0265	0.0000000E+000	0.0000000E+000	0.0000000E+000	7.02652	0.0000000E+000	0.0000000E+000	0.0000000E+000	-7.02652	8.1133	82.9735	-0.00038505
0.406108	0.169443	0.017279	0.170322	-5.8226	76668.9	0.000109537	-0.840469	2.26809e+07	233429	49	37	0.00510163	0.0299529	0	-17.6746	4.3	0.125437	0.0628066	0.860729	2.12506e-06	4.47988e-06	1.17254e-06	2.9194e-06	1.80705e-06	1.06388e-06	0.125414	0.106313	0.351349	9.6135e-06	2.48991e-05	6.08203e-06	2.49874e-05	3.89478e-06	1.62258e-06	5.84094	0.59563	5.87123	5.8226	2.33429e+08	2.28908e+09	2.30095e+09	-84.1774	0.0000000E+000	0.0000000E+000	0.0000000E+000	84.1774	0.0000000E+000	0.0000000E+000	0.0000000E+000	-84.1774	0.0000000E+000	0.0000000E+000	0.0000000E+000	-5.8226	0.0000000E+000	0.0000000E+000	0.0000000E+000	5.8226	9.80633	84.1774	0.000576348
16.5286	0.158873	0.00270656	0.158896	-0.975993	78151.8	0.000118485	-0.748362	3.55768e+06	1032.22	50	37	0.00525838	0.0330931	0	-17.9802	4.3	0.264984	0.120768	5.9879	6.97469e-06	3.96116e-06	5.16917e-06	4.77149e-06	6.79582e-06	3.99021e-06	0.217267	0.0936478	0.584156	6.85312e-06	6.59002e-05	3.52633e-06	2.52818e-05	4.57905e-06	6.54702e-06	6.29249	0.107199	6.29341	0.975993	1.03222e+06	6.05908e+07	6.05996e+07	-89.024	0.0000000E+000	0.0000000E+000	0.0000000E+000	89.024	0.0000000E+000	0.0000000E+000	0.0000000E+000	-89.024	0.0000000E+000	0.0000000E+000	0.0000000E+000	-0.975993	0.0000000E+000	0.0000000E+000	0.0000000E+000	0.975993	58.6994	89.024	-0.000178731
672.366	0.150513	0.0124273	0.151025	-4.71999	79708.9	0.000119491	-0.778102	19047.5	128.971	51	37	0.00510595	0.0338087	0	-18.3238	4.3	0.254039	0.20297	6.3122	3.24436e-06	4.89764e-06	3.52121e-06	3.57069e-06	4.77437e-06	7.63611e-06	0.0660916	0.0269638	0.626336	3.74751e-06	1.90014e-05	6.3078e-06	5.78491e-06	5.65179e-06	3.19189e-06	6.59896	0.544852	6.62142	4.71999	128971	1.56203e+06	1.56735e+06	-85.28	0.0000000E+000	0.0000000E+000	0.0000000E+000	85.28	0.0000000E+000	0.0000000E+000	0.0000000E+000	-85.28	0.0000000E+000	0.0000000E+000	0.0000000E+000	-4.71999	0.0000000E+000	0.0000000E+000	0.0000000E+000	4.71999	12.1115	85.28	-0.000322646
27362.3	0.0971113	0.0121091	0.0978633	-7.10772	81286.9	0.000178899	-0.524635	480.346	7.35428	52	37	0.00519391	0.0530731	0	-18.639	4.3	0.264926	0.13185	6.00388	7.17551e-06	3.22041e-06	4.64697e-06	5.78331e-06	4.99895e-06	5.29569e-06	0.104583	0.039445	0.390865	4.15197e-06	5.3804e-05	1.84995e-06	1.16184e-05	4.56611e-06	1.33087e-06	10.1398	1.26437	10.2183	7.10772	7354.28	58979	59435.7	-82.8923	0.0000000E+000	0.0000000E+000	0.0000000E+000	82.8923	0.0000000E+000	0.0000000E+000	0.0000000E+000	-82.8923	0.0000000E+000	0.0000000E+000	0.0000000E+000	-7.10772	0.0000000E+000	0.0000000E+000	0.0000000E+000	7.10772	8.01968	82.8923	-0.000244615
0.0802383	0.207541	0.031006	0.209845	-8.49697	81699.8	0.000112207	-0.886013	6.39723e+07	1.39666e+06	52	37	0.00539938	0.0257304	0	-18.7491	4.3	0.107674	0.113958	0.385635	1.26013e-06	4.56373e-06	1.35448e-06	2.665e-06	9.18044e-07	8.37094e-07	0.228325	0.372284	0.4271	2.50557e-05	3.60892e-05	1.77576e-05	2.73925e-05	9.80475e-06	7.50832e-06	4.71312	0.704127	4.76543	8.49697	1.39666e+09	9.34862e+09	9.45237e+09	-81.503	0.0000000E+000	0.0000000E+000	0.0000000E+000	81.503	0.0000000E+000	0.0000000E+000	0.0000000E+000	-81.503	0.0000000E+000	0.0000000E+000	0.0000000E+000	-8.49697	0.0000000E+000	0.0000000E+000	0.0000000E+000	8.49697	6.69357	81.503	-0.0197486
3.26541	0.161155	0.00513254	0.161236	-1.82417	82933.8	0.000105067	-0.918412	9.4962e+06	9622.51	53	37	0.00541307	0.0335722	0	-19.0525	4.3	0.165802	0.0660514	2.49432	3.46672e-06	6.04183e-06	1.69148e-06	3.66912e-06	1.9004e-06	2.42161e-06	0.146136	0.0941738	0.39002	9.38267e-06	2.42573e-05	1.19524e-05	3.83072e-05	6.67107e-06	3.6288e-06	6.19893	0.197427	6.20207	1.82417	9.62253e+06	3.02134e+08	3.02287e+08	-88.1758	0.0000000E+000	0.0000000E+000	0.0000000E+000	88.1758	0.0000000E+000	0.0000000E+000	0.0000000E+000	-88.1758	0.0000000E+000	0.0000000E+000	0.0000000E+000	-1.82417	0.0000000E+000	0.0000000E+000	0.0000000E+000	1.82417	31.3986	88.1758	0.000114825
132.916	0.156363	0.00458991	0.156431	-1.68139	84511.7	0.000137815	-0.728689	260878	224.596	54	37	0.00537707	0.0343735	0	-19.4146	4.3	0.289933	0.114494	6.01694	5.30173e-06	4.57709e-06	6.5435e-06	2.72713e-06	1.00809e-05	4.82217e-06	0.102051	0.0272683	0.614062	4.45855e-06	2.65016e-05	3.5764e-06	2.13017e-05	4.00634e-06	3.82203e-06	6.38985	0.187569	6.39261	1.68139	224597	7.65127e+06	7.65456e+06	-88.3186	0.0000000E+000	0.0000000E+000	0.0000000E+000	88.3186	0.0000000E+000	0.0000000E+000	0.0000000E+000	-88.3186	0.0000000E+000	0.0000000E+000	0.0000000E+000	-1.68139	0.0000000E+000	0.0000000E+000	0.0000000E+000	1.68139	34.0667	88.3186	-0.000226028
5406.63	0.12059	0.0225812	0.122686	-10.6061	86077	9.24623e-05	-0.780894	1303.61	44.162	55	37	0.00518281	0.0422445	0	-19.7943	4.3	0.320038	0.197491	6.16938	5.72809e-06	6.15366e-06	5.08206e-06	6.65634e-06	6.42703e-06	7.24063e-06	0.0750845	0.0906616	0.509004	3.31491e-06	2.89509e-05	8.22878e-06	5.85182e-06	5.78926e-06	3.2356e-06	8.01162	1.50022	8.15087	10.6061	44162	235838	239937	-79.3939	0.0000000E+000	0.0000000E+000	0.0000000E+000	79.3939	0.0000000E+000	0.0000000E+000	0.0000000E+000	-79.3939	0.0000000E+000	0.0000000E+000	0.0000000E+000	-10.6061	0.0000000E+000	0.0000000E+000	0.0000000E+000	10.6061	5.3403	79.3939	-0.000342273
220003	0.0812751	-0.0224856	0.0843282	15.4646	87643.6	0.000215826	2.45754	-32.1728	-2.28744	56	37	0.00299668	0.0355359	0	-20.1909	4.3	-1	-1	-1	0	0	0	0	0	0	-1	-1	-1	0	0	0	0	0	0	11.4291	-3.16197	11.8584	-15.4646	-2287.44	8268.07	8578.66	-105.465	0.0000000E+000	0.0000000E+000	0.0000000E+000	105.465	0.0000000E+000	0.0000000E+000	0.0000000E+000	-105.465	0.0000000E+000	0.0000000E+000	0.0000000E+000	15.4646	0.0000000E+000	0.0000000E+000	0.0000000E+000	-15.4646	3.61455	74.5354	0.00181323
0.645874	0.167229	0.0125935	0.167703	-4.30664	87742	0.000113429	-0.866232	1.95671e+07	110342	56	37	0.00510188	0.0304222	0	-20.2121	4.3	0.136608	0.076716	1.10356	2.22589e-06	4.48531e-06	2.58334e-06	2.80369e-06	1.53532e-06	2.06127e-06	0.1416	0.119247	0.365354	1.28599e-05	2.50197e-05	1.4795e-05	2.4627e-05	5.08553e-06	6.316e-06	5.9461	0.447783	5.96294	4.30664	1.10342e+08	1.46523e+09	1.46937e+09	-85.6934	0.0000000E+000	0.0000000E+000	0.0000000E+000	85.6934	0.0000000E+000	0.0000000E+000	0.0000000E+000	-85.6934	0.0000000E+000	0.0000000E+000	0.0000000E+000	-4.30664	0.0000000E+000	0.0000000E+000	0.0000000E+000	4.30664	13.279	85.6934	-0.00341263
26.2693	0.158749	0.00257639	0.15877	-0.929791	89256.8	0.000125885	-0.903654	2.35158e+06	619.222	57	37	0.00525698	0.0331107	0	-20.5149	4.3	0.285845	0.182534	5.94006	5.21537e-06	5.58786e-06	5.08969e-06	4.79379e-06	5.67606e-06	6.98089e-06	0.150019	0.0329231	0.617243	2.74285e-05	2.66686e-05	6.35758e-06	2.92902e-05	6.68785e-06	5.80448e-06	6.29759	0.102206	6.29842	0.929791	619224	3.81545e+07	3.81595e+07	-89.0702	0.0000000E+000	0.0000000E+000	0.0000000E+000	89.0702	0.0000000E+000	0.0000000E+000	0.0000000E+000	-89.0702	0.0000000E+000	0.0000000E+000	0.0000000E+000	-0.929791	0.0000000E+000	0.0000000E+000	0.0000000E+000	0.929791	61.6168	89.0702	-0.00030294
1068.29	0.146955	0.0160543	0.14783	-6.23462	90813.4	7.65991e-05	-0.878417	9279.78	109.446	58	37	0.00511876	0.0346261	0	-20.8527	4.3	0.325829	0.174727	6.07717	8.48923e-06	6.25903e-06	3.84339e-06	5.89045e-06	7.98822e-06	4.34257e-06	0.0359287	0.0948404	0.616052	2.60282e-06	7.45713e-06	4.61753e-06	5.82796e-06	3.89451e-06	3.12171e-06	6.72454	0.73463	6.76454	6.23462	109445	1.00182e+06	1.00778e+06	-83.7654	0.0000000E+000	0.0000000E+000	0.0000000E+000	83.7654	0.0000000E+000	0.0000000E+000	0.0000000E+000	-83.7654	0.0000000E+000	0.0000000E+000	0.0000000E+000	-6.23462	0.0000000E+000	0.0000000E+000	0.0000000E+000	6.23462	9.15363	83.7654	-0.00027651
43479.1	0.0929955	0.00704712	0.0932622	-4.33354	92368.4	0.000205611	-0.454899	519.431	2.96579	59	37	0.00520022	0.0557592	0	-21.1574	4.3	0.295558	0.154013	6.18454	5.40331e-06	5.92564e-06	6.81798e-06	6.9255e-06	5.4842e-06	4.36549e-06	0.10996	0.0374805	0.37957	6.43332e-06	5.98991e-05	3.47852e-06	8.58676e-06	3.64052e-06	4.82384e-06	10.6918	0.810216	10.7225	4.33354	2965.79	39137.3	39249.5	-85.6665	0.0000000E+000	0.0000000E+000	0.0000000E+000	85.6665	0.0000000E+000	0.0000000E+000	0.0000000E+000	-85.6665	0.0000000E+000	0.0000000E+000	0.0000000E+000	-4.33354	0.0000000E+000	0.0000000E+000	0.0000000E+000	4.33354	13.1962	85.6665	-0.000154743
0.127525	0.194392	0.0325638	0.197101	-9.50966	92646.5	0.000137002	-0.75204	3.83257e+07	1.04612e+06	59	37	0.00540275	0.0274111	0	-21.229	4.3	0.10563	0.0455241	0.470725	1.4233e-06	4.78114e-06	9.74386e-07	1.77415e-06	7.38196e-07	6.86921e-07	0.15888	0.45866	0.4011	2.28992e-05	2.12911e-05	1.00282e-05	2.18581e-05	7.52958e-06	5.06309e-06	5.00383	0.83822	5.07355	9.50966	1.04612e+09	6.24493e+09	6.33194e+09	-80.4903	0.0000000E+000	0.0000000E+000	0.0000000E+000	80.4903	0.0000000E+000	0.0000000E+000	0.0000000E+000	-80.4903	0.0000000E+000	0.0000000E+000	0.0000000E+000	-9.50966	0.0000000E+000	0.0000000E+000	0.0000000E+000	9.50966	5.96958	80.4903	-0.0170977
5.19276	0.16141	0.00408158	0.161461	-1.44853	94000.5	0.000131732	-0.815318	7.5092e+06	4798.58	60	37	0.0054119	0.0335182	0	-21.5726	4.3	0.162163	0.0657775	3.39203	3.2583e-06	4.22023e-06	3.20825e-06	3.77855e-06	2.05384e-06	3.80806e-06	0.221524	0.043806	0.401858	1.16045e-05	6.74612e-05	7.49296e-06	2.58876e-05	5.19002e-06	3.12297e-06	6.19145	0.156564	6.19343	1.44853	4.79858e+06	1.89764e+08	1.89825e+08	-88.5515	0.0000000E+000	0.0000000E+000	0.0000000E+000	88.5515	0.0000000E+000	0.0000000E+000	0.0000000E+000	-88.5515	0.0000000E+000	0.0000000E+000	0.0000000E+000	-1.44853	0.0000000E+000	0.0000000E+000	0.0000000E+000	1.44853	39.5459	88.5515	-0.000134147
0.0199946	0.23083	0.014403	0.231279	-3.57042	95529.4	0.000126022	-0.776891	5.52657e+08	2.14332e+06	60	38	0.00539507	0.0233271	0	-21.8801	4.3	0.121776	0.134126	0.230154	1.8131e-06	5.52693e-06	7.60544e-07	2.54647e-06	6.83836e-07	1.0474e-06	0.170573	0.197342	0.643787	8.14807e-06	1.97962e-05	4.76987e-06	2.41725e-05	1.18352e-05	1.69582e-05	4.31539	0.269265	4.32378	3.57042	2.14332e+09	3.43501e+10	3.44169e+10	-86.4296	0.0000000E+000	0.0000000E+000	0.0000000E+000	86.4296	0.0000000E+000	0.0000000E+000	0.0000000E+000	-86.4296	0.0000000E+000	0.0000000E+000	0.0000000E+000	-3.57042	0.0000000E+000	0.0000000E+000	0.0000000E+000	3.57042	16.0266	86.4296	-0.0328637