File: Python/Experiments/IRFB/240507-Cloth-1p5M_FeCl2FeCl3-1M_HCl/Data/240507-EIS-Cloth-1p5M_FeCl2FeCl3-1M_HCl-Wamup_10mLmin-4xFlowRate-20mHz_10ppd_07_PEIS_C15.mpt
EC-Lab ASCII FILE
Nb header lines : 75

Potentio Electrochemical Impedance Spectroscopy

Run on channel : 15 (SN 19485)
User :
Electrode connection : standard
Potential control : Ewe
Ewe ctrl range : min = -1.00 V, max = 1.00 V
Ewe,I filtering : 50 kHz
Safety Limits :
	Do not start on E overload
Channel : Grounded
Acquisition started on : 05/08/2024 12:03:59.706
Loaded Setting File :  C:\Data\mathias\IRFB\240503-EIS-Felt-1p5M_FeCl2FeCl3-1M_HCl-Wamup_10mLmin-4xFlowRate-20mHz_10ppd.mps
Saved on :
	File : 240507-EIS-Cloth-1p5M_FeCl2FeCl3-1M_HCl-Wamup_10mLmin-4xFlowRate-20mHz_10ppd_07_PEIS_C15.mpr
	Directory : C:\Data\mathias\IRFB\
	Host : 192.168.0.1
Device : VMP-300 (SN 0826)
Address : USB
EC-Lab for windows v11.52 (software)
Internet server v11.52 (firmware)
Command interpretor v11.52 (firmware)
Electrode material :
Initial state :
Electrolyte :
Comments :
Cable : special
Electrode surface area : 0.001 cm²
Characteristic mass : 0.001 g
Equivalent Weight : 0.000 g/eq.
Density : 0.000 g/cm3
Volume (V) : 0.001 cm³
Record EIS quality indicators
Cycle Definition : Charge/Discharge alternance
External device configuration :
   device type : Other
   device name : Other
   Analog OUT :
      mode : E/V
      unit : KNF Pump/ml/min
      max : 120.000 at 5.000 V
      min : 0.000 at 0.000 V
      current : 4.300
Mode                Single sine
E (V)               0.0000
vs.                 Eoc
tE (h:m:s)          0:00:0.0000
record              0
dI                  0.000
unit dI             mA
dt (s)              0.000
fi                  220.000
unit fi             kHz
ff                  20.000
unit ff             mHz
Nd                  10
Points              per decade
spacing             Logarithmic
Va (mV)             5.0
pw                  0.10
Na                  3
corr                0
E range min (V)     -1.000
E range max (V)     1.000
I Range             Auto
Bandwidth           8
nc cycles           2
goto Ns'            0
nr cycles           0
inc. cycle          0

freq/Hz	Re(Z)/Ohm	-Im(Z)/Ohm	|Z|/Ohm	Phase(Z)/deg	time/s	<Ewe>/V	<I>/mA	Cs/µF	Cp/µF	cycle number	I Range	|Ewe|/V	|I|/A	Ns	(Q-Qo)/mA.h	Analog OUT/V	THD Ewe/%	NSD Ewe/%	NSR Ewe/%	|Ewe h2|/V	|Ewe h3|/V	|Ewe h4|/V	|Ewe h5|/V	|Ewe h6|/V	|Ewe h7|/V	THD I/%	NSD I/%	NSR I/%	|I h2|/A	|I h3|/A	|I h4|/A	|I h5|/A	|I h6|/A	|I h7|/A	Re(Y)/Ohm-1	Im(Y)/Ohm-1	|Y|/Ohm-1	Phase(Y)/deg	Re(C)/nF	Im(C)/nF	|C|/nF	Phase(C)/deg	Re(M)	Im(M)	|M|	Phase(M)/deg	Re(Permittivity)	Im(Permittivity)	|Permittivity|	Phase(Permittivity)/deg	Re(Resistivity)/Ohm.cm	Im(Resistivity)/Ohm.cm	|Resistivity|/Ohm.cm	Phase(Resistivity)/deg	Re(Conductivity)/mS/cm	Im(Conductivity)/mS/cm	|Conductivity|/mS/cm	Phase(Conductivity)/deg	Tan(Delta)	Loss Angle(Delta)/deg	dq/mA.h
220003	0.0809298	-0.0223168	0.0839504	15.4164	106650	0.000214223	-0.260188	-32.4161	-2.29075	1	37	0.00298617	0.0355707	0	-0.000135302	10.8	-1	-1	-1	0	0	0	0	0	0	-1	-1	-1	0	0	0	0	0	0	11.4832	-3.16655	11.9118	-15.4164	-2290.75	8307.21	8617.27	-105.416	0.0000000E+000	0.0000000E+000	0.0000000E+000	105.416	0.0000000E+000	0.0000000E+000	0.0000000E+000	-105.416	0.0000000E+000	0.0000000E+000	0.0000000E+000	15.4164	0.0000000E+000	0.0000000E+000	0.0000000E+000	-15.4164	3.62641	74.5835	-0.000135302
109811	0.086846	-0.00590629	0.0870466	3.89063	106654	0.000204418	-0.329068	-245.391	-1.12976	1	37	0.005228	0.0600598	0	-0.000465371	10.8	-1	-1	-1	0	0	0	0	0	0	-1	-1	-1	0	0	0	0	0	0	11.4616	-0.779492	11.4881	-3.89063	-1129.76	16611.9	16650.3	-93.8906	0.0000000E+000	0.0000000E+000	0.0000000E+000	93.8906	0.0000000E+000	0.0000000E+000	0.0000000E+000	-93.8906	0.0000000E+000	0.0000000E+000	0.0000000E+000	3.89063	0.0000000E+000	0.0000000E+000	0.0000000E+000	-3.89063	14.704	86.1094	-1.03534e-05
54808.1	0.0910048	0.00415487	0.0910995	-2.61405	106657	0.000210794	-0.340718	698.905	1.45378	1	37	0.00521257	0.0572184	0	-0.00102718	10.8	0.322106	0.188201	5.97206	6.47897e-06	5.84128e-06	1.03578e-05	5.15018e-06	4.52197e-06	3.59505e-06	0.117137	0.0483293	0.366783	6.70943e-06	6.5982e-05	2.3099e-06	6.09819e-06	2.92676e-06	4.77718e-06	10.9656	0.500639	10.977	2.61405	1453.78	31842.5	31875.7	-87.3859	0.0000000E+000	0.0000000E+000	0.0000000E+000	87.3859	0.0000000E+000	0.0000000E+000	0.0000000E+000	-87.3859	0.0000000E+000	0.0000000E+000	0.0000000E+000	-2.61405	0.0000000E+000	0.0000000E+000	0.0000000E+000	2.61405	21.9032	87.3859	-0.000148368
27362.3	0.0968259	0.0121747	0.0975884	-7.16667	106661	0.000223395	-0.286448	477.757	7.43586	1	37	0.00520212	0.0533067	0	-0.00141217	10.8	0.333571	0.14511	6.00242	5.53739e-06	7.29324e-06	1.03486e-05	3.85674e-06	4.5276e-06	5.7327e-06	0.116569	0.0368111	0.386056	5.2718e-06	6.10445e-05	1.9886e-06	7.16559e-06	4.86211e-06	4.40809e-06	10.1671	1.27839	10.2471	7.16667	7435.86	59137.5	59603.2	-82.8333	0.0000000E+000	0.0000000E+000	0.0000000E+000	82.8333	0.0000000E+000	0.0000000E+000	0.0000000E+000	-82.8333	0.0000000E+000	0.0000000E+000	0.0000000E+000	-7.16667	0.0000000E+000	0.0000000E+000	0.0000000E+000	7.16667	7.95301	82.8333	-4.41576e-05
13658	0.105222	0.0183832	0.106816	-9.91002	106664	0.000228465	-0.245801	633.89	18.7751	1	37	0.00517129	0.048413	0	-0.00148798	10.8	0.32177	0.201691	6.04092	3.63484e-06	7.87389e-06	5.06378e-06	7.28703e-06	6.14294e-06	7.7114e-06	0.0939197	0.0100183	0.42909	5.17284e-06	4.44396e-05	3.27841e-06	3.87165e-06	4.05344e-06	4.00927e-06	9.22221	1.6112	9.3619	9.91002	18775.1	107466	109093	-80.09	0.0000000E+000	0.0000000E+000	0.0000000E+000	80.09	0.0000000E+000	0.0000000E+000	0.0000000E+000	-80.09	0.0000000E+000	0.0000000E+000	0.0000000E+000	-9.91002	0.0000000E+000	0.0000000E+000	0.0000000E+000	9.91002	5.72383	80.09	-8.73945e-05
6816.86	0.116451	0.0223824	0.118583	-10.8798	106668	9.64141e-05	-0.910596	1043.11	37.162	1	37	0.00519652	0.0438218	0	-0.00218613	10.8	0.241001	0.101007	6.02906	4.60909e-06	5.26633e-06	5.25956e-06	4.60552e-06	4.70387e-06	2.98566e-06	0.0854551	0.0507026	0.475211	2.42514e-06	3.57718e-05	6.50512e-06	6.14157e-06	4.34463e-06	2.08668e-06	8.28134	1.59171	8.43292	10.8798	37162	193347	196886	-79.1202	0.0000000E+000	0.0000000E+000	0.0000000E+000	79.1202	0.0000000E+000	0.0000000E+000	0.0000000E+000	-79.1202	0.0000000E+000	0.0000000E+000	0.0000000E+000	-10.8798	0.0000000E+000	0.0000000E+000	0.0000000E+000	10.8798	5.2028	79.1202	-0.000275771
3403.27	0.1293	0.0231158	0.13135	-10.1361	106672	0.000101298	-0.859694	2023.09	62.6575	1	37	0.00516726	0.0393397	0	-0.00306296	10.8	0.293804	0.183817	6.15033	4.11739e-06	9.47218e-06	3.09439e-06	6.61005e-06	3.94526e-06	5.87284e-06	0.0543576	0.0367249	0.526026	3.13981e-06	1.71968e-05	5.27536e-06	7.42438e-06	5.63666e-06	4.04839e-06	7.49443	1.33983	7.61325	10.1361	62657.5	350480	356036	-79.8639	0.0000000E+000	0.0000000E+000	0.0000000E+000	79.8639	0.0000000E+000	0.0000000E+000	0.0000000E+000	-79.8639	0.0000000E+000	0.0000000E+000	0.0000000E+000	-10.1361	0.0000000E+000	0.0000000E+000	0.0000000E+000	10.1361	5.59358	79.8639	-0.000276126
1698.37	0.141324	0.0200111	0.142734	-8.05938	106676	0.000108885	-0.815976	4682.92	92.0468	1	37	0.00510863	0.0357914	0	-0.003902	10.8	0.282684	0.124729	6.08014	4.81606e-06	6.59221e-06	7.40928e-06	6.2783e-06	3.87166e-06	3.3934e-06	0.0278097	0.0695157	0.578449	3.46673e-06	5.50365e-06	4.93018e-06	1.00372e-06	1.85265e-06	3.37747e-06	6.93687	0.982246	7.00606	8.05938	92046.8	650058	656542	-81.9406	0.0000000E+000	0.0000000E+000	0.0000000E+000	81.9406	0.0000000E+000	0.0000000E+000	0.0000000E+000	-81.9406	0.0000000E+000	0.0000000E+000	0.0000000E+000	-8.05938	0.0000000E+000	0.0000000E+000	0.0000000E+000	8.05938	7.06225	81.9406	-0.000218805
847.556	0.14967	0.014866	0.150406	-5.67231	106680	9.66565e-05	-0.884317	12631.6	123.4	1	37	0.00501683	0.0333552	0	-0.00480511	10.8	0.333637	0.163848	6.1991	1.02225e-05	3.08303e-06	4.78304e-06	6.0407e-06	5.52345e-06	5.57003e-06	0.0473621	0.096359	0.633972	5.29196e-06	7.20664e-06	8.75384e-06	7.52069e-06	2.53692e-06	4.38086e-06	6.6161	0.657146	6.64866	5.67231	123400	1.24238e+06	1.24849e+06	-84.3277	0.0000000E+000	0.0000000E+000	0.0000000E+000	84.3277	0.0000000E+000	0.0000000E+000	0.0000000E+000	-84.3277	0.0000000E+000	0.0000000E+000	0.0000000E+000	-5.67231	0.0000000E+000	0.0000000E+000	0.0000000E+000	5.67231	10.0679	84.3277	-0.000354558
423.239	0.154449	0.00955943	0.154745	-3.54173	106683	0.000134236	-0.820685	39337.1	150.119	1	37	0.00501353	0.0323987	0	-0.00576465	10.8	0.239344	0.137255	6.21503	5.47346e-06	3.06895e-06	4.19575e-06	3.972e-06	4.88165e-06	6.19606e-06	0.0708681	0.021696	0.642993	4.71127e-06	1.6269e-05	6.02357e-06	1.30306e-05	3.73614e-06	3.80363e-06	6.44992	0.39921	6.46226	3.54173	150119	2.42543e+06	2.43007e+06	-86.4583	0.0000000E+000	0.0000000E+000	0.0000000E+000	86.4583	0.0000000E+000	0.0000000E+000	0.0000000E+000	-86.4583	0.0000000E+000	0.0000000E+000	0.0000000E+000	-3.54173	0.0000000E+000	0.0000000E+000	0.0000000E+000	3.54173	16.1567	86.4583	-0.000340309
211.149	0.156948	0.00594945	0.157061	-2.17088	106687	0.000137983	-0.826622	126694	181.791	1	37	0.00531882	0.0338647	0	-0.0065357	10.8	0.266404	0.203906	5.89797	4.68476e-06	7.55716e-06	4.6896e-06	3.9541e-06	5.20959e-06	5.54084e-06	0.0940945	0.0194337	0.614808	4.2574e-06	2.47243e-05	6.11634e-06	1.66589e-05	5.20401e-06	4.5281e-06	6.36239	0.241179	6.36696	2.17088	181791	4.7957e+06	4.79914e+06	-87.8291	0.0000000E+000	0.0000000E+000	0.0000000E+000	87.8291	0.0000000E+000	0.0000000E+000	0.0000000E+000	-87.8291	0.0000000E+000	0.0000000E+000	0.0000000E+000	-2.17088	0.0000000E+000	0.0000000E+000	0.0000000E+000	2.17088	26.3803	87.8291	-0.000270842
105.438	0.15808	0.00418545	0.158136	-1.51665	106690	0.000127936	-0.837565	360645	252.641	1	37	0.00539156	0.0340945	0	-0.00737241	10.8	0.365257	0.225837	5.74583	7.02288e-06	4.32061e-06	4.90776e-06	8.7335e-06	8.42961e-06	7.32548e-06	0.109624	0.0203379	0.616292	4.30557e-06	2.6882e-05	7.03407e-06	2.26758e-05	6.19167e-06	5.86227e-06	6.32147	0.167372	6.32368	1.51665	252640	9.542e+06	9.54534e+06	-88.4834	0.0000000E+000	0.0000000E+000	0.0000000E+000	88.4834	0.0000000E+000	0.0000000E+000	0.0000000E+000	-88.4834	0.0000000E+000	0.0000000E+000	0.0000000E+000	-1.51665	0.0000000E+000	0.0000000E+000	0.0000000E+000	1.51665	37.769	88.4834	-0.000280909
52.6255	0.159091	0.00321292	0.159124	-1.15696	106693	0.000125438	-0.85694	941290	383.755	1	37	0.00541334	0.0340197	0	-0.00823458	10.8	0.387451	0.12954	5.78194	7.55076e-06	7.02754e-06	8.63303e-06	8.34277e-06	8.35936e-06	7.69657e-06	0.124268	0.0895594	0.60399	6.20389e-06	3.0746e-05	4.69326e-06	2.57245e-05	6.34736e-06	4.82213e-06	6.28314	0.126891	6.28442	1.15696	383756	1.9002e+07	1.90059e+07	-88.843	0.0000000E+000	0.0000000E+000	0.0000000E+000	88.843	0.0000000E+000	0.0000000E+000	0.0000000E+000	-88.843	0.0000000E+000	0.0000000E+000	0.0000000E+000	-1.15696	0.0000000E+000	0.0000000E+000	0.0000000E+000	1.15696	49.516	88.843	-0.000256959
26.2693	0.159897	0.00260891	0.159918	-0.934768	106697	0.000116826	-0.889435	2.32226e+06	618.067	1	37	0.00541779	0.0338786	0	-0.00901723	10.8	0.294182	0.237213	5.76991	5.32007e-06	7.76742e-06	6.43857e-06	6.65201e-06	6.36974e-06	3.36222e-06	0.14989	0.0318898	0.613766	2.86357e-05	2.63524e-05	6.17239e-06	2.66368e-05	1.29903e-05	8.76505e-06	6.25237	0.102015	6.2532	0.934768	618068	3.78805e+07	3.78856e+07	-89.0652	0.0000000E+000	0.0000000E+000	0.0000000E+000	89.0652	0.0000000E+000	0.0000000E+000	0.0000000E+000	-89.0652	0.0000000E+000	0.0000000E+000	0.0000000E+000	-0.934768	0.0000000E+000	0.0000000E+000	0.0000000E+000	0.934768	61.2887	89.0652	-0.000167079
13.1083	0.160559	0.00265547	0.160581	-0.947523	106700	0.00012705	-0.914774	4.57229e+06	1250.34	1	37	0.00541472	0.0337195	0	-0.00988765	10.8	0.334985	0.0994056	3.95661	5.71421e-06	1.15761e-05	4.1394e-06	7.72148e-06	5.90339e-06	3.84658e-06	0.140896	0.131218	0.450731	6.70536e-06	2.92299e-05	2.61538e-05	2.46408e-05	4.89008e-06	4.40558e-06	6.22653	0.10298	6.22738	0.947523	1.25034e+06	7.55999e+07	7.56103e+07	-89.0525	0.0000000E+000	0.0000000E+000	0.0000000E+000	89.0525	0.0000000E+000	0.0000000E+000	0.0000000E+000	-89.0525	0.0000000E+000	0.0000000E+000	0.0000000E+000	-0.947523	0.0000000E+000	0.0000000E+000	0.0000000E+000	0.947523	60.4635	89.0525	-0.000139123
6.54313	0.161558	0.0035094	0.161596	-1.24439	106704	0.000121626	-0.902258	6.9311e+06	3268.92	1	37	0.00541238	0.0334933	0	-0.0108967	10.8	0.217638	0.127398	4.21389	5.21959e-06	4.91933e-06	4.37264e-06	3.24155e-06	6.12963e-06	1.47214e-06	0.193271	0.0708393	0.473922	3.80777e-05	3.77746e-05	8.51068e-06	3.13878e-05	1.0105e-05	8.49461e-06	6.1868	0.134391	6.18826	1.24439	3.26892e+06	1.50488e+08	1.50523e+08	-88.7556	0.0000000E+000	0.0000000E+000	0.0000000E+000	88.7556	0.0000000E+000	0.0000000E+000	0.0000000E+000	-88.7556	0.0000000E+000	0.0000000E+000	0.0000000E+000	-1.24439	0.0000000E+000	0.0000000E+000	0.0000000E+000	1.24439	46.0359	88.7556	-0.000544724
3.26541	0.162857	0.00455631	0.16292	-1.60257	106709	0.000125423	-0.898048	1.06972e+07	8366.54	1	37	0.00541537	0.0332394	0	-0.0121534	10.8	0.157176	0.0770048	2.44922	2.64408e-06	4.78125e-06	3.13941e-06	2.93599e-06	3.18921e-06	2.76766e-06	0.111814	0.0345476	0.388354	8.40428e-06	2.86958e-05	1.58374e-05	1.15611e-05	6.80525e-06	4.78769e-06	6.13557	0.171658	6.13797	1.60257	8.36652e+06	2.99046e+08	2.99163e+08	-88.3974	0.0000000E+000	0.0000000E+000	0.0000000E+000	88.3974	0.0000000E+000	0.0000000E+000	0.0000000E+000	-88.3974	0.0000000E+000	0.0000000E+000	0.0000000E+000	-1.60257	0.0000000E+000	0.0000000E+000	0.0000000E+000	1.60257	35.743	88.3974	-3.34448e-05
1.63084	0.164586	0.00647084	0.164713	-2.25148	106720	0.000121356	-0.902603	1.50817e+07	23276.4	1	37	0.00541168	0.0328552	0	-0.0157453	10.8	0.113492	0.0526408	1.62182	1.95548e-06	4.3938e-06	1.80801e-06	2.09663e-06	7.43609e-07	1.82399e-06	0.120864	0.0539338	0.350464	5.17747e-06	2.97687e-05	7.52076e-06	2.36209e-05	2.7743e-06	4.31484e-06	6.06649	0.23851	6.07118	2.25148	2.32764e+07	5.92035e+08	5.92492e+08	-87.7485	0.0000000E+000	0.0000000E+000	0.0000000E+000	87.7485	0.0000000E+000	0.0000000E+000	0.0000000E+000	-87.7485	0.0000000E+000	0.0000000E+000	0.0000000E+000	-2.25148	0.0000000E+000	0.0000000E+000	0.0000000E+000	2.25148	25.435	87.7485	-0.00222105
0.813551	0.166848	0.00959655	0.167124	-3.29183	106739	0.000116486	-0.890781	2.03854e+07	67215.9	1	37	0.00541248	0.032386	0	-0.0186108	10.8	0.128985	0.0907676	1.13883	1.75561e-06	4.73304e-06	1.27674e-06	3.13424e-06	1.16802e-06	1.59208e-06	0.121782	0.0692432	0.334959	1.03475e-05	2.58838e-05	6.89123e-06	2.5585e-05	3.61569e-06	3.76607e-06	5.9737	0.343587	5.98357	3.29183	6.72159e+07	1.16863e+09	1.17057e+09	-86.7082	0.0000000E+000	0.0000000E+000	0.0000000E+000	86.7082	0.0000000E+000	0.0000000E+000	0.0000000E+000	-86.7082	0.0000000E+000	0.0000000E+000	0.0000000E+000	-3.29183	0.0000000E+000	0.0000000E+000	0.0000000E+000	3.29183	17.3863	86.7082	-0.000470905
0.406108	0.173227	0.0152593	0.173897	-5.0341	106776	0.000119138	-0.890553	2.5683e+07	197754	1	37	0.0054099	0.0311097	0	-0.0256641	10.8	0.114068	0.0559153	0.804127	1.19378e-06	4.9926e-06	1.37524e-06	1.88882e-06	1.46493e-06	1.79456e-06	0.138872	0.0944682	0.346716	1.22584e-05	2.11074e-05	1.00755e-05	3.00418e-05	4.13126e-06	4.66096e-06	5.72834	0.5046	5.75052	5.0341	1.97754e+08	2.24495e+09	2.25364e+09	-84.9659	0.0000000E+000	0.0000000E+000	0.0000000E+000	84.9659	0.0000000E+000	0.0000000E+000	0.0000000E+000	-84.9659	0.0000000E+000	0.0000000E+000	0.0000000E+000	-5.0341	0.0000000E+000	0.0000000E+000	0.0000000E+000	5.0341	11.3522	84.9659	4.7369e-05
0.202719	0.184002	0.0158945	0.184687	-4.93709	106850	0.000150012	-0.869844	4.93944e+07	365846	1	37	0.00540543	0.029268	0	-0.0526566	10.8	0.122944	0.0752667	0.576286	1.41347e-06	5.29539e-06	1.75382e-06	2.75323e-06	7.95382e-07	1.12851e-06	0.125478	0.105853	0.348789	8.18726e-06	2.68877e-05	2.31731e-06	2.18384e-05	5.0864e-06	2.97181e-06	5.39447	0.465987	5.41455	4.93709	3.65846e+08	4.2352e+09	4.25097e+09	-85.0629	0.0000000E+000	0.0000000E+000	0.0000000E+000	85.0629	0.0000000E+000	0.0000000E+000	0.0000000E+000	-85.0629	0.0000000E+000	0.0000000E+000	0.0000000E+000	-4.93709	0.0000000E+000	0.0000000E+000	0.0000000E+000	4.93709	11.5764	85.0629	-0.00898013
0.101164	0.191795	0.0119608	0.192168	-3.56849	106997	0.000143569	-0.868198	1.31532e+08	509559	1	37	0.00540442	0.0281234	0	-0.0696103	10.8	0.110488	0.0567001	0.417357	1.41986e-06	4.16744e-06	9.39201e-07	3.33085e-06	9.98681e-07	7.13146e-07	0.146589	0.101164	0.325322	1.13058e-05	2.23201e-05	7.03305e-06	2.8826e-05	6.02982e-06	6.2085e-06	5.19369	0.323892	5.20378	3.56849	5.09559e+08	8.17091e+09	8.18679e+09	-86.4315	0.0000000E+000	0.0000000E+000	0.0000000E+000	86.4315	0.0000000E+000	0.0000000E+000	0.0000000E+000	-86.4315	0.0000000E+000	0.0000000E+000	0.0000000E+000	-3.56849	0.0000000E+000	0.0000000E+000	0.0000000E+000	3.56849	16.0353	86.4315	-0.00965036
0.0505041	0.196074	0.00795136	0.196235	-2.32224	107291	0.000144151	-0.809736	3.96326e+08	650702	1	37	0.00540375	0.0275371	0	-0.171184	10.8	0.105464	0.0750535	0.313533	1.88587e-06	4.32628e-06	1.13978e-06	2.29955e-06	8.00169e-07	1.2304e-06	0.131229	0.0895088	0.307867	1.0245e-05	2.55244e-05	6.26012e-06	2.00467e-05	5.33641e-06	5.26895e-06	5.09174	0.206485	5.09593	2.32224	6.50702e+08	1.60458e+10	1.6059e+10	-87.6778	0.0000000E+000	0.0000000E+000	0.0000000E+000	87.6778	0.0000000E+000	0.0000000E+000	0.0000000E+000	-87.6778	0.0000000E+000	0.0000000E+000	0.0000000E+000	-2.32224	0.0000000E+000	0.0000000E+000	0.0000000E+000	2.32224	24.6592	87.6778	-0.0448829
0.0252177	0.198687	0.00507567	0.198751	-1.46337	107879	0.00013493	-0.831673	1.24343e+09	810939	1	37	0.00540528	0.0271962	0	-0.27839	10.8	0.119096	0.16113	0.247426	2.27282e-06	5.15303e-06	1.22402e-06	2.18761e-06	1.03716e-06	7.95061e-07	0.142079	0.127155	0.272981	1.18173e-05	2.9061e-05	6.62106e-06	1.8477e-05	5.75295e-06	4.90227e-06	5.02977	0.128491	5.03141	1.46337	8.10937e+08	3.17441e+10	3.17545e+10	-88.5366	0.0000000E+000	0.0000000E+000	0.0000000E+000	88.5366	0.0000000E+000	0.0000000E+000	0.0000000E+000	-88.5366	0.0000000E+000	0.0000000E+000	0.0000000E+000	-1.46337	0.0000000E+000	0.0000000E+000	0.0000000E+000	1.46337	39.1449	88.5366	-0.0263895
174510	0.0836147	-0.0158957	0.0851122	10.7638	108187	0.000205369	-0.754856	-57.3748	-2.00122	2	37	0.00428694	0.0503681	0	-0.317271	10.8	-1	-1	-1	0	0	0	0	0	0	-1	-1	-1	0	0	0	0	0	0	11.5425	-2.19429	11.7492	-10.7638	-2001.22	10526.8	10715.4	-100.764	0.0000000E+000	0.0000000E+000	0.0000000E+000	100.764	0.0000000E+000	0.0000000E+000	0.0000000E+000	-100.764	0.0000000E+000	0.0000000E+000	0.0000000E+000	10.7638	0.0000000E+000	0.0000000E+000	0.0000000E+000	-10.7638	5.26022	79.2362	-0.000194111
87106.6	0.0884149	-0.00214195	0.0884408	1.38779	108190	0.000210794	-0.526645	-853.02	-0.50035	2	37	0.00523384	0.0591791	0	-0.317974	10.8	0.352944	0.171372	5.91147	4.28695e-06	6.57923e-06	7.93297e-06	4.00973e-06	7.407e-06	9.48104e-06	0.0915411	0.0211665	0.34787	1.19784e-05	5.19519e-05	4.93977e-06	6.61992e-06	2.98303e-06	2.73205e-06	11.3037	-0.273845	11.307	-1.38779	-500.35	20653.3	20659.3	-91.3878	0.0000000E+000	0.0000000E+000	0.0000000E+000	91.3878	0.0000000E+000	0.0000000E+000	0.0000000E+000	-91.3878	0.0000000E+000	0.0000000E+000	0.0000000E+000	1.38779	0.0000000E+000	0.0000000E+000	0.0000000E+000	-1.38779	41.2777	88.6122	-0.000123684
43479.1	0.0928362	0.00706757	0.0931049	-4.3535	108194	0.000202331	-0.462604	517.929	2.98446	2	37	0.00520283	0.0558814	0	-0.318366	10.8	0.378642	0.181574	5.99626	6.37122e-06	9.65042e-06	1.04088e-05	6.67297e-06	7.04255e-06	5.04113e-06	0.126568	0.0328388	0.364466	2.50307e-06	6.9449e-05	2.11327e-06	9.83314e-06	4.92339e-06	6.18035e-06	10.7096	0.815315	10.7406	4.3535	2984.46	39202.4	39315.8	-85.6465	0.0000000E+000	0.0000000E+000	0.0000000E+000	85.6465	0.0000000E+000	0.0000000E+000	0.0000000E+000	-85.6465	0.0000000E+000	0.0000000E+000	0.0000000E+000	-4.3535	0.0000000E+000	0.0000000E+000	0.0000000E+000	4.3535	13.1355	85.6465	-0.000168255
21702.4	0.0994374	0.0143781	0.100472	-8.22764	108197	0.000203971	-0.41669	510.047	10.4455	2	37	0.00518671	0.0516237	0	-0.318836	10.8	0.268972	0.12229	6.03996	4.79329e-06	7.61282e-06	5.66096e-06	4.55118e-06	5.31721e-06	3.0166e-06	0.113138	0.0553805	0.401754	3.53085e-06	5.65005e-05	3.49705e-06	9.74174e-06	6.13003e-06	7.15941e-06	9.85063	1.42435	9.95307	8.22764	10445.5	72239.7	72991	-81.7724	0.0000000E+000	0.0000000E+000	0.0000000E+000	81.7724	0.0000000E+000	0.0000000E+000	0.0000000E+000	-81.7724	0.0000000E+000	0.0000000E+000	0.0000000E+000	-8.22764	0.0000000E+000	0.0000000E+000	0.0000000E+000	8.22764	6.91589	81.7724	-8.59239e-05
10837.3	0.108832	0.0201325	0.110678	-10.4805	108200	0.000206823	-0.412856	729.461	24.1363	2	37	0.00517372	0.0467455	0	-0.319157	10.8	0.312067	0.163691	6.02226	5.35676e-06	4.53376e-06	5.76749e-06	6.92945e-06	3.93902e-06	7.5157e-06	0.125539	0.035807	0.430395	5.05525e-06	3.5907e-05	5.19753e-06	5.04709e-06	4.05686e-06	4.50248e-05	8.88446	1.64351	9.03519	10.4805	24136.3	130476	132690	-79.5195	0.0000000E+000	0.0000000E+000	0.0000000E+000	79.5195	0.0000000E+000	0.0000000E+000	0.0000000E+000	-79.5195	0.0000000E+000	0.0000000E+000	0.0000000E+000	-10.4805	0.0000000E+000	0.0000000E+000	0.0000000E+000	10.4805	5.40578	79.5195	-6.43136e-05
5406.63	0.120998	0.0233907	0.123238	-10.9412	108204	8.24523e-05	-1.0038	1258.49	45.3364	2	37	0.0051949	0.0421533	0	-0.320049	10.8	0.363535	0.199865	6.05632	4.64462e-06	8.87317e-06	5.30898e-06	3.94144e-06	1.06778e-05	7.27577e-06	0.0809418	0.0998284	0.50644	3.74559e-06	3.16782e-05	8.29601e-06	5.17057e-06	3.72964e-06	3.30644e-06	7.96687	1.54011	8.11437	10.9412	45336.4	234521	238863	-79.0588	0.0000000E+000	0.0000000E+000	0.0000000E+000	79.0588	0.0000000E+000	0.0000000E+000	0.0000000E+000	-79.0588	0.0000000E+000	0.0000000E+000	0.0000000E+000	-10.9412	0.0000000E+000	0.0000000E+000	0.0000000E+000	10.9412	5.17291	79.0588	-0.000458179
2699.14	0.134039	0.0228119	0.135966	-9.65855	108208	8.1166e-05	-0.974042	2584.84	72.7602	2	37	0.00518831	0.0381588	0	-0.321119	10.8	0.374772	0.167591	5.97231	6.62938e-06	7.44262e-06	7.475e-06	8.17897e-06	7.12924e-06	5.44306e-06	0.0563029	0.0229483	0.550316	3.0901e-06	1.8336e-05	3.85957e-06	5.80925e-06	6.17247e-06	3.20212e-06	7.25051	1.23395	7.35476	9.65855	72760.3	427527	433674	-80.3414	0.0000000E+000	0.0000000E+000	0.0000000E+000	80.3414	0.0000000E+000	0.0000000E+000	0.0000000E+000	-80.3414	0.0000000E+000	0.0000000E+000	0.0000000E+000	-9.65855	0.0000000E+000	0.0000000E+000	0.0000000E+000	9.65855	5.87583	80.3414	-0.000381054
1347.15	0.145082	0.0185618	0.146264	-7.29085	108212	7.98612e-05	-0.976647	6364.76	102.505	2	37	0.00516854	0.035337	0	-0.322266	10.8	0.305967	0.195389	6.03591	4.64866e-06	7.37857e-06	7.77259e-06	5.3594e-06	4.6035e-06	6.10412e-06	0.0377882	0.0303879	0.593059	3.15017e-06	4.55571e-06	5.23309e-06	6.89015e-06	4.95697e-06	5.55089e-06	6.78166	0.86765	6.83694	7.29085	102506	801196	807727	-82.7092	0.0000000E+000	0.0000000E+000	0.0000000E+000	82.7092	0.0000000E+000	0.0000000E+000	0.0000000E+000	-82.7092	0.0000000E+000	0.0000000E+000	0.0000000E+000	-7.29085	0.0000000E+000	0.0000000E+000	0.0000000E+000	7.29085	7.81613	82.7092	-0.000433361
672.366	0.152151	0.0130418	0.152709	-4.89921	108216	0.000114607	-0.924071	18150	132.381	2	37	0.00500897	0.0328009	0	-0.323321	10.8	0.323775	0.201532	6.12621	7.60618e-06	4.23968e-06	6.70947e-06	3.82474e-06	6.37989e-06	7.34918e-06	0.0702383	0.0252453	0.639246	5.07978e-06	1.77166e-05	8.61174e-06	9.62772e-06	2.60022e-06	1.76481e-06	6.5245	0.559256	6.54842	4.89921	132381	1.5444e+06	1.55007e+06	-85.1008	0.0000000E+000	0.0000000E+000	0.0000000E+000	85.1008	0.0000000E+000	0.0000000E+000	0.0000000E+000	-85.1008	0.0000000E+000	0.0000000E+000	0.0000000E+000	-4.89921	0.0000000E+000	0.0000000E+000	0.0000000E+000	4.89921	11.6664	85.1008	-0.000330464
335.537	0.155944	0.00838236	0.156169	-3.07683	108220	0.000100012	-0.90531	56586.6	163.026	2	37	0.00516244	0.0330568	0	-0.324251	10.8	0.300976	0.154643	6.02156	6.19739e-06	6.86787e-06	5.79813e-06	6.6305e-06	6.06006e-06	4.91158e-06	0.0803275	0.0161056	0.646659	5.48923e-06	1.98923e-05	5.89951e-06	1.46367e-05	3.2928e-06	4.11145e-06	6.39409	0.343698	6.40332	3.07683	163026	3.0329e+06	3.03728e+06	-86.9232	0.0000000E+000	0.0000000E+000	0.0000000E+000	86.9232	0.0000000E+000	0.0000000E+000	0.0000000E+000	-86.9232	0.0000000E+000	0.0000000E+000	0.0000000E+000	-3.07683	0.0000000E+000	0.0000000E+000	0.0000000E+000	3.07683	18.6038	86.9232	-0.000270521
167.481	0.158094	0.005447	0.158188	-1.9733	108223	0.000100347	-0.941156	174461	206.856	2	37	0.00535759	0.0338686	0	-0.325045	10.8	0.262979	0.142593	5.7099	5.98377e-06	5.1031e-06	4.08496e-06	5.64861e-06	5.53462e-06	4.56948e-06	0.103192	0.0270202	0.61792	6.27047e-06	2.9148e-05	3.09759e-06	1.69272e-05	3.67043e-06	3.11352e-06	6.31786	0.217677	6.32161	1.9733	206855	6.00378e+06	6.00735e+06	-88.0267	0.0000000E+000	0.0000000E+000	0.0000000E+000	88.0267	0.0000000E+000	0.0000000E+000	0.0000000E+000	-88.0267	0.0000000E+000	0.0000000E+000	0.0000000E+000	-1.9733	0.0000000E+000	0.0000000E+000	0.0000000E+000	1.9733	29.024	88.0267	-0.000252907
83.635	0.159133	0.00370136	0.159176	-1.33243	108226	0.00010909	-0.949345	514128	277.997	2	37	0.0053995	0.0339216	0	-0.325952	10.8	0.284068	0.191274	5.72879	5.02346e-06	6.65014e-06	5.52786e-06	7.2084e-06	5.8023e-06	4.38973e-06	0.121078	0.0147777	0.612538	4.00022e-06	3.04105e-05	5.50349e-06	2.53824e-05	3.2321e-06	4.52921e-06	6.28067	0.146086	6.28236	1.33243	277997	1.19519e+07	1.19552e+07	-88.6676	0.0000000E+000	0.0000000E+000	0.0000000E+000	88.6676	0.0000000E+000	0.0000000E+000	0.0000000E+000	-88.6676	0.0000000E+000	0.0000000E+000	0.0000000E+000	-1.33243	0.0000000E+000	0.0000000E+000	0.0000000E+000	1.33243	42.9931	88.6676	-0.000318193
41.7501	0.160012	0.00303868	0.160041	-1.08794	108230	0.000102081	-0.957366	1.25452e+06	452.259	2	37	0.00541367	0.0338268	0	-0.326796	10.8	0.270579	0.159882	5.82978	5.70815e-06	5.14607e-06	5.56621e-06	6.02626e-06	5.25964e-06	5.67683e-06	0.125892	0.0685644	0.612193	4.832e-06	3.0098e-05	5.81036e-06	2.42499e-05	1.52224e-05	3.59804e-06	6.24729	0.118638	6.24842	1.08794	452259	2.38152e+07	2.38195e+07	-88.9121	0.0000000E+000	0.0000000E+000	0.0000000E+000	88.9121	0.0000000E+000	0.0000000E+000	0.0000000E+000	-88.9121	0.0000000E+000	0.0000000E+000	0.0000000E+000	-1.08794	0.0000000E+000	0.0000000E+000	0.0000000E+000	1.08794	52.6582	88.9121	-0.000239081
20.8333	0.160975	0.00257035	0.160996	-0.914785	108233	9.30775e-05	-0.952881	2.97214e+06	757.574	2	37	0.00541695	0.0336466	0	-0.327593	10.8	0.166189	0.146941	5.70131	4.41574e-06	3.1346e-06	2.39767e-06	2.67074e-06	2.7867e-06	5.21554e-06	0.131687	0.191901	0.592649	1.71493e-05	2.64539e-05	6.38469e-06	2.65505e-05	2.96056e-06	1.15269e-05	6.21055	0.0991661	6.21135	0.914785	757576	4.74452e+07	4.74512e+07	-89.0852	0.0000000E+000	0.0000000E+000	0.0000000E+000	89.0852	0.0000000E+000	0.0000000E+000	0.0000000E+000	-89.0852	0.0000000E+000	0.0000000E+000	0.0000000E+000	-0.914785	0.0000000E+000	0.0000000E+000	0.0000000E+000	0.914785	62.6278	89.0852	-0.000160828
10.3959	0.161681	0.00297202	0.161708	-1.05309	108236	8.92934e-05	-0.987609	5.15119e+06	1739.99	2	37	0.00541256	0.0334711	0	-0.328709	10.8	0.251173	0.157295	5.79588	5.08669e-06	4.85165e-06	3.74896e-06	5.96895e-06	6.08024e-06	6.03686e-06	0.143613	0.199237	0.578123	7.33987e-06	2.69911e-05	1.29646e-05	3.1617e-05	6.75458e-06	7.8542e-06	6.18293	0.113654	6.18397	1.05309	1.73999e+06	9.46571e+07	9.46731e+07	-88.9469	0.0000000E+000	0.0000000E+000	0.0000000E+000	88.9469	0.0000000E+000	0.0000000E+000	0.0000000E+000	-88.9469	0.0000000E+000	0.0000000E+000	0.0000000E+000	-1.05309	0.0000000E+000	0.0000000E+000	0.0000000E+000	1.05309	54.4011	88.9469	-0.000461284
5.19276	0.162762	0.00385068	0.162808	-1.35527	108240	9.34194e-05	-0.986368	7.95947e+06	4452.57	2	37	0.00541516	0.0332611	0	-0.329567	10.8	0.164516	0.0726854	3.37056	1.96785e-06	4.00312e-06	5.19382e-06	1.46146e-06	3.32967e-06	3.53367e-06	0.223538	0.0444084	0.405469	5.14583e-06	6.93871e-05	3.63639e-06	2.31307e-05	4.39147e-06	4.62868e-06	6.1405	0.145274	6.14222	1.35527	4.45257e+06	1.88203e+08	1.88256e+08	-88.6447	0.0000000E+000	0.0000000E+000	0.0000000E+000	88.6447	0.0000000E+000	0.0000000E+000	0.0000000E+000	-88.6447	0.0000000E+000	0.0000000E+000	0.0000000E+000	-1.35527	0.0000000E+000	0.0000000E+000	0.0000000E+000	1.35527	42.2683	88.6447	-0.000656255
2.58949	0.164225	0.00513372	0.164305	-1.7905	108247	0.000100206	-1.02408	1.19722e+07	11687.9	2	37	0.00541373	0.0329493	0	-0.33184	10.8	0.152195	0.0878914	2.03556	4.0604e-06	3.60074e-06	2.9012e-06	4.19507e-06	1.86554e-06	2.24891e-06	0.208108	0.0520782	0.330914	6.26392e-06	2.82494e-05	9.14863e-06	3.16124e-05	5.133e-05	1.00145e-05	6.08327	0.190165	6.08624	1.7905	1.16879e+07	3.73889e+08	3.74071e+08	-88.2095	0.0000000E+000	0.0000000E+000	0.0000000E+000	88.2095	0.0000000E+000	0.0000000E+000	0.0000000E+000	-88.2095	0.0000000E+000	0.0000000E+000	0.0000000E+000	-1.7905	0.0000000E+000	0.0000000E+000	0.0000000E+000	1.7905	31.9894	88.2095	-0.000933274
1.29325	0.166073	0.00734286	0.166235	-2.53167	108260	0.000114678	-0.940961	1.676e+07	32700.8	2	37	0.00541134	0.0325524	0	-0.335799	10.8	0.145942	0.0875164	1.41538	1.93895e-06	6.11575e-06	2.09813e-06	2.51025e-06	1.90026e-06	1.78622e-06	0.139138	0.108304	0.351632	1.37742e-05	3.20297e-05	6.89423e-06	2.48136e-05	9.08406e-06	4.38433e-06	6.00971	0.265718	6.01558	2.53167	3.27008e+07	7.39591e+08	7.40313e+08	-87.4683	0.0000000E+000	0.0000000E+000	0.0000000E+000	87.4683	0.0000000E+000	0.0000000E+000	0.0000000E+000	-87.4683	0.0000000E+000	0.0000000E+000	0.0000000E+000	-2.53167	0.0000000E+000	0.0000000E+000	0.0000000E+000	2.53167	22.6169	87.4683	-0.00344562
0.645874	0.168997	0.0114906	0.169388	-3.8897	108284	0.000110281	-0.954303	2.14452e+07	98684.8	2	37	0.00541141	0.0319469	0	-0.341419	10.8	0.116754	0.0755439	1.01745	1.20898e-06	4.83622e-06	8.20391e-07	2.45972e-06	1.85641e-06	1.55631e-06	0.151781	0.155909	0.344807	1.25564e-05	3.34407e-05	8.17613e-06	2.98089e-05	4.95784e-06	4.3785e-06	5.89002	0.400477	5.90362	3.8897	9.86847e+07	1.45141e+09	1.45476e+09	-86.1103	0.0000000E+000	0.0000000E+000	0.0000000E+000	86.1103	0.0000000E+000	0.0000000E+000	0.0000000E+000	-86.1103	0.0000000E+000	0.0000000E+000	0.0000000E+000	-3.8897	0.0000000E+000	0.0000000E+000	0.0000000E+000	3.8897	14.7075	86.1103	-0.00140933
0.322118	0.177594	0.0164161	0.178351	-5.28118	108330	9.55869e-05	-0.955618	3.00978e+07	254989	2	37	0.00540739	0.0303188	0	-0.357586	10.8	0.118042	0.0876321	0.714943	1.81161e-06	5.16228e-06	1.56476e-06	2.39655e-06	5.94285e-07	1.13855e-06	0.14443	0.101531	0.354555	1.90963e-05	2.28513e-05	1.2384e-05	2.5662e-05	7.83827e-06	7.2368e-06	5.58311	0.516079	5.60691	5.28118	2.54989e+08	2.75855e+09	2.77031e+09	-84.7188	0.0000000E+000	0.0000000E+000	0.0000000E+000	84.7188	0.0000000E+000	0.0000000E+000	0.0000000E+000	-84.7188	0.0000000E+000	0.0000000E+000	0.0000000E+000	-5.28118	0.0000000E+000	0.0000000E+000	0.0000000E+000	5.28118	10.8183	84.7188	-0.00920224
0.160792	0.188031	0.0149798	0.188627	-4.55495	108423	0.000110065	-0.916404	6.60765e+07	416729	2	37	0.00540511	0.028655	0	-0.368438	10.8	0.124309	0.0820822	0.513919	1.61716e-06	4.93262e-06	1.442e-06	2.99343e-06	1.99115e-06	9.39641e-07	0.140471	0.108886	0.341748	9.95418e-06	2.41305e-05	1.11807e-05	2.60149e-05	8.79695e-06	2.37439e-06	5.28472	0.421016	5.30147	4.55495	4.16729e+08	5.2309e+09	5.24747e+09	-85.4451	0.0000000E+000	0.0000000E+000	0.0000000E+000	85.4451	0.0000000E+000	0.0000000E+000	0.0000000E+000	-85.4451	0.0000000E+000	0.0000000E+000	0.0000000E+000	-4.55495	0.0000000E+000	0.0000000E+000	0.0000000E+000	4.55495	12.5523	85.4451	-0.00556841
0.0802383	0.1945	0.0106779	0.194793	-3.14236	108609	0.000125785	-0.817275	1.85759e+08	558189	2	37	0.00540242	0.0277342	0	-0.435261	10.8	0.107157	0.1032	0.365945	9.59264e-07	4.82206e-06	8.72523e-07	2.51592e-06	8.80107e-07	8.50454e-07	0.129842	0.0824777	0.304778	9.43963e-06	2.48503e-05	5.32687e-06	2.2003e-05	4.32337e-06	4.47903e-06	5.12595	0.281412	5.13367	3.14236	5.58189e+08	1.01675e+10	1.01828e+10	-86.8576	0.0000000E+000	0.0000000E+000	0.0000000E+000	86.8576	0.0000000E+000	0.0000000E+000	0.0000000E+000	-86.8576	0.0000000E+000	0.0000000E+000	0.0000000E+000	-3.14236	0.0000000E+000	0.0000000E+000	0.0000000E+000	3.14236	18.2151	86.8576	-0.0286587
0.04008	0.197996	0.00695673	0.198118	-2.0123	108979	0.000109152	-0.92354	5.70805e+08	703799	2	37	0.00540472	0.0272803	0	-0.498754	10.8	0.105614	0.112979	0.304229	2.03032e-06	4.16059e-06	9.28052e-07	2.57879e-06	1.27154e-06	8.88955e-07	0.132872	0.054206	0.301446	6.21725e-06	2.59849e-05	3.95522e-06	2.21993e-05	6.63701e-06	4.42222e-06	5.04437	0.177238	5.04749	2.0123	7.03799e+08	2.00309e+10	2.00432e+10	-87.9877	0.0000000E+000	0.0000000E+000	0.0000000E+000	87.9877	0.0000000E+000	0.0000000E+000	0.0000000E+000	-87.9877	0.0000000E+000	0.0000000E+000	0.0000000E+000	-2.0123	0.0000000E+000	0.0000000E+000	0.0000000E+000	2.0123	28.4611	87.9877	-0.0175484
0.0199946	0.200021	0.00427765	0.200066	-1.22514	109719	9.46663e-05	-0.876751	1.86081e+09	850676	2	37	0.00540143	0.0269982	0	-0.676059	10.8	0.0999435	0.161678	0.230385	2.51014e-06	4.06573e-06	1.65273e-06	1.48197e-06	4.19979e-07	6.06577e-07	0.136403	0.151718	0.259438	1.87955e-05	2.33278e-05	8.49315e-06	1.6863e-05	4.82952e-06	5.81879e-06	4.9972	0.10687	4.99834	1.22514	8.50677e+08	3.97772e+10	3.97863e+10	-88.7749	0.0000000E+000	0.0000000E+000	0.0000000E+000	88.7749	0.0000000E+000	0.0000000E+000	0.0000000E+000	-88.7749	0.0000000E+000	0.0000000E+000	0.0000000E+000	-1.22514	0.0000000E+000	0.0000000E+000	0.0000000E+000	1.22514	46.7595	88.7749	-0.0957455
138435	0.0856278	-0.0105492	0.0862751	7.02332	109723	0.000195676	-0.0893171	-108.982	-1.62937	3	37	0.00511276	0.0592612	0	-0.675457	10.8	-1	-1	-1	0	0	0	0	0	0	-1	-1	-1	0	0	0	0	0	0	11.5039	-1.41725	11.5908	-7.02332	-1629.37	13225.6	13325.6	-97.0233	0.0000000E+000	0.0000000E+000	0.0000000E+000	97.0233	0.0000000E+000	0.0000000E+000	0.0000000E+000	-97.0233	0.0000000E+000	0.0000000E+000	0.0000000E+000	7.02332	0.0000000E+000	0.0000000E+000	0.0000000E+000	-7.02332	8.11703	82.9767	4.63e-05
69097	0.0899059	0.00128334	0.0899151	-0.817796	109726	0.000192563	-0.199421	1794.82	0.365625	3	37	0.00522414	0.0581008	0	-0.675664	10.8	0.252692	0.149783	6.06981	2.7249e-06	6.67248e-06	6.73434e-06	5.17775e-06	2.95789e-06	5.18317e-06	0.106033	0.0565433	0.35459	1.64547e-05	5.84287e-05	4.27856e-06	5.71456e-06	5.4646e-06	2.44328e-06	11.1205	0.158736	11.1216	0.817796	365.624	25614.4	25617	-89.1822	0.0000000E+000	0.0000000E+000	0.0000000E+000	89.1822	0.0000000E+000	0.0000000E+000	0.0000000E+000	-89.1822	0.0000000E+000	0.0000000E+000	0.0000000E+000	-0.817796	0.0000000E+000	0.0000000E+000	0.0000000E+000	0.817796	70.0565	89.1822	-0.000103315
34488.2	0.0948645	0.00982536	0.095372	-5.91318	109730	0.000184137	-0.208988	469.679	4.9849	3	37	0.00519756	0.0544978	0	-0.675755	10.8	0.340141	0.164656	6.0915	6.40188e-06	3.4542e-06	6.22012e-06	6.4961e-06	6.03236e-06	1.09985e-05	0.119367	0.0537917	0.379272	7.51245e-06	6.36548e-05	4.72644e-06	8.50029e-06	2.41507e-06	3.84292e-06	10.4295	1.08021	10.4853	5.91318	4984.9	48129.5	48387	-84.0868	0.0000000E+000	0.0000000E+000	0.0000000E+000	84.0868	0.0000000E+000	0.0000000E+000	0.0000000E+000	-84.0868	0.0000000E+000	0.0000000E+000	0.0000000E+000	-5.91318	0.0000000E+000	0.0000000E+000	0.0000000E+000	5.91318	9.65507	84.0868	-4.5095e-05
17211.6	0.102384	0.0166238	0.103725	-9.22243	109733	0.000197615	-0.196109	556.248	14.2876	3	37	0.00518845	0.0500212	0	-0.675807	10.8	0.370958	0.0661196	5.94541	7.50286e-06	6.6082e-06	9.25053e-06	3.07341e-06	9.18757e-06	8.54335e-06	0.104118	0.0165495	0.407817	6.0245e-06	5.01437e-05	4.17865e-06	8.62015e-06	6.10119e-06	3.37141e-06	9.51625	1.54512	9.64087	9.22243	14287.6	87996.2	89148.6	-80.7776	0.0000000E+000	0.0000000E+000	0.0000000E+000	80.7776	0.0000000E+000	0.0000000E+000	0.0000000E+000	-80.7776	0.0000000E+000	0.0000000E+000	0.0000000E+000	-9.22243	0.0000000E+000	0.0000000E+000	0.0000000E+000	9.22243	6.15891	80.7776	-5.73797e-05
8590.41	0.112805	0.0216995	0.114873	-10.8886	109737	8.14829e-05	-0.812905	853.802	30.4663	3	37	0.00527857	0.0459514	0	-0.67619	10.8	0.327753	0.201042	5.92627	8.16414e-06	8.52547e-06	6.12876e-06	7.86947e-06	6.26101e-06	1.56715e-06	0.103633	0.060924	0.453236	2.15487e-06	4.6106e-05	5.17116e-06	8.86833e-06	2.67961e-06	3.80361e-06	8.54854	1.64442	8.70527	10.8886	30466.3	158379	161283	-79.1114	0.0000000E+000	0.0000000E+000	0.0000000E+000	79.1114	0.0000000E+000	0.0000000E+000	0.0000000E+000	-79.1114	0.0000000E+000	0.0000000E+000	0.0000000E+000	-10.8886	0.0000000E+000	0.0000000E+000	0.0000000E+000	10.8886	5.1985	79.1114	-0.000172155
4288.63	0.125535	0.0236883	0.127751	-10.686	109740	7.01307e-05	-0.880055	1566.64	53.8653	3	37	0.0051867	0.0406002	0	-0.677116	10.8	0.311792	0.170768	5.97987	3.8805e-06	7.67517e-06	7.35866e-06	6.09958e-06	5.95926e-06	5.45716e-06	0.0598061	0.0231186	0.517688	2.8205e-06	2.26552e-05	3.66142e-06	2.46502e-06	5.11934e-06	3.91351e-06	7.69201	1.45147	7.82775	10.686	53865.3	285457	290495	-79.314	0.0000000E+000	0.0000000E+000	0.0000000E+000	79.314	0.0000000E+000	0.0000000E+000	0.0000000E+000	-79.314	0.0000000E+000	0.0000000E+000	0.0000000E+000	-10.686	0.0000000E+000	0.0000000E+000	0.0000000E+000	10.686	5.29946	79.314	-0.000347585
2140.69	0.13831	0.0218953	0.140033	-8.99559	109744	7.23676e-05	-0.867995	3395.6	83.0154	3	37	0.00516366	0.0368747	0	-0.678149	10.8	0.249559	0.162887	6.00982	6.64181e-06	4.99672e-06	4.2302e-06	6.24775e-06	3.50891e-06	2.97404e-06	0.0344202	0.0259906	0.572596	1.46107e-06	6.86289e-06	6.4932e-06	3.91871e-06	5.48557e-06	3.49961e-06	7.05335	1.11658	7.14118	8.99559	83015.4	524400	530930	-81.0044	0.0000000E+000	0.0000000E+000	0.0000000E+000	81.0044	0.0000000E+000	0.0000000E+000	0.0000000E+000	-81.0044	0.0000000E+000	0.0000000E+000	0.0000000E+000	-8.99559	0.0000000E+000	0.0000000E+000	0.0000000E+000	8.99559	6.3169	81.0044	-0.000304712
1068.29	0.148342	0.0170384	0.149317	-6.55223	109748	6.92733e-05	-0.893585	8743.79	113.851	3	37	0.00516458	0.0345879	0	-0.679213	10.8	0.26346	0.128038	6.15035	6.21723e-06	6.74181e-06	4.3906e-06	5.89806e-06	4.44247e-06	3.3146e-06	0.0453331	0.092186	0.606565	5.02491e-06	4.66847e-06	7.3082e-06	7.2736e-06	7.04917e-06	3.75748e-06	6.6534	0.764203	6.69714	6.55223	113851	991226	997743	-83.4478	0.0000000E+000	0.0000000E+000	0.0000000E+000	83.4478	0.0000000E+000	0.0000000E+000	0.0000000E+000	-83.4478	0.0000000E+000	0.0000000E+000	0.0000000E+000	-6.55223	0.0000000E+000	0.0000000E+000	0.0000000E+000	6.55223	8.70632	83.4478	-0.000338238
533.464	0.154336	0.0112767	0.154747	-4.17895	109752	9.29656e-05	-0.857703	26456.5	140.492	3	37	0.00535597	0.0346112	0	-0.680066	10.8	0.273988	0.137526	5.7951	4.63316e-06	4.75426e-06	6.0543e-06	6.27176e-06	6.53208e-06	5.14088e-06	0.0626667	0.0260698	0.598295	5.72911e-06	1.38194e-05	6.5384e-06	1.16887e-05	5.64306e-06	3.71682e-06	6.44498	0.470909	6.46216	4.17895	140492	1.92281e+06	1.92794e+06	-85.821	0.0000000E+000	0.0000000E+000	0.0000000E+000	85.821	0.0000000E+000	0.0000000E+000	0.0000000E+000	-85.821	0.0000000E+000	0.0000000E+000	0.0000000E+000	-4.17895	0.0000000E+000	0.0000000E+000	0.0000000E+000	4.17895	13.6862	85.821	-0.000292171
266.278	0.157391	0.00741339	0.157565	-2.69674	109756	9.222e-05	-0.80025	80624.8	178.476	3	37	0.00540771	0.0343204	0	-0.680836	10.8	0.265236	0.133805	5.79002	7.32237e-06	4.77813e-06	3.32534e-06	4.51641e-06	6.98044e-06	5.22476e-06	0.0951625	0.030301	0.616644	6.36451e-06	2.26887e-05	4.0719e-06	2.08387e-05	6.00506e-06	4.05249e-06	6.33955	0.298604	6.34658	2.69674	178476	3.78916e+06	3.79336e+06	-87.3033	0.0000000E+000	0.0000000E+000	0.0000000E+000	87.3033	0.0000000E+000	0.0000000E+000	0.0000000E+000	-87.3033	0.0000000E+000	0.0000000E+000	0.0000000E+000	-2.69674	0.0000000E+000	0.0000000E+000	0.0000000E+000	2.69674	21.2306	87.3033	-0.000289406
132.916	0.159094	0.00474187	0.159165	-1.70722	109759	9.85392e-05	-0.849868	252518	224.129	3	37	0.00506807	0.0318417	0	-0.681645	10.8	0.344516	0.184247	6.04163	6.97267e-06	9.44402e-06	4.46177e-06	7.38757e-06	6.34351e-06	3.39597e-06	0.10741	0.0249735	0.67168	3.29586e-06	2.55602e-05	8.76769e-06	1.90258e-05	6.03267e-06	3.67114e-06	6.28001	0.187178	6.2828	1.70722	224129	7.51974e+06	7.52308e+06	-88.2928	0.0000000E+000	0.0000000E+000	0.0000000E+000	88.2928	0.0000000E+000	0.0000000E+000	0.0000000E+000	-88.2928	0.0000000E+000	0.0000000E+000	0.0000000E+000	-1.70722	0.0000000E+000	0.0000000E+000	0.0000000E+000	1.70722	33.5509	88.2928	-0.000296261
66.3374	0.16023	0.00339143	0.160266	-1.21254	109763	0.000105119	-0.834457	707422	316.782	3	37	0.0050983	0.0318114	0	-0.682483	10.8	0.387294	0.216192	6.10643	5.71294e-06	8.59974e-06	6.03521e-06	8.11055e-06	7.62305e-06	5.46803e-06	0.119014	0.0280833	0.661222	8.89391e-06	2.76354e-05	6.0284e-06	2.13301e-05	8.28692e-06	3.44585e-06	6.23822	0.132038	6.23961	1.21254	316782	1.49666e+07	1.49699e+07	-88.7875	0.0000000E+000	0.0000000E+000	0.0000000E+000	88.7875	0.0000000E+000	0.0000000E+000	0.0000000E+000	-88.7875	0.0000000E+000	0.0000000E+000	0.0000000E+000	-1.21254	0.0000000E+000	0.0000000E+000	0.0000000E+000	1.21254	47.2457	88.7875	-0.000294608
33.1038	0.16102	0.00265422	0.161041	-0.944369	109766	0.000113508	-0.850258	1.81136e+06	492.044	3	37	0.005105	0.0316999	0	-0.683307	10.8	0.337685	0.154823	6.05088	8.86396e-06	8.4687e-06	4.34968e-06	5.64954e-06	3.85338e-06	7.37161e-06	0.123927	0.0330003	0.660622	6.97928e-06	2.64005e-05	6.6037e-06	2.60367e-05	6.7704e-06	3.23758e-06	6.20874	0.102344	6.20958	0.944369	492042	2.98501e+07	2.98541e+07	-89.0556	0.0000000E+000	0.0000000E+000	0.0000000E+000	89.0556	0.0000000E+000	0.0000000E+000	0.0000000E+000	-89.0556	0.0000000E+000	0.0000000E+000	0.0000000E+000	-0.944369	0.0000000E+000	0.0000000E+000	0.0000000E+000	0.944369	60.6655	89.0556	-0.000330537
16.5286	0.161881	0.00264695	0.161903	-0.936773	109769	0.000114757	-0.836263	3.63779e+06	972.35	3	37	0.00510575	0.0315359	0	-0.684136	10.8	0.298773	0.15959	6.1585	4.10748e-06	6.44416e-06	4.79079e-06	5.6774e-06	8.23529e-06	3.37032e-06	0.123865	0.0957412	0.61191	6.57547e-06	2.87266e-05	6.02306e-06	2.16004e-05	3.55374e-06	6.09076e-06	6.17572	0.100981	6.17655	0.936773	972352	5.94665e+07	5.94744e+07	-89.0632	0.0000000E+000	0.0000000E+000	0.0000000E+000	89.0632	0.0000000E+000	0.0000000E+000	0.0000000E+000	-89.0632	0.0000000E+000	0.0000000E+000	0.0000000E+000	-0.936773	0.0000000E+000	0.0000000E+000	0.0000000E+000	0.936773	61.1575	89.0632	-0.00041876
8.24973	0.162544	0.00319412	0.162576	-1.12576	109773	0.000114141	-0.851124	6.03989e+06	2331.42	3	37	0.00509839	0.0313601	0	-0.684674	10.8	0.23141	0.151671	4.27632	5.04825e-06	4.26752e-06	5.48614e-06	3.48322e-06	2.55477e-06	5.81486e-06	0.259362	0.105642	0.466351	5.7934e-05	2.94168e-05	5.37442e-06	2.33492e-05	4.18251e-05	6.64045e-06	6.1498	0.120848	6.15098	1.12576	2.33142e+06	1.18643e+08	1.18666e+08	-88.8742	0.0000000E+000	0.0000000E+000	0.0000000E+000	88.8742	0.0000000E+000	0.0000000E+000	0.0000000E+000	-88.8742	0.0000000E+000	0.0000000E+000	0.0000000E+000	-1.12576	0.0000000E+000	0.0000000E+000	0.0000000E+000	1.12576	50.8886	88.8742	1.35131e-05
4.11618	0.163877	0.00414534	0.163929	-1.44901	109777	0.000118886	-0.812585	9.32752e+06	5964.49	3	37	0.00510596	0.0311473	0	-0.685869	10.8	0.16391	0.174706	2.93314	3.58559e-06	4.82115e-06	3.24599e-06	2.8678e-06	1.86404e-06	2.48663e-06	0.151677	0.0769091	0.428497	9.27874e-06	2.69102e-05	2.3846e-05	2.71589e-05	4.08743e-06	1.92841e-06	6.09824	0.154258	6.10019	1.44901	5.96448e+06	2.35793e+08	2.35868e+08	-88.551	0.0000000E+000	0.0000000E+000	0.0000000E+000	88.551	0.0000000E+000	0.0000000E+000	0.0000000E+000	-88.551	0.0000000E+000	0.0000000E+000	0.0000000E+000	-1.44901	0.0000000E+000	0.0000000E+000	0.0000000E+000	1.44901	39.5328	88.551	-0.000521522
2.05457	0.165406	0.00577606	0.165507	-1.99998	109786	0.000121213	-0.781981	1.34112e+07	16334.1	3	37	0.00510188	0.0308257	0	-0.687277	10.8	0.128697	0.0994271	1.96588	2.1376e-06	3.75402e-06	2.14783e-06	3.02351e-06	1.82968e-06	1.87365e-06	0.158239	0.0564837	0.368989	1.06839e-05	2.32291e-05	5.27819e-06	2.50415e-05	1.08168e-05	2.95258e-05	6.03835	0.210861	6.04203	1.99998	1.63341e+07	4.67753e+08	4.68039e+08	-88	0.0000000E+000	0.0000000E+000	0.0000000E+000	88	0.0000000E+000	0.0000000E+000	0.0000000E+000	-88	0.0000000E+000	0.0000000E+000	0.0000000E+000	-1.99998	0.0000000E+000	0.0000000E+000	0.0000000E+000	1.99998	28.6366	88	-0.000188601
1.02607	0.167489	0.00829723	0.167694	-2.83605	109801	0.00012217	-0.76237	1.86943e+07	45765.5	3	37	0.00510196	0.0304241	0	-0.690205	10.8	0.124991	0.0742324	1.39069	2.48336e-06	4.28873e-06	1.6181e-06	2.64583e-06	1.39586e-06	1.7633e-06	0.141186	0.101621	0.370502	1.11619e-05	2.46451e-05	1.55124e-05	2.60978e-05	7.0348e-06	6.77417e-06	5.95592	0.29505	5.96323	2.83605	4.57655e+07	9.23829e+08	9.24962e+08	-87.1639	0.0000000E+000	0.0000000E+000	0.0000000E+000	87.1639	0.0000000E+000	0.0000000E+000	0.0000000E+000	-87.1639	0.0000000E+000	0.0000000E+000	0.0000000E+000	-2.83605	0.0000000E+000	0.0000000E+000	0.0000000E+000	2.83605	20.1861	87.1639	0.000484014
0.511825	0.171618	0.0136903	0.172163	-4.56095	109831	0.00011951	-0.822392	2.27135e+07	143626	3	37	0.00510037	0.0296253	0	-0.696048	10.8	0.117429	0.0881693	0.946976	1.64879e-06	4.65754e-06	2.04762e-06	2.3544e-06	5.05778e-07	6.84956e-07	0.126957	0.0871175	0.369131	6.3442e-06	2.34857e-05	9.65732e-06	2.56371e-05	4.82769e-06	4.34271e-06	5.79006	0.461885	5.80845	4.56095	1.43626e+08	1.80045e+09	1.80617e+09	-85.439	0.0000000E+000	0.0000000E+000	0.0000000E+000	85.439	0.0000000E+000	0.0000000E+000	0.0000000E+000	-85.439	0.0000000E+000	0.0000000E+000	0.0000000E+000	-4.56095	0.0000000E+000	0.0000000E+000	0.0000000E+000	4.56095	12.5357	85.439	0.000843995
0.255612	0.181991	0.0166513	0.182751	-5.22773	109890	0.000116094	-0.833271	3.73931e+07	310433	3	37	0.00509628	0.0278865	0	-0.717023	10.8	0.103901	0.0663505	0.677889	8.1787e-07	3.88889e-06	1.2101e-06	2.67031e-06	5.1815e-07	1.22219e-06	0.132951	0.0999086	0.369726	1.40756e-05	2.14383e-05	8.21925e-06	2.27381e-05	3.0581e-06	7.56063e-06	5.44916	0.498572	5.47192	5.22773	3.10433e+08	3.39289e+09	3.40706e+09	-84.7723	0.0000000E+000	0.0000000E+000	0.0000000E+000	84.7723	0.0000000E+000	0.0000000E+000	0.0000000E+000	-84.7723	0.0000000E+000	0.0000000E+000	0.0000000E+000	-5.22773	0.0000000E+000	0.0000000E+000	0.0000000E+000	5.22773	10.9295	84.7723	-0.00900945
0.127525	0.191253	0.013617	0.191738	-4.07251	110007	0.000104146	-0.889929	9.16525e+07	462266	3	37	0.00509587	0.0265773	0	-0.730743	10.8	0.10389	0.0993162	0.478776	1.9636e-06	4.20889e-06	8.52825e-07	1.55166e-06	5.64324e-07	4.50919e-07	0.130665	0.0816579	0.333842	7.62143e-06	2.47875e-05	4.33541e-06	2.05132e-05	2.8669e-06	4.68981e-06	5.20229	0.370396	5.21546	4.07251	4.62266e+08	6.49262e+09	6.50906e+09	-85.9275	0.0000000E+000	0.0000000E+000	0.0000000E+000	85.9275	0.0000000E+000	0.0000000E+000	0.0000000E+000	-85.9275	0.0000000E+000	0.0000000E+000	0.0000000E+000	-4.07251	0.0000000E+000	0.0000000E+000	0.0000000E+000	4.07251	14.0452	85.9275	-0.00695561
0.0636941	0.196608	0.00935723	0.196831	-2.72484	110240	0.000119682	-0.883437	2.67038e+08	603506	3	37	0.00509495	0.0258849	0	-0.814802	10.8	0.108686	0.118053	0.364315	1.47652e-06	4.67621e-06	7.80557e-07	2.09519e-06	7.8459e-07	7.1681e-07	0.165853	0.159977	0.334764	1.59128e-05	2.74401e-05	7.51447e-06	2.30668e-05	3.9311e-06	4.70009e-06	5.07476	0.241524	5.0805	2.72484	6.03506e+08	1.26805e+10	1.26948e+10	-87.2752	0.0000000E+000	0.0000000E+000	0.0000000E+000	87.2752	0.0000000E+000	0.0000000E+000	0.0000000E+000	-87.2752	0.0000000E+000	0.0000000E+000	0.0000000E+000	-2.72484	0.0000000E+000	0.0000000E+000	0.0000000E+000	2.72484	21.0114	87.2752	-0.0366002
0.0317924	0.199534	0.00600839	0.199624	-1.72478	110706	0.00012776	-0.799686	8.33178e+08	754794	3	37	0.00509326	0.0255142	0	-0.90652	10.8	0.0993935	0.124376	0.280295	1.77866e-06	3.62285e-06	1.03047e-06	2.45415e-06	5.94123e-07	6.74691e-07	0.138136	0.187396	0.298202	1.13782e-05	1.95184e-05	1.11408e-05	2.23022e-05	7.14544e-06	5.61061e-06	5.00715	0.150776	5.00942	1.72478	7.54793e+08	2.50661e+10	2.50774e+10	-88.2752	0.0000000E+000	0.0000000E+000	0.0000000E+000	88.2752	0.0000000E+000	0.0000000E+000	0.0000000E+000	-88.2752	0.0000000E+000	0.0000000E+000	0.0000000E+000	-1.72478	0.0000000E+000	0.0000000E+000	0.0000000E+000	1.72478	33.2091	88.2752	-0.0239172
0.0199946	0.200725	0.00438795	0.200773	-1.25232	111255	0.000126083	-0.848249	1.81404e+09	866483	3	37	0.00509334	0.0253687	0	-0.990577	10.8	0.11963	0.0673331	0.231483	2.80799e-06	4.45846e-06	1.3051e-06	2.18695e-06	6.81056e-07	1.10205e-06	0.157061	0.116965	0.261913	1.92872e-05	2.21349e-05	1.2371e-05	2.10188e-05	3.54414e-06	5.66132e-06	4.97957	0.108856	4.98076	1.25232	8.66485e+08	3.96369e+10	3.96463e+10	-88.7477	0.0000000E+000	0.0000000E+000	0.0000000E+000	88.7477	0.0000000E+000	0.0000000E+000	0.0000000E+000	-88.7477	0.0000000E+000	0.0000000E+000	0.0000000E+000	-1.25232	0.0000000E+000	0.0000000E+000	0.0000000E+000	1.25232	45.7445	88.7477	-0.0549717