File: Python/Data/GoldElectrode/240322/Carbon/240322-CVEIS-Activation-5mM_Fe2Fe3-1M_H2SO4-0000RPM-Ag_AgCl_BLF8-GC_RDE_08_PEIS_C15.mpt
EC-Lab ASCII FILE
Nb header lines : 66

Potentio Electrochemical Impedance Spectroscopy

Run on channel : 15 (SN 19485)
User :
Electrode connection : standard
Potential control : Ewe
Ewe ctrl range : min = -2.50 V, max = 2.50 V
Ewe,I filtering : 50 kHz
Safety Limits :
	Do not start on E overload
Channel : Floating
Acquisition started on : 03/22/2024 12:39:19.547
Loaded Setting File :  C:\Data\mathias\GoldElectrode\240322-CVEIS-Activation-5mM_Fe2Fe3-1M_H2SO4-0000RPM-Ag_AgCl_BLF8-Au_RDE.mps
Saved on :
	File : 240322-CVEIS-Activation-5mM_Fe2Fe3-1M_H2SO4-0000RPM-Ag_AgCl_BLF8-GC_RDE_08_PEIS_C15.mpr
	Directory : C:\Data\mathias\GoldElectrode\
	Host : 192.168.0.1
Device : VMP-300 (SN 0826)
Address : USB
EC-Lab for windows v11.52 (software)
Internet server v11.52 (firmware)
Command interpretor v11.52 (firmware)
Electrode material :
Initial state :
Electrolyte :
Comments :
Cable : special
Electrode surface area : 0.001 cm²
Characteristic mass : 0.001 g
Equivalent Weight : 0.000 g/eq.
Density : 0.000 g/cm3
Volume (V) : 0.001 cm³
Record EIS quality indicators
Cycle Definition : Charge/Discharge alternance
Mode                Single sine
E (V)               0.0000
vs.                 Eoc
tE (h:m:s)          0:00:0.0000
record              0
dI                  0.000
unit dI             mA
dt (s)              0.000
fi                  100.000
unit fi             kHz
ff                  100.000
unit ff             Hz
Nd                  10
Points              per decade
spacing             Logarithmic
Va (mV)             5.0
pw                  0.10
Na                  2
corr                0
E range min (V)     -2.500
E range max (V)     2.500
I Range             Auto
Bandwidth           8
nc cycles           0
goto Ns'            0
nr cycles           0
inc. cycle          0

freq/Hz	Re(Z)/Ohm	-Im(Z)/Ohm	|Z|/Ohm	Phase(Z)/deg	time/s	<Ewe>/V	<I>/mA	Cs/µF	Cp/µF	cycle number	I Range	|Ewe|/V	|I|/A	Ns	(Q-Qo)/mA.h	THD Ewe/%	NSD Ewe/%	NSR Ewe/%	|Ewe h2|/V	|Ewe h3|/V	|Ewe h4|/V	|Ewe h5|/V	|Ewe h6|/V	|Ewe h7|/V	THD I/%	NSD I/%	NSR I/%	|I h2|/A	|I h3|/A	|I h4|/A	|I h5|/A	|I h6|/A	|I h7|/A	Re(Y)/Ohm-1	Im(Y)/Ohm-1	|Y|/Ohm-1	Phase(Y)/deg	Re(C)/nF	Im(C)/nF	|C|/nF	Phase(C)/deg	Re(M)	Im(M)	|M|	Phase(M)/deg	Re(Permittivity)	Im(Permittivity)	|Permittivity|	Phase(Permittivity)/deg	Re(Resistivity)/Ohm.cm	Im(Resistivity)/Ohm.cm	|Resistivity|/Ohm.cm	Phase(Resistivity)/deg	Re(Conductivity)/mS/cm	Im(Conductivity)/mS/cm	|Conductivity|/mS/cm	Phase(Conductivity)/deg	Tan(Delta)	Loss Angle(Delta)/deg	dq/mA.h
100004	2.92277	0.160487	2.92717	-3.14291	1165.21	0.441192	-0.16114	9.91663	0.029809	1	37	0.00479107	0.00163676	0	-4.04762e-05	1.31311	0.677911	26.9523	1.27489e-05	2.57329e-05	2.93393e-05	2.39739e-05	2.85095e-05	2.26598e-05	0.476521	0.467419	10.9802	3.59297e-06	4.41631e-06	2.29099e-06	2.08149e-06	2.10378e-06	3.68312e-06	0.341113	0.0187302	0.341627	3.14291	29.8089	542.878	543.695	-86.8571	0.0000000E+000	0.0000000E+000	0.0000000E+000	86.8571	0.0000000E+000	0.0000000E+000	0.0000000E+000	-86.8571	0.0000000E+000	0.0000000E+000	0.0000000E+000	-3.14291	0.0000000E+000	0.0000000E+000	0.0000000E+000	3.14291	18.2119	86.8571	-4.04762e-05
79433.3	2.93586	0.185759	2.94173	-3.62041	1166.02	0.441172	-0.0688462	10.7862	0.0430092	1	37	0.00514834	0.00175011	0	-5.62526e-05	1.25294	0.719784	25.1223	3.48626e-05	1.61469e-05	2.77107e-05	2.21621e-05	2.41168e-05	2.3687e-05	0.386852	0.454237	10.0331	2.8728e-06	3.10193e-06	2.7746e-06	3.26717e-06	2.09169e-06	1.76473e-06	0.339258	0.0214656	0.339936	3.62041	43.0093	679.748	681.107	-86.3796	0.0000000E+000	0.0000000E+000	0.0000000E+000	86.3796	0.0000000E+000	0.0000000E+000	0.0000000E+000	-86.3796	0.0000000E+000	0.0000000E+000	0.0000000E+000	-3.62041	0.0000000E+000	0.0000000E+000	0.0000000E+000	3.62041	15.8047	86.3796	-1.57764e-05
63093.8	2.93185	0.22106	2.94017	-4.31192	1166.84	0.441153	-0.0782263	11.411	0.0645058	1	37	0.00514507	0.00174992	0	-7.07215e-05	1.22703	0.581113	25.4089	3.03339e-05	1.88573e-05	2.8632e-05	1.95923e-05	2.63524e-05	1.92223e-05	0.516604	0.21039	9.94021	2.9585e-06	2.96792e-06	4.00223e-06	4.54084e-06	3.28289e-06	3.06869e-06	0.339154	0.025572	0.340116	4.31192	64.5058	855.519	857.948	-85.6881	0.0000000E+000	0.0000000E+000	0.0000000E+000	85.6881	0.0000000E+000	0.0000000E+000	0.0000000E+000	-85.6881	0.0000000E+000	0.0000000E+000	0.0000000E+000	-4.31192	0.0000000E+000	0.0000000E+000	0.0000000E+000	4.31192	13.2627	85.6881	-1.44689e-05
50122.5	2.9392	0.295938	2.95406	-5.74955	1167.65	0.441171	-0.0667431	10.7297	0.107684	1	37	0.00512474	0.00173481	0	-9.02395e-05	1.08998	1.28479	24.8103	1.55873e-05	1.90214e-05	2.77634e-05	2.85917e-05	1.14707e-05	2.56048e-05	0.565323	0.348048	10.1335	3.22581e-06	2.03923e-06	5.15178e-06	3.49467e-06	1.8584e-06	5.56848e-06	0.336814	0.0339127	0.338517	5.74955	107.684	1069.49	1074.9	-84.2505	0.0000000E+000	0.0000000E+000	0.0000000E+000	84.2505	0.0000000E+000	0.0000000E+000	0.0000000E+000	-84.2505	0.0000000E+000	0.0000000E+000	0.0000000E+000	-5.74955	0.0000000E+000	0.0000000E+000	0.0000000E+000	5.74955	9.9318	84.2505	-1.9518e-05
39814.1	2.95632	0.348851	2.97684	-6.72987	1168.47	0.441161	-0.0659428	11.4589	0.157367	1	37	0.0051632	0.00173446	0	-0.000102252	1.11199	0.689958	24.8834	2.12296e-05	2.53252e-05	3.13691e-05	2.58642e-05	8.42813e-06	1.42183e-05	0.561726	0.325996	10.3079	6.63121e-06	9.01362e-07	4.11122e-06	3.29526e-06	2.90629e-06	1.40075e-06	0.333613	0.0393668	0.335927	6.72987	157.367	1333.6	1342.85	-83.2701	0.0000000E+000	0.0000000E+000	0.0000000E+000	83.2701	0.0000000E+000	0.0000000E+000	0.0000000E+000	-83.2701	0.0000000E+000	0.0000000E+000	0.0000000E+000	-6.72987	0.0000000E+000	0.0000000E+000	0.0000000E+000	6.72987	8.47447	83.2701	-1.20122e-05
31621.1	2.97787	0.431238	3.00893	-8.23997	1169.28	0.441146	-0.0656078	11.6715	0.239737	1	37	0.00518776	0.00172412	0	-0.000115019	0.958085	0.5754	24.8022	7.99138e-06	3.48811e-05	6.02262e-06	1.3303e-05	2.00271e-05	1.86742e-05	0.61407	0.397871	10.3554	2.86846e-06	5.52845e-06	2.94375e-06	3.19782e-06	4.27738e-06	5.29424e-06	0.328913	0.0476313	0.332344	8.23997	239.737	1655.48	1672.75	-81.76	0.0000000E+000	0.0000000E+000	0.0000000E+000	81.76	0.0000000E+000	0.0000000E+000	0.0000000E+000	-81.76	0.0000000E+000	0.0000000E+000	0.0000000E+000	-8.23997	0.0000000E+000	0.0000000E+000	0.0000000E+000	8.23997	6.90539	81.76	-1.27678e-05
25116.9	3.02983	0.519641	3.07407	-9.73199	1170.1	0.441159	-0.0650867	12.1941	0.348441	1	37	0.0052125	0.00169563	0	-0.000127932	1.22495	0.993799	24.2052	1.48523e-05	3.68265e-05	2.47172e-05	1.92739e-05	2.02407e-05	2.58429e-05	0.559146	0.386704	10.479	4.21462e-06	5.47624e-06	3.28261e-06	2.91352e-06	1.02094e-06	2.76585e-06	0.32062	0.0549889	0.325301	9.73199	348.441	2031.63	2061.29	-80.268	0.0000000E+000	0.0000000E+000	0.0000000E+000	80.268	0.0000000E+000	0.0000000E+000	0.0000000E+000	-80.268	0.0000000E+000	0.0000000E+000	0.0000000E+000	-9.73199	0.0000000E+000	0.0000000E+000	0.0000000E+000	9.73199	5.83064	80.268	-1.29123e-05
19948.8	3.02158	0.633149	3.0872	-11.8347	1170.91	0.441159	-0.0606386	12.6008	0.530005	1	37	0.00509333	0.00164982	0	-0.000140318	1.50183	0.827703	25.0212	2.90937e-05	2.82934e-05	3.80162e-05	2.64087e-05	2.15835e-05	3.43677e-05	0.435249	0.347523	10.8229	2.17876e-06	3.61848e-06	2.68627e-06	3.0166e-06	1.6335e-06	2.73602e-06	0.317033	0.0664319	0.323918	11.8347	530.005	2529.34	2584.28	-78.1653	0.0000000E+000	0.0000000E+000	0.0000000E+000	78.1653	0.0000000E+000	0.0000000E+000	0.0000000E+000	-78.1653	0.0000000E+000	0.0000000E+000	0.0000000E+000	-11.8347	0.0000000E+000	0.0000000E+000	0.0000000E+000	11.8347	4.7723	78.1653	-1.23863e-05
15847.7	3.07693	0.761667	3.1698	-13.9036	1171.73	0.441155	-0.0655148	13.1853	0.761299	1	37	0.00518421	0.0016355	0	-0.000157466	1.44299	1.11015	25.122	3.99759e-05	1.66493e-05	2.40794e-05	2.45504e-05	1.61306e-05	4.6321e-05	0.615613	0.470278	10.8591	1.68722e-06	3.65766e-06	4.33512e-06	2.40144e-06	6.17126e-06	3.36019e-06	0.306234	0.0758055	0.315477	13.9036	761.299	3075.44	3168.27	-76.0964	0.0000000E+000	0.0000000E+000	0.0000000E+000	76.0964	0.0000000E+000	0.0000000E+000	0.0000000E+000	-76.0964	0.0000000E+000	0.0000000E+000	0.0000000E+000	-13.9036	0.0000000E+000	0.0000000E+000	0.0000000E+000	13.9036	4.03973	76.0964	-1.71479e-05
12590.9	3.08663	0.925426	3.22237	-16.6897	1172.54	0.441167	-0.0626486	13.6591	1.12656	1	37	0.00504607	0.00156595	0	-0.000170045	1.47126	0.701297	25.3313	3.10441e-05	2.13978e-05	2.03931e-05	4.08512e-05	3.3716e-05	1.83456e-05	0.587247	0.449055	11.5031	2.06583e-06	5.7722e-06	2.96502e-06	4.31808e-06	2.43132e-06	3.17189e-06	0.297258	0.0891232	0.310331	16.6897	1126.56	3757.47	3922.72	-73.3103	0.0000000E+000	0.0000000E+000	0.0000000E+000	73.3103	0.0000000E+000	0.0000000E+000	0.0000000E+000	-73.3103	0.0000000E+000	0.0000000E+000	0.0000000E+000	-16.6897	0.0000000E+000	0.0000000E+000	0.0000000E+000	16.6897	3.33535	73.3103	-1.25788e-05
10002.2	3.13404	1.10195	3.32212	-19.3721	1173.36	0.441165	-0.0625369	14.4398	1.58875	1	37	0.00513851	0.00154675	0	-0.000184805	1.1284	0.903497	25.2511	1.23977e-05	1.9937e-05	1.64092e-05	3.26411e-05	1.43948e-05	3.26686e-05	0.547479	0.268388	11.6092	2.4422e-06	5.55746e-06	2.89042e-06	3.33897e-06	1.35828e-06	1.23639e-06	0.28397	0.0998462	0.301012	19.3721	1588.75	4518.52	4789.69	-70.6279	0.0000000E+000	0.0000000E+000	0.0000000E+000	70.6279	0.0000000E+000	0.0000000E+000	0.0000000E+000	-70.6279	0.0000000E+000	0.0000000E+000	0.0000000E+000	-19.3721	0.0000000E+000	0.0000000E+000	0.0000000E+000	19.3721	2.84408	70.6279	-1.47603e-05
7944	3.18829	1.35675	3.46496	-23.0517	1174.21	0.441051	-0.0573258	14.7667	2.26404	1	37	0.0050698	0.00146316	0	-0.000198559	1.12622	0.678309	25.7055	1.24409e-05	3.66734e-05	1.3315e-05	1.26002e-05	1.57042e-05	2.80984e-05	0.582918	0.514429	12.2466	2.1813e-06	5.50691e-06	4.57217e-06	2.72812e-06	5.6067e-07	2.17606e-06	0.265559	0.113006	0.288604	23.0517	2264.04	5320.38	5782.07	-66.9483	0.0000000E+000	0.0000000E+000	0.0000000E+000	66.9483	0.0000000E+000	0.0000000E+000	0.0000000E+000	-66.9483	0.0000000E+000	0.0000000E+000	0.0000000E+000	-23.0517	0.0000000E+000	0.0000000E+000	0.0000000E+000	23.0517	2.34995	66.9483	-1.37543e-05
6307.74	3.23749	1.622	3.62108	-26.6111	1174.93	0.44103	-0.0639142	15.5559	3.12119	1	37	0.00542188	0.00149731	0	-0.000211667	1.51068	0.805139	23.8001	1.24948e-05	6.00552e-05	2.25486e-05	1.86027e-05	2.5326e-05	2.85851e-05	0.660024	0.366182	12.1052	1.02703e-06	6.73068e-06	3.90757e-06	1.23487e-06	2.95333e-06	3.71397e-06	0.246906	0.123701	0.276161	26.6111	3121.19	6229.87	6968.01	-63.3889	0.0000000E+000	0.0000000E+000	0.0000000E+000	63.3889	0.0000000E+000	0.0000000E+000	0.0000000E+000	-63.3889	0.0000000E+000	0.0000000E+000	0.0000000E+000	-26.6111	0.0000000E+000	0.0000000E+000	0.0000000E+000	26.6111	1.99599	63.3889	-1.31079e-05
5011.6	3.27682	2.00027	3.83909	-31.4012	1175.91	0.441033	-0.0614947	15.8765	4.30998	1	37	0.00516776	0.00134609	0	-0.000229572	1.73305	0.567803	25.4043	4.27808e-05	2.04635e-05	4.67561e-05	4.61786e-05	2.14487e-05	2.03665e-05	0.543301	0.601879	13.3491	4.16016e-06	2.78061e-06	3.37785e-06	2.78146e-06	1.27345e-06	2.37614e-06	0.222328	0.135716	0.260478	31.4012	4309.98	7060.55	8272.08	-58.5988	0.0000000E+000	0.0000000E+000	0.0000000E+000	58.5988	0.0000000E+000	0.0000000E+000	0.0000000E+000	-58.5988	0.0000000E+000	0.0000000E+000	0.0000000E+000	-31.4012	0.0000000E+000	0.0000000E+000	0.0000000E+000	31.4012	1.63819	58.5988	-1.79047e-05
3981.28	3.38842	2.49916	4.21036	-36.4109	1177.12	0.441045	-0.00278946	15.9957	5.63575	1	38	0.00506001	0.0012018	0	-0.0002331	1.48505	0.756563	25.2828	2.2105e-05	3.18522e-05	2.56541e-05	3.75166e-05	3.74601e-05	2.40593e-05	0.173385	0.107347	2.50212	9.28783e-07	9.98285e-07	4.99248e-07	1.08493e-06	5.84646e-07	5.91007e-07	0.191143	0.140979	0.237509	36.4109	5635.75	7641.09	9494.63	-53.5891	0.0000000E+000	0.0000000E+000	0.0000000E+000	53.5891	0.0000000E+000	0.0000000E+000	0.0000000E+000	-53.5891	0.0000000E+000	0.0000000E+000	0.0000000E+000	-36.4109	0.0000000E+000	0.0000000E+000	0.0000000E+000	36.4109	1.35582	53.5891	-3.52824e-06
3163.04	3.42504	3.06951	4.59922	-41.8666	1177.87	0.441039	-0.00266657	16.3925	7.30157	1	38	0.0052908	0.00115037	0	-0.000232872	1.2777	1.00589	23.4157	3.73184e-05	2.46619e-05	2.18202e-05	1.67146e-05	2.39798e-05	2.57141e-05	0.223091	0.110626	2.63163	2.03557e-06	3.50102e-07	4.32861e-07	5.71256e-07	9.59636e-07	8.89613e-07	0.161919	0.145111	0.217428	41.8666	7301.57	8147.29	10940.4	-48.1334	0.0000000E+000	0.0000000E+000	0.0000000E+000	48.1334	0.0000000E+000	0.0000000E+000	0.0000000E+000	-48.1334	0.0000000E+000	0.0000000E+000	0.0000000E+000	-41.8666	0.0000000E+000	0.0000000E+000	0.0000000E+000	41.8666	1.11583	48.1334	2.28065e-07
2512.41	3.5654	3.79503	5.20714	-46.7869	1178.61	0.441042	-0.00250086	16.6922	8.86637	1	38	0.00535742	0.00102886	0	-0.000233882	1.21289	1.34346	23.5418	7.72821e-06	2.01753e-05	3.17113e-05	4.70767e-05	1.9938e-05	3.10139e-06	0.324235	0.158466	2.86912	2.92828e-06	8.22358e-07	4.97221e-07	9.33577e-07	4.36505e-07	6.48499e-07	0.131495	0.139964	0.192044	46.7869	8866.37	8329.88	12165.5	-43.2131	0.0000000E+000	0.0000000E+000	0.0000000E+000	43.2131	0.0000000E+000	0.0000000E+000	0.0000000E+000	-43.2131	0.0000000E+000	0.0000000E+000	0.0000000E+000	-46.7869	0.0000000E+000	0.0000000E+000	0.0000000E+000	46.7869	0.939492	43.2131	-1.01009e-06
1995.64	3.63246	4.69249	5.93415	-52.2565	1179.35	0.441038	-0.00337039	16.9956	10.6273	1	38	0.00522368	0.000880273	0	-0.000234221	0.972382	0.711501	24.4062	1.44603e-05	2.42499e-05	9.75501e-06	2.44414e-05	1.64856e-05	2.48685e-05	0.352249	0.0880374	3.42638	2.62863e-06	1.02527e-06	6.5495e-07	8.39821e-07	3.31155e-07	3.84654e-07	0.103153	0.133256	0.168516	52.2565	10627.3	8226.62	13439.4	-37.7435	0.0000000E+000	0.0000000E+000	0.0000000E+000	37.7435	0.0000000E+000	0.0000000E+000	0.0000000E+000	-37.7435	0.0000000E+000	0.0000000E+000	0.0000000E+000	-52.2565	0.0000000E+000	0.0000000E+000	0.0000000E+000	52.2565	0.774101	37.7435	-3.38906e-07
1584.49	3.75002	5.75332	6.86756	-56.9037	1180.1	0.44106	-0.00241708	17.4587	12.253	1	38	0.00505174	0.000735594	0	-0.000235386	1.25447	0.55509	24.2088	3.71119e-05	1.49005e-05	3.33351e-05	2.72095e-05	1.38916e-05	7.02589e-06	0.427402	0.0653277	4.08269	2.45552e-06	1.10026e-06	5.22426e-07	1.34178e-06	2.67892e-07	3.76408e-07	0.0795112	0.121987	0.145612	56.9037	12253	7986.54	14626.1	-33.0963	0.0000000E+000	0.0000000E+000	0.0000000E+000	33.0963	0.0000000E+000	0.0000000E+000	0.0000000E+000	-33.0963	0.0000000E+000	0.0000000E+000	0.0000000E+000	-56.9037	0.0000000E+000	0.0000000E+000	0.0000000E+000	56.9037	0.6518	33.0963	-1.16534e-06
1258.79	3.96668	7.10685	8.13891	-60.832	1180.84	0.441026	-0.00373906	17.7906	13.5647	1	38	0.00494247	0.000607265	0	-0.000236274	1.23471	1.09004	25.6391	2.39293e-05	1.63199e-05	3.47528e-05	2.63171e-05	7.05229e-06	1.08821e-05	0.564837	0.215319	4.92346	2.60921e-06	1.7098e-06	7.59154e-07	4.05084e-07	4.49763e-07	7.53931e-07	0.0598818	0.107286	0.122867	60.832	13564.7	7571.14	15534.6	-29.168	0.0000000E+000	0.0000000E+000	0.0000000E+000	29.168	0.0000000E+000	0.0000000E+000	0.0000000E+000	-29.168	0.0000000E+000	0.0000000E+000	0.0000000E+000	-60.832	0.0000000E+000	0.0000000E+000	0.0000000E+000	60.832	0.558149	29.168	-8.87453e-07
999.682	4.15084	8.78877	9.71967	-64.7191	1181.58	0.441069	-0.00275037	18.1147	14.811	1	38	0.00483299	0.000497238	0	-0.000236723	1.23087	0.913504	25.6827	1.86166e-05	2.90397e-05	1.81224e-05	1.59412e-05	2.87571e-05	2.98929e-05	0.581496	0.174275	6.01241	1.91646e-06	1.52172e-06	4.25213e-07	1.2841e-06	3.07617e-07	4.37691e-07	0.0439373	0.0930304	0.102884	64.7191	14811	6995.06	16379.7	-25.2809	0.0000000E+000	0.0000000E+000	0.0000000E+000	25.2809	0.0000000E+000	0.0000000E+000	0.0000000E+000	-25.2809	0.0000000E+000	0.0000000E+000	0.0000000E+000	-64.7191	0.0000000E+000	0.0000000E+000	0.0000000E+000	64.7191	0.472289	25.2809	-4.49015e-07
794.239	4.3957	10.8619	11.7177	-67.9674	1182.33	0.441044	-0.00305573	18.4486	15.8524	1	38	0.00474803	0.000405203	0	-0.000237311	1.33735	0.623867	25.9925	2.07259e-05	1.47407e-05	2.38226e-05	3.78529e-05	2.72971e-05	1.89993e-05	0.720494	0.190845	7.41428	1.95368e-06	1.06033e-06	6.35936e-07	9.1109e-07	6.27837e-07	9.50203e-07	0.0320145	0.0791089	0.0853413	67.9674	15852.4	6415.27	17101.3	-22.0326	0.0000000E+000	0.0000000E+000	0.0000000E+000	22.0326	0.0000000E+000	0.0000000E+000	0.0000000E+000	-22.0326	0.0000000E+000	0.0000000E+000	0.0000000E+000	-67.9674	0.0000000E+000	0.0000000E+000	0.0000000E+000	67.9674	0.404689	22.0326	-5.88337e-07
631.01	4.69671	13.5245	14.3168	-70.8492	1183.07	0.441062	-0.00244502	18.6493	16.6423	1	38	0.00471807	0.000329548	0	-0.000237854	1.84757	0.516631	26.6156	1.5274e-05	5.86997e-05	3.62746e-05	1.66985e-05	2.68286e-05	2.68874e-05	1.04367	0.226154	9.10129	1.95207e-06	2.3639e-06	4.78768e-07	1.30286e-06	5.6484e-07	3.45822e-07	0.0229141	0.0659825	0.069848	70.8492	16642.3	5779.45	17617.3	-19.1508	0.0000000E+000	0.0000000E+000	0.0000000E+000	19.1508	0.0000000E+000	0.0000000E+000	0.0000000E+000	-19.1508	0.0000000E+000	0.0000000E+000	0.0000000E+000	-70.8492	0.0000000E+000	0.0000000E+000	0.0000000E+000	70.8492	0.347275	19.1508	-5.42993e-07
501.122	5.16655	16.7563	17.5347	-72.8636	1183.81	0.441061	-0.000348486	18.9539	17.3084	1	38	0.00468522	0.000267197	0	-0.000238244	1.63636	0.909867	26.6354	1.53184e-05	2.34371e-05	3.32162e-05	3.08634e-05	1.92126e-05	3.99251e-05	0.844911	0.369574	11.3085	1.26877e-06	8.77318e-07	5.75803e-07	1.27738e-06	2.09787e-07	7.76692e-07	0.0168036	0.054498	0.0570298	72.8636	17308.4	5336.79	18112.5	-17.1364	0.0000000E+000	0.0000000E+000	0.0000000E+000	17.1364	0.0000000E+000	0.0000000E+000	0.0000000E+000	-17.1364	0.0000000E+000	0.0000000E+000	0.0000000E+000	-72.8636	0.0000000E+000	0.0000000E+000	0.0000000E+000	72.8636	0.308335	17.1364	-3.89501e-07
398.089	5.67973	20.689	21.4545	-74.6489	1184.56	0.44108	-0.00195347	19.3241	17.9698	1	38	0.00464074	0.000216306	0	-0.000238577	1.55011	0.491261	26.023	2.1623e-05	2.9162e-05	2.66957e-05	3.05094e-05	8.19103e-06	3.2092e-05	1.21365	0.494036	13.9935	1.91638e-06	6.50765e-07	7.48305e-07	1.16282e-06	6.17386e-07	4.15367e-07	0.0123393	0.0449473	0.0466103	74.6489	17969.8	4933.23	18634.7	-15.3511	0.0000000E+000	0.0000000E+000	0.0000000E+000	15.3511	0.0000000E+000	0.0000000E+000	0.0000000E+000	-15.3511	0.0000000E+000	0.0000000E+000	0.0000000E+000	-74.6489	0.0000000E+000	0.0000000E+000	0.0000000E+000	74.6489	0.274529	15.3511	-3.33513e-07
316.316	6.13887	25.7688	26.49	-76.6003	1185.3	0.441052	-0.0010914	19.5256	18.477	1	38	0.0046424	0.000175251	0	-0.000238618	1.44497	0.788366	26.6171	2.78492e-05	9.24583e-06	4.0341e-05	1.90481e-05	2.57896e-05	2.922e-05	1.27801	0.632918	17.0263	1.02594e-06	6.60719e-07	4.53475e-07	7.78084e-07	1.00983e-06	1.25746e-06	0.00874835	0.0367225	0.0377502	76.6003	18477	4401.75	18994.1	-13.3997	0.0000000E+000	0.0000000E+000	0.0000000E+000	13.3997	0.0000000E+000	0.0000000E+000	0.0000000E+000	-13.3997	0.0000000E+000	0.0000000E+000	0.0000000E+000	-76.6003	0.0000000E+000	0.0000000E+000	0.0000000E+000	76.6003	0.238229	13.3997	-4.07712e-08
251.206	7.15603	32.0397	32.8291	-77.4097	1186.29	0.441072	0.00180245	19.7743	18.8348	1	39	0.0047633	0.000145094	0	-0.000238239	1.49244	0.774475	26.6003	2.89584e-05	2.57027e-05	3.41355e-05	2.39557e-05	2.15029e-05	2.68888e-05	0.864345	0.218165	8.86809	8.05553e-07	3.97108e-07	4.58695e-07	5.63802e-07	1.96795e-07	3.10702e-07	0.00663979	0.0297283	0.0304608	77.4097	18834.8	4206.73	19298.8	-12.5903	0.0000000E+000	0.0000000E+000	0.0000000E+000	12.5903	0.0000000E+000	0.0000000E+000	0.0000000E+000	-12.5903	0.0000000E+000	0.0000000E+000	0.0000000E+000	-77.4097	0.0000000E+000	0.0000000E+000	0.0000000E+000	77.4097	0.223349	12.5903	3.78572e-07
199.553	8.17793	39.3426	40.1836	-78.2575	1187.04	0.441058	0.00171429	20.2721	19.4324	1	39	0.00467298	0.000116291	0	-0.000238015	1.28149	1.01443	26.9708	2.50262e-05	1.98213e-05	2.34309e-05	3.37749e-05	1.2805e-05	2.31949e-05	0.969841	0.303527	10.7706	6.50589e-07	2.9286e-07	2.49096e-07	7.28702e-07	2.44127e-07	2.03963e-07	0.00506461	0.024365	0.0248858	78.2575	19432.4	4039.31	19847.8	-11.7425	0.0000000E+000	0.0000000E+000	0.0000000E+000	11.7425	0.0000000E+000	0.0000000E+000	0.0000000E+000	-11.7425	0.0000000E+000	0.0000000E+000	0.0000000E+000	-78.2575	0.0000000E+000	0.0000000E+000	0.0000000E+000	78.2575	0.207864	11.7425	2.24756e-07
158.529	9.3985	49.0177	49.9106	-79.146	1187.79	0.441042	0.00155847	20.4814	19.7551	1	39	0.00465659	9.32987e-05	0	-0.000237605	1.20048	0.579218	27.9127	1.6587e-05	2.43818e-05	1.60898e-05	3.78797e-05	1.11261e-05	1.94289e-05	0.917044	0.442772	13.4761	3.93882e-07	3.01812e-07	2.83159e-07	4.91037e-07	8.97078e-08	1.61546e-07	0.00377288	0.0196774	0.0200358	79.146	19755.1	3787.78	20114.9	-10.854	0.0000000E+000	0.0000000E+000	0.0000000E+000	10.854	0.0000000E+000	0.0000000E+000	0.0000000E+000	-10.854	0.0000000E+000	0.0000000E+000	0.0000000E+000	-79.146	0.0000000E+000	0.0000000E+000	0.0000000E+000	79.146	0.191737	10.854	4.0987e-07
125.927	12.0365	60.5998	61.7836	-78.7659	1188.53	0.441035	0.00165819	20.856	20.0644	1	39	0.0046379	7.50669e-05	0	-0.000237269	1.3903	0.447042	27.3229	4.93508e-05	2.63832e-05	5.6254e-06	2.22206e-05	1.33465e-05	1.41275e-05	1.10622	0.407894	16.5265	4.3628e-07	2.94436e-07	8.9739e-08	5.32783e-07	1.16189e-07	2.15796e-07	0.00315322	0.0158754	0.0161855	78.7659	20064.4	3985.26	20456.4	-11.2341	0.0000000E+000	0.0000000E+000	0.0000000E+000	11.2341	0.0000000E+000	0.0000000E+000	0.0000000E+000	-11.2341	0.0000000E+000	0.0000000E+000	0.0000000E+000	-78.7659	0.0000000E+000	0.0000000E+000	0.0000000E+000	78.7659	0.198623	11.2341	3.35853e-07
99.9682	15.0077	75.3147	76.7954	-78.7305	1189.26	0.441055	0.00158699	21.1387	20.3314	1	39	0.00463196	6.03156e-05	0	-0.000236928	1.24463	0.720403	27.5025	1.33187e-05	1.11425e-05	3.15093e-05	2.41389e-05	1.83526e-05	3.1348e-05	1.19378	0.567652	21.1126	4.65657e-07	3.11324e-07	1.75312e-07	2.97535e-07	2.12243e-07	1.24967e-07	0.00254474	0.0127705	0.0130216	78.7305	20331.4	4051.37	20731.2	-11.2695	0.0000000E+000	0.0000000E+000	0.0000000E+000	11.2695	0.0000000E+000	0.0000000E+000	0.0000000E+000	-11.2695	0.0000000E+000	0.0000000E+000	0.0000000E+000	-78.7305	0.0000000E+000	0.0000000E+000	0.0000000E+000	78.7305	0.199266	11.2695	3.40729e-07