File: Python/Data/GoldElectrode/240322/Carbon/240322-CVEIS-Activation-5mM_Fe2Fe3-1M_H2SO4-0000RPM-Ag_AgCl_BLF8-GC_RDE_10_PEIS_C15.mpt
EC-Lab ASCII FILE
Nb header lines : 66

Potentio Electrochemical Impedance Spectroscopy

Run on channel : 15 (SN 19485)
User :
Electrode connection : standard
Potential control : Ewe
Ewe ctrl range : min = -2.50 V, max = 2.50 V
Ewe,I filtering : 50 kHz
Safety Limits :
	Do not start on E overload
Channel : Floating
Acquisition started on : 03/22/2024 12:39:19.547
Loaded Setting File :  C:\Data\mathias\GoldElectrode\240322-CVEIS-Activation-5mM_Fe2Fe3-1M_H2SO4-0000RPM-Ag_AgCl_BLF8-Au_RDE.mps
Saved on :
	File : 240322-CVEIS-Activation-5mM_Fe2Fe3-1M_H2SO4-0000RPM-Ag_AgCl_BLF8-GC_RDE_10_PEIS_C15.mpr
	Directory : C:\Data\mathias\GoldElectrode\
	Host : 192.168.0.1
Device : VMP-300 (SN 0826)
Address : USB
EC-Lab for windows v11.52 (software)
Internet server v11.52 (firmware)
Command interpretor v11.52 (firmware)
Electrode material :
Initial state :
Electrolyte :
Comments :
Cable : special
Electrode surface area : 0.001 cm²
Characteristic mass : 0.001 g
Equivalent Weight : 0.000 g/eq.
Density : 0.000 g/cm3
Volume (V) : 0.001 cm³
Record EIS quality indicators
Cycle Definition : Charge/Discharge alternance
Mode                Single sine
E (V)               0.0000
vs.                 Eoc
tE (h:m:s)          0:00:0.0000
record              0
dI                  0.000
unit dI             mA
dt (s)              0.000
fi                  100.000
unit fi             kHz
ff                  100.000
unit ff             Hz
Nd                  10
Points              per decade
spacing             Logarithmic
Va (mV)             5.0
pw                  0.10
Na                  2
corr                0
E range min (V)     -2.500
E range max (V)     2.500
I Range             Auto
Bandwidth           8
nc cycles           0
goto Ns'            0
nr cycles           0
inc. cycle          0

freq/Hz	Re(Z)/Ohm	-Im(Z)/Ohm	|Z|/Ohm	Phase(Z)/deg	time/s	<Ewe>/V	<I>/mA	Cs/µF	Cp/µF	cycle number	I Range	|Ewe|/V	|I|/A	Ns	(Q-Qo)/mA.h	THD Ewe/%	NSD Ewe/%	NSR Ewe/%	|Ewe h2|/V	|Ewe h3|/V	|Ewe h4|/V	|Ewe h5|/V	|Ewe h6|/V	|Ewe h7|/V	THD I/%	NSD I/%	NSR I/%	|I h2|/A	|I h3|/A	|I h4|/A	|I h5|/A	|I h6|/A	|I h7|/A	Re(Y)/Ohm-1	Im(Y)/Ohm-1	|Y|/Ohm-1	Phase(Y)/deg	Re(C)/nF	Im(C)/nF	|C|/nF	Phase(C)/deg	Re(M)	Im(M)	|M|	Phase(M)/deg	Re(Permittivity)	Im(Permittivity)	|Permittivity|	Phase(Permittivity)/deg	Re(Resistivity)/Ohm.cm	Im(Resistivity)/Ohm.cm	|Resistivity|/Ohm.cm	Phase(Resistivity)/deg	Re(Conductivity)/mS/cm	Im(Conductivity)/mS/cm	|Conductivity|/mS/cm	Phase(Conductivity)/deg	Tan(Delta)	Loss Angle(Delta)/deg	dq/mA.h
100004	2.94466	0.144774	2.94822	-2.81467	1552.43	0.441177	-0.176383	10.9929	0.0265079	1	37	0.00481909	0.00163458	0	-4.22502e-05	1.55069	0.716361	27.6949	3.9866e-05	1.73641e-05	3.14638e-05	1.43067e-05	1.80679e-05	3.23415e-05	0.499391	0.403305	10.747	3.01778e-06	2.0817e-06	5.40883e-06	3.0476e-07	3.40676e-06	2.58695e-06	0.338779	0.016656	0.339188	2.81467	26.5079	539.163	539.814	-87.1853	0.0000000E+000	0.0000000E+000	0.0000000E+000	87.1853	0.0000000E+000	0.0000000E+000	0.0000000E+000	-87.1853	0.0000000E+000	0.0000000E+000	0.0000000E+000	-2.81467	0.0000000E+000	0.0000000E+000	0.0000000E+000	2.81467	20.3397	87.1853	-4.22502e-05
79433.3	2.9336	0.176308	2.9389	-3.4393	1553.25	0.441183	-0.0743365	11.3644	0.0408997	1	37	0.00510579	0.00173731	0	-5.91998e-05	1.16637	0.709193	25.0393	3.16092e-05	1.85852e-05	2.50461e-05	2.59076e-05	1.57388e-05	1.63471e-05	0.500065	0.183839	10.2027	5.48976e-06	2.68192e-06	2.00758e-06	1.87354e-06	4.4813e-06	2.8889e-06	0.339651	0.0204128	0.340264	3.4393	40.8997	680.535	681.763	-86.5607	0.0000000E+000	0.0000000E+000	0.0000000E+000	86.5607	0.0000000E+000	0.0000000E+000	0.0000000E+000	-86.5607	0.0000000E+000	0.0000000E+000	0.0000000E+000	-3.4393	0.0000000E+000	0.0000000E+000	0.0000000E+000	3.4393	16.6391	86.5607	-1.69495e-05
63093.8	2.91803	0.209387	2.92553	-4.10429	1554.06	0.441161	-0.0762721	12.0472	0.0617123	1	37	0.00512944	0.00175334	0	-7.8237e-05	1.25934	0.783768	25.4824	2.62908e-05	3.84056e-05	2.44054e-05	1.38213e-05	2.15862e-05	1.90111e-05	0.384041	0.31159	10.1136	2.6385e-06	2.99719e-06	2.54627e-06	1.46315e-06	2.09138e-06	3.49467e-06	0.340941	0.0244646	0.341818	4.10429	61.7123	860.029	862.24	-85.8957	0.0000000E+000	0.0000000E+000	0.0000000E+000	85.8957	0.0000000E+000	0.0000000E+000	0.0000000E+000	-85.8957	0.0000000E+000	0.0000000E+000	0.0000000E+000	-4.10429	0.0000000E+000	0.0000000E+000	0.0000000E+000	4.10429	13.9361	85.8957	-1.90373e-05
50122.5	2.9352	0.247214	2.94559	-4.81432	1554.88	0.441178	-0.0772026	12.8444	0.0904724	1	37	0.00514457	0.00174653	0	-9.37311e-05	1.53231	1.15957	24.9559	2.47025e-05	1.33103e-05	2.68742e-05	4.89616e-05	2.62759e-05	3.89108e-05	0.509919	0.273276	10.1552	2.14271e-06	1.68211e-06	1.73565e-06	3.96937e-06	4.10786e-06	3.98093e-06	0.338293	0.0284924	0.33949	4.81432	90.4724	1074.19	1077.99	-85.1857	0.0000000E+000	0.0000000E+000	0.0000000E+000	85.1857	0.0000000E+000	0.0000000E+000	0.0000000E+000	-85.1857	0.0000000E+000	0.0000000E+000	0.0000000E+000	-4.81432	0.0000000E+000	0.0000000E+000	0.0000000E+000	4.81432	11.8731	85.1857	-1.54941e-05
39814.1	2.95686	0.319092	2.97402	-6.15929	1555.69	0.441162	-0.0727918	12.5276	0.144215	1	37	0.00518648	0.00174393	0	-0.000110808	0.952575	0.611613	24.7146	1.65757e-05	8.12437e-06	1.31871e-05	1.70179e-05	1.02476e-05	2.89853e-05	0.593567	0.222951	10.2029	3.12654e-06	2.63276e-06	3.72498e-06	3.79781e-06	5.59257e-06	4.8445e-06	0.334304	0.0360767	0.336245	6.15929	144.215	1336.37	1344.12	-83.8407	0.0000000E+000	0.0000000E+000	0.0000000E+000	83.8407	0.0000000E+000	0.0000000E+000	0.0000000E+000	-83.8407	0.0000000E+000	0.0000000E+000	0.0000000E+000	-6.15929	0.0000000E+000	0.0000000E+000	0.0000000E+000	6.15929	9.26648	83.8407	-1.70769e-05
31621.1	2.97615	0.390966	3.00172	-7.48388	1556.51	0.441156	-0.0783751	12.8737	0.218394	1	37	0.00517146	0.00172283	0	-0.000129937	1.28267	0.757243	24.9982	3.62026e-05	2.24575e-05	2.63499e-05	2.8692e-05	1.49474e-05	2.66281e-05	0.678538	0.294698	10.2887	7.89676e-06	4.29504e-06	3.73579e-06	1.96929e-06	4.06578e-06	3.43454e-06	0.330304	0.0433908	0.333142	7.48388	218.394	1662.48	1676.77	-82.5161	0.0000000E+000	0.0000000E+000	0.0000000E+000	82.5161	0.0000000E+000	0.0000000E+000	0.0000000E+000	-82.5161	0.0000000E+000	0.0000000E+000	0.0000000E+000	-7.48388	0.0000000E+000	0.0000000E+000	0.0000000E+000	7.48388	7.61231	82.5161	-1.91294e-05
25116.9	2.97865	0.472708	3.01593	-9.01757	1557.32	0.44116	-0.0773143	13.4048	0.329311	1	37	0.00505425	0.00167585	0	-0.00014861	1.20729	1.56856	25.3638	1.9868e-05	1.60593e-05	3.34485e-05	2.61076e-05	1.97315e-05	2.58686e-05	0.652567	0.343403	10.629	6.50492e-06	2.4485e-06	3.53644e-06	5.05322e-06	3.61116e-06	3.43525e-06	0.327475	0.0519699	0.331573	9.01757	329.311	2075.07	2101.04	-80.9824	0.0000000E+000	0.0000000E+000	0.0000000E+000	80.9824	0.0000000E+000	0.0000000E+000	0.0000000E+000	-80.9824	0.0000000E+000	0.0000000E+000	0.0000000E+000	-9.01757	0.0000000E+000	0.0000000E+000	0.0000000E+000	9.01757	6.30124	80.9824	-1.86721e-05
19948.8	3.03557	0.564739	3.08765	-10.5389	1558.14	0.441161	-0.0758626	14.1272	0.472601	1	37	0.00515998	0.00167117	0	-0.000167651	1.8592	0.3428	25.1574	2.65839e-05	2.56249e-05	6.51137e-05	2.55412e-05	2.51149e-05	1.42792e-05	0.719534	0.31694	10.8492	3.53498e-06	3.58764e-06	4.86805e-06	6.53412e-06	5.7587e-06	3.87259e-06	0.318407	0.0592367	0.323871	10.5389	472.601	2540.31	2583.9	-79.4611	0.0000000E+000	0.0000000E+000	0.0000000E+000	79.4611	0.0000000E+000	0.0000000E+000	0.0000000E+000	-79.4611	0.0000000E+000	0.0000000E+000	0.0000000E+000	-10.5389	0.0000000E+000	0.0000000E+000	0.0000000E+000	10.5389	5.37517	79.4611	-1.90412e-05
15847.7	3.03404	0.677328	3.10872	-12.5845	1558.95	0.441176	-0.0714145	14.8271	0.703864	1	37	0.00507685	0.0016331	0	-0.000181393	2.19617	0.525718	25.5834	3.77429e-05	3.61169e-05	1.33643e-05	1.25407e-05	2.16945e-05	9.32685e-05	0.638281	0.270308	10.8413	3.83501e-06	1.64905e-06	4.08252e-06	6.20051e-06	3.83443e-06	3.34159e-06	0.313947	0.0700865	0.321675	12.5845	703.864	3152.91	3230.52	-77.4155	0.0000000E+000	0.0000000E+000	0.0000000E+000	77.4155	0.0000000E+000	0.0000000E+000	0.0000000E+000	-77.4155	0.0000000E+000	0.0000000E+000	0.0000000E+000	-12.5845	0.0000000E+000	0.0000000E+000	0.0000000E+000	12.5845	4.47943	77.4155	-1.37422e-05
12590.9	3.08287	0.843542	3.19619	-15.3028	1559.77	0.44114	-0.0716937	14.985	1.04377	1	37	0.00509786	0.00159498	0	-0.000200202	1.69635	0.995962	25.3031	5.11779e-05	3.34165e-05	2.87576e-05	4.19989e-05	2.36381e-05	1.2304e-05	0.5617	0.42247	11.4422	3.72381e-06	1.74092e-06	3.54666e-06	2.65235e-06	2.29301e-06	4.94626e-06	0.301779	0.0825735	0.312872	15.3028	1043.77	3814.62	3954.84	-74.6972	0.0000000E+000	0.0000000E+000	0.0000000E+000	74.6972	0.0000000E+000	0.0000000E+000	0.0000000E+000	-74.6972	0.0000000E+000	0.0000000E+000	0.0000000E+000	-15.3028	0.0000000E+000	0.0000000E+000	0.0000000E+000	15.3028	3.65467	74.6972	-1.88092e-05
10002.2	3.10201	0.998942	3.25889	-17.8501	1560.58	0.441139	-0.075509	15.9288	1.49667	1	37	0.00504852	0.00154915	0	-0.000212956	1.32127	0.816907	25.2973	3.51141e-05	3.47814e-05	1.92917e-05	8.43479e-06	2.94752e-05	2.05056e-05	0.628698	0.25152	11.633	5.83555e-06	1.88753e-06	2.77059e-06	3.03421e-06	3.59988e-06	4.67698e-06	0.292082	0.0940592	0.306853	17.8501	1496.67	4647.59	4882.63	-72.1498	0.0000000E+000	0.0000000E+000	0.0000000E+000	72.1498	0.0000000E+000	0.0000000E+000	0.0000000E+000	-72.1498	0.0000000E+000	0.0000000E+000	0.0000000E+000	-17.8501	0.0000000E+000	0.0000000E+000	0.0000000E+000	17.8501	3.10529	72.1498	-1.2754e-05
7944	3.12999	1.22086	3.35966	-21.3084	1561.43	0.441032	-0.074839	16.4103	2.16698	1	37	0.00510361	0.00151909	0	-0.000228193	1.43942	0.620329	25.9283	1.69651e-05	2.72992e-05	2.66397e-05	4.64087e-05	9.72529e-06	3.11005e-05	0.533692	0.328732	11.7986	2.95289e-06	3.5657e-06	5.07537e-06	3.18672e-06	1.71635e-06	1.70754e-06	0.277301	0.108162	0.297649	21.3084	2166.98	5555.63	5963.29	-68.6916	0.0000000E+000	0.0000000E+000	0.0000000E+000	68.6916	0.0000000E+000	0.0000000E+000	0.0000000E+000	-68.6916	0.0000000E+000	0.0000000E+000	0.0000000E+000	-21.3084	0.0000000E+000	0.0000000E+000	0.0000000E+000	21.3084	2.56376	68.6916	-1.52373e-05
6307.74	3.19477	1.48902	3.52473	-24.9893	1562.33	0.441037	-0.0667803	16.9452	3.02409	1	37	0.00506158	0.00143602	0	-0.000247132	1.31021	0.813479	25.5151	3.04598e-05	4.51818e-05	1.43402e-05	2.0341e-05	1.22942e-05	1.7077e-05	0.596305	0.485033	12.6552	5.20452e-06	2.66729e-06	1.64141e-06	2.67376e-06	4.68574e-06	1.57509e-06	0.257151	0.119853	0.28371	24.9893	3024.09	6488.35	7158.48	-65.0107	0.0000000E+000	0.0000000E+000	0.0000000E+000	65.0107	0.0000000E+000	0.0000000E+000	0.0000000E+000	-65.0107	0.0000000E+000	0.0000000E+000	0.0000000E+000	-24.9893	0.0000000E+000	0.0000000E+000	0.0000000E+000	24.9893	2.14556	65.0107	-1.89385e-05
5011.6	3.23579	1.82659	3.71575	-29.4446	1563.09	0.441048	-0.0690509	17.3861	4.20139	1	37	0.0052874	0.00142297	0	-0.000260719	1.30606	0.698328	24.6315	2.41589e-05	1.72199e-05	1.98555e-05	2.9754e-05	3.93688e-05	2.69022e-05	0.83635	0.416999	12.7262	6.2995e-06	3.31389e-06	1.43729e-06	4.20921e-06	5.15668e-06	3.67729e-06	0.234362	0.132297	0.269125	29.4446	4201.38	7442.72	8546.68	-60.5554	0.0000000E+000	0.0000000E+000	0.0000000E+000	60.5554	0.0000000E+000	0.0000000E+000	0.0000000E+000	-60.5554	0.0000000E+000	0.0000000E+000	0.0000000E+000	-29.4446	0.0000000E+000	0.0000000E+000	0.0000000E+000	29.4446	1.77149	60.5554	-1.3587e-05
3981.28	3.31442	2.26365	4.01366	-34.332	1564.31	0.441057	-0.00238542	17.6599	5.61728	1	38	0.00507493	0.00126441	0	-0.000267246	1.2884	0.46785	24.1411	3.54251e-05	1.68868e-05	2.11754e-05	1.45111e-05	2.4037e-05	3.46167e-05	0.162007	0.128762	2.37354	1.61584e-06	2.0311e-07	4.74455e-07	6.30443e-07	5.24377e-07	4.86881e-07	0.205743	0.140517	0.249149	34.332	5617.28	8224.76	9959.94	-55.668	0.0000000E+000	0.0000000E+000	0.0000000E+000	55.668	0.0000000E+000	0.0000000E+000	0.0000000E+000	-55.668	0.0000000E+000	0.0000000E+000	0.0000000E+000	-34.332	0.0000000E+000	0.0000000E+000	0.0000000E+000	34.332	1.46419	55.668	-6.52705e-06
3163.04	3.36742	2.7718	4.36147	-39.4586	1565.05	0.44102	-0.00269077	18.1532	7.33182	1	38	0.00538056	0.00123366	0	-0.000267057	1.3728	0.736133	22.9869	2.18774e-05	1.59857e-05	2.23055e-05	3.46704e-05	2.70271e-05	3.8466e-05	0.24408	0.0941537	2.41859	2.22091e-06	8.01384e-07	7.92512e-07	8.63113e-07	7.75389e-07	1.05512e-06	0.177024	0.145712	0.229281	39.4586	7331.82	8907.33	11536.7	-50.5414	0.0000000E+000	0.0000000E+000	0.0000000E+000	50.5414	0.0000000E+000	0.0000000E+000	0.0000000E+000	-50.5414	0.0000000E+000	0.0000000E+000	0.0000000E+000	-39.4586	0.0000000E+000	0.0000000E+000	0.0000000E+000	39.4586	1.21489	50.5414	1.88653e-07
2512.41	3.46917	3.40923	4.86395	-44.5007	1565.8	0.44106	-0.00341321	18.5812	9.12867	1	38	0.00546842	0.00112427	0	-0.000268494	1.16398	0.959706	22.6983	2.06911e-05	1.57887e-05	1.32823e-05	3.4386e-05	3.2474e-05	2.64043e-05	0.280908	0.0837043	2.64703	2.77832e-06	6.0177e-07	9.15577e-07	2.70799e-07	6.00492e-07	6.10608e-07	0.146638	0.144105	0.205594	44.5007	9128.67	9289.18	13023.9	-45.4993	0.0000000E+000	0.0000000E+000	0.0000000E+000	45.4993	0.0000000E+000	0.0000000E+000	0.0000000E+000	-45.4993	0.0000000E+000	0.0000000E+000	0.0000000E+000	-44.5007	0.0000000E+000	0.0000000E+000	0.0000000E+000	44.5007	1.01758	45.4993	-1.43673e-06
1995.64	3.55417	4.20505	5.50587	-49.795	1566.54	0.441049	-0.00330522	18.9656	11.0626	1	38	0.00537696	0.000976586	0	-0.000268318	1.1269	1.21462	23.0943	1.24315e-05	3.68013e-05	1.75549e-05	2.65826e-05	1.42848e-05	2.07405e-05	0.397845	0.149785	3.0419	3.42155e-06	1.29559e-06	2.86974e-07	7.88267e-07	6.68813e-07	3.56045e-07	0.117243	0.138714	0.181624	49.795	11062.6	9350.29	14484.8	-40.205	0.0000000E+000	0.0000000E+000	0.0000000E+000	40.205	0.0000000E+000	0.0000000E+000	0.0000000E+000	-40.205	0.0000000E+000	0.0000000E+000	0.0000000E+000	-49.795	0.0000000E+000	0.0000000E+000	0.0000000E+000	49.795	0.845214	40.205	1.75498e-07
1584.49	3.68255	5.21384	6.3832	-54.7663	1567.28	0.441059	-0.00448383	19.2652	12.8532	1	38	0.00525331	0.000822991	0	-0.00026911	1.26727	0.65486	23.7542	3.78923e-05	2.82291e-05	1.26548e-05	2.1542e-05	1.07853e-05	3.53385e-05	0.490106	0.0853411	3.63047	3.5455e-06	8.07189e-07	7.50934e-07	8.32644e-07	6.5887e-07	7.01942e-07	0.0903798	0.127962	0.156661	54.7663	12853.2	9078.23	15735.9	-35.2337	0.0000000E+000	0.0000000E+000	0.0000000E+000	35.2337	0.0000000E+000	0.0000000E+000	0.0000000E+000	-35.2337	0.0000000E+000	0.0000000E+000	0.0000000E+000	-54.7663	0.0000000E+000	0.0000000E+000	0.0000000E+000	54.7663	0.706303	35.2337	-7.91483e-07
1258.79	3.77206	6.44483	7.46755	-59.6602	1568.03	0.441024	-0.00494373	19.618	14.6124	1	38	0.00509524	0.000682318	0	-0.000270568	1.15641	0.929325	24.518	3.05784e-05	1.37627e-05	2.5914e-05	1.68662e-05	1.1329e-05	1.687e-05	0.547508	0.18287	4.35969	2.92488e-06	1.43987e-06	7.26131e-07	1.28395e-06	6.02e-07	7.91664e-07	0.067643	0.115573	0.133913	59.6602	14612.4	8552.43	16931.2	-30.3398	0.0000000E+000	0.0000000E+000	0.0000000E+000	30.3398	0.0000000E+000	0.0000000E+000	0.0000000E+000	-30.3398	0.0000000E+000	0.0000000E+000	0.0000000E+000	-59.6602	0.0000000E+000	0.0000000E+000	0.0000000E+000	59.6602	0.585285	30.3398	-1.45767e-06
999.682	3.97073	8.00734	8.9378	-63.6238	1568.77	0.441061	-0.00453224	19.8825	15.9583	1	38	0.00501401	0.000560989	0	-0.000271165	1.40904	0.696661	24.4491	2.34969e-05	2.95314e-05	2.68843e-05	3.47953e-05	1.2626e-05	2.96169e-05	0.550994	0.163623	5.35404	2.57195e-06	1.27147e-06	5.85356e-07	6.67322e-07	4.61767e-07	3.9807e-07	0.0497061	0.100237	0.111884	63.6238	15958.3	7913.49	17812.6	-26.3762	0.0000000E+000	0.0000000E+000	0.0000000E+000	26.3762	0.0000000E+000	0.0000000E+000	0.0000000E+000	-26.3762	0.0000000E+000	0.0000000E+000	0.0000000E+000	-63.6238	0.0000000E+000	0.0000000E+000	0.0000000E+000	63.6238	0.495887	26.3762	-5.96908e-07
794.239	4.16999	9.99164	10.8269	-67.3469	1569.51	0.441034	-0.00499214	20.0554	17.0804	1	38	0.00496012	0.00045813	0	-0.000272378	0.996211	0.575881	25.5447	2.09572e-05	1.85232e-05	2.34994e-05	1.66141e-05	1.31973e-05	1.93956e-05	0.694302	0.123883	6.51856	2.6308e-06	1.45021e-06	2.72375e-07	8.47479e-07	1.94932e-07	2.49133e-07	0.0355735	0.0852371	0.0923626	67.3469	17080.4	7128.46	18508.2	-22.6531	0.0000000E+000	0.0000000E+000	0.0000000E+000	22.6531	0.0000000E+000	0.0000000E+000	0.0000000E+000	-22.6531	0.0000000E+000	0.0000000E+000	0.0000000E+000	-67.3469	0.0000000E+000	0.0000000E+000	0.0000000E+000	67.3469	0.417348	22.6531	-1.2137e-06
631.01	4.44942	12.2729	13.0545	-70.0724	1570.26	0.441068	-0.00138186	20.5512	18.1638	1	38	0.00487045	0.000373084	0	-0.000272763	1.5102	0.674667	25.0897	1.88199e-05	4.92219e-05	1.44571e-05	2.66128e-05	2.30417e-05	1.81363e-05	0.849157	0.233421	8.07989	2.49443e-06	1.29528e-06	3.60343e-07	1.06221e-06	8.88115e-07	8.24351e-08	0.0261084	0.0720151	0.0766017	70.0724	18163.8	6585.13	19320.7	-19.9276	0.0000000E+000	0.0000000E+000	0.0000000E+000	19.9276	0.0000000E+000	0.0000000E+000	0.0000000E+000	-19.9276	0.0000000E+000	0.0000000E+000	0.0000000E+000	-70.0724	0.0000000E+000	0.0000000E+000	0.0000000E+000	70.0724	0.362541	19.9276	-3.84785e-07
501.122	4.80941	15.2193	15.9611	-72.4631	1571	0.441062	-0.00199816	20.8681	18.9734	1	38	0.00483274	0.000302782	0	-0.000273085	1.50512	0.571989	25.7893	9.82486e-06	1.92774e-05	2.39239e-05	4.75642e-05	2.38438e-05	2.94461e-05	0.921386	0.423473	9.95822	1.79077e-06	1.51454e-06	4.96934e-07	1.04653e-06	6.66396e-07	6.04041e-07	0.0188785	0.0597404	0.0626523	72.4631	18973.4	5995.74	19898.2	-17.5369	0.0000000E+000	0.0000000E+000	0.0000000E+000	17.5369	0.0000000E+000	0.0000000E+000	0.0000000E+000	-17.5369	0.0000000E+000	0.0000000E+000	0.0000000E+000	-72.4631	0.0000000E+000	0.0000000E+000	0.0000000E+000	72.4631	0.316008	17.537	-3.219e-07
398.089	5.28334	18.9593	19.6817	-74.4286	1571.74	0.441073	-0.00208009	21.0871	19.5676	1	38	0.00481122	0.000244452	0	-0.000273878	1.73724	0.586758	26.5791	3.19395e-05	3.51421e-05	3.39499e-05	3.17906e-05	3.67086e-05	2.80184e-05	0.813403	0.426415	12.1317	1.13309e-06	7.05939e-07	7.66049e-07	1.09123e-06	3.35072e-07	3.69082e-07	0.013639	0.0489438	0.0508086	74.4286	19567.6	5452.84	20313.2	-15.5714	0.0000000E+000	0.0000000E+000	0.0000000E+000	15.5714	0.0000000E+000	0.0000000E+000	0.0000000E+000	-15.5714	0.0000000E+000	0.0000000E+000	0.0000000E+000	-74.4286	0.0000000E+000	0.0000000E+000	0.0000000E+000	74.4286	0.278667	15.5714	-7.92809e-07
316.316	5.85674	23.4472	24.1675	-75.9754	1572.49	0.441095	-0.00257164	21.459	20.1987	1	38	0.00479383	0.000198358	0	-0.000274667	1.47231	0.411169	25.221	1.29117e-05	2.65478e-05	4.05383e-05	1.76057e-05	2.82539e-05	3.55217e-05	0.799919	0.428431	15.1962	1.01518e-06	6.12136e-07	3.99858e-07	5.42269e-07	3.92747e-07	5.19244e-07	0.0100275	0.0401444	0.0413778	75.9754	20198.7	5045.33	20819.3	-14.0246	0.0000000E+000	0.0000000E+000	0.0000000E+000	14.0246	0.0000000E+000	0.0000000E+000	0.0000000E+000	-14.0246	0.0000000E+000	0.0000000E+000	0.0000000E+000	-75.9754	0.0000000E+000	0.0000000E+000	0.0000000E+000	75.9754	0.249785	14.0246	-7.89604e-07
251.206	6.6299	29.3401	30.0798	-77.2669	1573.48	0.441076	0.00186302	21.5938	20.5448	1	39	0.00494077	0.000164256	0	-0.00027473	1.18161	0.357106	25.68	1.27965e-05	2.40492e-05	2.32689e-05	1.70329e-05	3.6743e-05	1.81264e-05	0.905307	0.235282	7.78586	1.1194e-06	3.38279e-07	2.24276e-07	7.66812e-07	3.81317e-07	1.03575e-07	0.00732752	0.0324273	0.0332449	77.2669	20544.8	4642.45	21062.8	-12.7331	0.0000000E+000	0.0000000E+000	0.0000000E+000	12.7331	0.0000000E+000	0.0000000E+000	0.0000000E+000	-12.7331	0.0000000E+000	0.0000000E+000	0.0000000E+000	-77.2669	0.0000000E+000	0.0000000E+000	0.0000000E+000	77.2669	0.225968	12.7332	-6.31139e-08
199.553	7.66033	36.1869	36.9888	-78.0476	1574.23	0.441042	0.00151896	22.0399	21.0946	1	39	0.00486207	0.000131447	0	-0.000274383	1.24657	0.932412	25.7025	1.8248e-05	1.92298e-05	3.38229e-05	1.65075e-05	2.55726e-05	2.55575e-05	0.844333	0.142405	9.53213	8.98128e-07	2.26525e-07	3.84003e-07	3.73111e-07	2.12715e-07	1.20618e-07	0.00559895	0.0264491	0.0270352	78.0476	21094.6	4465.48	21562.1	-11.9524	0.0000000E+000	0.0000000E+000	0.0000000E+000	11.9524	0.0000000E+000	0.0000000E+000	0.0000000E+000	-11.9524	0.0000000E+000	0.0000000E+000	0.0000000E+000	-78.0476	0.0000000E+000	0.0000000E+000	0.0000000E+000	78.0476	0.211688	11.9524	3.4758e-07
158.529	8.79802	45.0949	45.9451	-78.9603	1574.97	0.441077	0.00141217	22.263	21.4467	1	39	0.00483915	0.000105325	0	-0.000274232	1.24558	0.849569	26.2125	2.09213e-05	1.72003e-05	2.05021e-05	3.17497e-05	1.53211e-05	2.85733e-05	1.01493	0.398064	12.4318	5.20357e-07	3.92914e-07	1.83739e-07	5.80409e-07	3.91054e-07	2.85247e-07	0.00416779	0.0213623	0.0217651	78.9603	21446.7	4184.25	21851	-11.0397	0.0000000E+000	0.0000000E+000	0.0000000E+000	11.0397	0.0000000E+000	0.0000000E+000	0.0000000E+000	-11.0397	0.0000000E+000	0.0000000E+000	0.0000000E+000	-78.9603	0.0000000E+000	0.0000000E+000	0.0000000E+000	78.9603	0.1951	11.0397	1.50956e-07
125.927	10.8322	55.5035	56.5507	-78.9568	1575.72	0.441063	0.00145149	22.771	21.9355	1	39	0.00479399	8.47734e-05	0	-0.000273864	1.69847	1.03789	26.508	2.49764e-05	3.52925e-05	3.18278e-05	2.06414e-05	3.45016e-05	9.20086e-06	1.22173	0.765147	14.8361	7.09777e-07	4.26073e-07	2.68401e-07	6.91366e-08	4.41591e-07	1.90943e-07	0.0033872	0.0173558	0.0176833	78.9568	21935.5	4280.98	22349.3	-11.0432	0.0000000E+000	0.0000000E+000	0.0000000E+000	11.0432	0.0000000E+000	0.0000000E+000	0.0000000E+000	-11.0432	0.0000000E+000	0.0000000E+000	0.0000000E+000	-78.9568	0.0000000E+000	0.0000000E+000	0.0000000E+000	78.9568	0.195162	11.0432	3.68143e-07
99.9682	13.7604	68.6757	70.0407	-78.6698	1576.45	0.441064	0.00129251	23.1822	22.2875	1	39	0.00476864	6.80838e-05	0	-0.000273653	1.73833	1.08642	26.4324	1.81538e-05	2.60364e-05	1.65901e-05	2.89161e-05	4.12166e-05	4.82212e-05	1.3226	0.520606	17.6657	6.4684e-07	3.3493e-07	1.70588e-07	1.73536e-07	3.01782e-07	2.88885e-07	0.00280499	0.0139992	0.0142774	78.6698	22287.5	4465.7	22730.4	-11.3302	0.0000000E+000	0.0000000E+000	0.0000000E+000	11.3302	0.0000000E+000	0.0000000E+000	0.0000000E+000	-11.3302	0.0000000E+000	0.0000000E+000	0.0000000E+000	-78.6698	0.0000000E+000	0.0000000E+000	0.0000000E+000	78.6698	0.200368	11.3302	2.10731e-07