File: Python/Data/GoldElectrode/240322/Carbon/240322-CVEIS-PostActivation-5mM_Fe2Fe3-1M_H2SO4-0000RPM-Ag_AgCl_BLF8-GC_RDE_01_CV_C15.mpt
EC-Lab ASCII FILE
Nb header lines : 60

Cyclic Voltammetry

Run on channel : 15 (SN 19485)
User :
Electrode connection : standard
Potential control : Ewe
Ewe ctrl range : min = -1.00 V, max = 1.00 V
Ewe,I filtering : <None>
Safety Limits :
	Do not start on E overload
Channel : Floating
Acquisition started on : 03/22/2024 13:54:23.830
Loaded Setting File :  C:\Data\mathias\GoldElectrode\240322-CVEIS-PostActivation-5mM_Fe2Fe3-1M_H2SO4-0000RPM-Ag_AgCl_BLF8-Au_RDE.mps
Saved on :
	File : 240322-CVEIS-PostActivation-5mM_Fe2Fe3-1M_H2SO4-0000RPM-Ag_AgCl_BLF8-GC_RDE_01_CV_C15.mpr
	Directory : C:\Data\mathias\GoldElectrode\
	Host : 192.168.0.1
Device : VMP-300 (SN 0826)
Address : USB
EC-Lab for windows v11.52 (software)
Internet server v11.52 (firmware)
Command interpretor v11.52 (firmware)
Electrode material :
Initial state :
Electrolyte :
Comments :
Cable : special
Electrode surface area : 0.001 cm²
Characteristic mass : 0.001 g
Equivalent Weight : 0.000 g/eq.
Density : 0.000 g/cm3
Volume (V) : 0.001 cm³
Record EIS quality indicators
Cycle Definition : Charge/Discharge alternance
Ei (V)              0.000
vs.                 Eoc
dE/dt               20.000
dE/dt unit          mV/s
E1 (V)              0.700
vs.                 Ref
Step percent        50
N                   10
E range min (V)     -1.000
E range max (V)     1.000
I Range             Auto
I Range min         Unset
I Range max         Unset
I Range init        Unset
Bandwidth           8
E2 (V)              0.000
vs.                 Ref
nc cycles           1
Reverse Scan        1
Ef (V)              0.000
vs.                 Eoc

mode	ox/red	error	control changes	counter inc.	time/s	control/V	Ewe/V	<I>/mA	cycle number	(Q-Qo)/C	I Range	step time/s	P/W
2	1	0	1	0	0.000000000000000E+000	0.441158	0.44072	0.00097987	1	0.0000000E+000	43	0.000000000000000E+000	4.31849e-07
2	1	0	1	0	0.2987	0.44713	0.446808	0.00473471	1	7.83791e-07	41	0.2849	2.11551e-06
2	1	0	1	0	0.5486	0.452127	0.452168	0.00802675	1	2.38588e-06	41	0.5348	3.62944e-06
2	1	0	1	0	0.7984	0.457125	0.456781	0.0112802	1	4.80374e-06	41	0.7846	5.1526e-06
2	1	0	1	0	1.0483	0.462122	0.462106	0.0145249	1	8.03451e-06	41	1.0345	6.71204e-06
2	1	0	1	0	1.2982	0.46712	0.466877	0.0177942	1	1.20774e-05	41	1.2844	8.30769e-06
2	1	0	1	0	1.5481	0.472118	0.472019	0.0210603	1	1.69354e-05	41	1.5343	9.94086e-06
2	1	0	1	0	1.798	0.477115	0.476715	0.024349	1	2.26151e-05	41	1.7842	1.16075e-05
2	1	0	1	0	2.0478	0.482113	0.481681	0.0277152	1	2.91226e-05	41	2.034	1.33499e-05
2	1	0	1	0	2.2977	0.487111	0.486983	0.0310574	1	3.64701e-05	41	2.2839	1.51244e-05
2	1	0	1	0	2.5476	0.492108	0.491955	0.0344465	1	4.46598e-05	41	2.5338	1.69461e-05
2	1	0	1	0	2.7975	0.497106	0.49673	0.0378106	1	5.36944e-05	41	2.7837	1.87817e-05
2	1	0	1	0	3.0474	0.502103	0.501811	0.0411859	1	6.35737e-05	41	3.0336	2.06675e-05
2	1	0	1	0	3.2972	0.507101	0.506801	0.0445493	1	7.42888e-05	41	3.2834	2.25777e-05
2	1	0	1	0	3.5471	0.512099	0.511642	0.047846	1	8.58396e-05	41	3.5333	2.448e-05
2	1	0	1	0	3.797	0.517096	0.516905	0.0510811	1	9.82068e-05	41	3.7832	2.64041e-05
2	1	0	1	0	4.0469	0.522094	0.521612	0.054196	1	0.00011137	41	4.0331	2.82693e-05
2	1	0	1	0	4.2968	0.527091	0.526868	0.0572168	1	0.000125299	41	4.283	3.01457e-05
2	1	0	1	0	4.5466	0.532089	0.532029	0.0600586	1	0.000139956	41	4.5328	3.19529e-05
2	1	0	1	0	4.7965	0.537087	0.536846	0.0627639	1	0.000155313	41	4.7827	3.36946e-05
2	1	0	1	0	5.0464	0.542084	0.54189	0.0652431	1	0.000171316	41	5.0326	3.53546e-05
2	1	0	1	0	5.2963	0.547082	0.546798	0.0675112	1	0.000187915	41	5.2825	3.6915e-05
2	1	0	1	0	5.5462	0.552079	0.551724	0.0695538	1	0.000205051	41	5.5324	3.83745e-05
2	1	0	1	0	5.796	0.557077	0.556549	0.0713135	1	0.000222654	41	5.7822	3.96895e-05
2	1	0	1	0	6.0459	0.562075	0.561916	0.0728088	1	0.000240674	41	6.0321	4.09125e-05
2	1	0	1	0	6.2958	0.567072	0.566903	0.0740699	1	0.000259037	41	6.282	4.19904e-05
2	1	0	1	0	6.5457	0.57207	0.571864	0.0750129	1	0.000277673	41	6.5319	4.28972e-05
2	1	0	1	0	6.7956	0.577067	0.576768	0.0757181	1	0.000296518	41	6.7818	4.36717e-05
2	1	0	1	0	7.0454	0.582065	0.581849	0.0761222	1	0.000315496	41	7.0316	4.42916e-05
2	1	0	1	0	7.2953	0.587063	0.586991	0.0763255	1	0.00033456	41	7.2815	4.48024e-05
2	1	0	1	0	7.5452	0.59206	0.591935	0.0762878	1	0.000353641	41	7.5314	4.51574e-05
2	1	0	1	0	7.7951	0.597058	0.59688	0.0760898	1	0.000372688	41	7.7813	4.54165e-05
2	1	0	1	0	8.045	0.602055	0.601583	0.0756354	1	0.000391651	41	8.0312	4.5501e-05
2	1	0	1	0	8.2948	0.607053	0.60664	0.0750756	1	0.000410478	41	8.281	4.55439e-05
2	1	0	1	0	8.5447	0.612051	0.611848	0.0743349	1	0.00042915	41	8.5309	4.54816e-05
2	1	0	1	0	8.7946	0.617048	0.616987	0.0734816	1	0.000447625	41	8.7808	4.53371e-05
2	1	0	1	0	9.0445	0.622046	0.621962	0.0725324	1	0.000465879	41	9.0307	4.51124e-05
2	1	0	1	0	9.2944	0.627044	0.626746	0.0715502	1	0.00048389	41	9.2806	4.48438e-05
2	1	0	1	0	9.5442	0.63204	0.631846	0.0704887	1	0.000501636	41	9.5304	4.4538e-05
2	1	0	1	0	9.7941	0.637039	0.636592	0.0693934	1	0.00051912	41	9.7803	4.41753e-05
2	1	0	1	0	10.044	0.642036	0.6418	0.0682949	1	0.00053633	41	10.0302	4.38317e-05
2	1	0	1	0	10.2939	0.647034	0.646752	0.0671757	1	0.000553262	41	10.2801	4.3446e-05
2	1	0	1	0	10.5438	0.652031	0.651686	0.0660691	1	0.000569915	41	10.53	4.30564e-05
2	1	0	1	0	10.7936	0.657028	0.656721	0.0649751	1	0.000586284	41	10.7798	4.26705e-05
2	1	0	1	0	11.0435	0.662027	0.661582	0.0638822	1	0.000602389	41	11.0297	4.22634e-05
2	1	0	1	0	11.2934	0.667024	0.666936	0.0628232	1	0.000618227	41	11.2796	4.1899e-05
2	1	0	1	0	11.5433	0.672022	0.671883	0.0617906	1	0.000633804	41	11.5295	4.15161e-05
2	1	0	1	0	11.7932	0.67702	0.676946	0.0608113	1	0.000649128	41	11.7794	4.1166e-05
2	1	0	1	0	12.043	0.682016	0.681833	0.0598305	1	0.000664201	41	12.0292	4.07944e-05
2	1	0	1	0	12.2929	0.687015	0.686595	0.0589266	1	0.000679045	41	12.2791	4.04587e-05
2	1	0	1	0	12.5428	0.692012	0.691603	0.0580359	1	0.000693663	41	12.529	4.01378e-05
2	1	0	1	0	12.7927	0.69701	0.696902	0.0571648	1	0.000708064	41	12.7789	3.98383e-05
2	1	0	1	0	13.0054	0.698709	0.6983	0.0550229	1	0.000720083	41	12.9916	3.84225e-05
2	1	0	1	0	13.2553	0.693712	0.69333	0.0526615	1	0.000733506	41	13.2415	3.65118e-05
2	1	0	1	0	13.5052	0.688714	0.688482	0.0509443	1	0.000746439	41	13.4914	3.50742e-05
2	1	0	1	0	13.7551	0.683716	0.683148	0.0495179	1	0.000758982	41	13.7413	3.38281e-05
2	1	0	1	0	14.005	0.678719	0.678563	0.0482149	1	0.000771183	41	13.9912	3.27168e-05
2	1	0	1	0	14.2548	0.673722	0.6733	0.0469959	1	0.000783068	41	14.241	3.16423e-05
2	1	0	1	0	14.5047	0.668723	0.668417	0.0458865	1	0.000794669	41	14.4909	3.06713e-05
2	1	0	1	0	14.7546	0.663726	0.663428	0.0448213	1	0.000805994	41	14.7408	2.97357e-05
2	1	0	1	0	15.0045	0.658728	0.65828	0.0437816	1	0.000817057	41	14.9907	2.88206e-05
2	1	0	1	0	15.2544	0.653731	0.653565	0.0427579	1	0.000827863	41	15.2406	2.79451e-05
2	1	0	1	0	15.5042	0.648734	0.648368	0.0417685	1	0.000838416	41	15.4904	2.70813e-05
2	1	0	1	0	15.7541	0.643736	0.643304	0.0408142	1	0.00084873	41	15.7403	2.62559e-05
2	1	0	1	0	16.004	0.638738	0.638424	0.0398553	1	0.000858801	41	15.9902	2.54446e-05
2	1	0	1	0	16.2539	0.63374	0.633611	0.0388734	1	0.000868632	41	16.2401	2.46306e-05
2	1	0	1	0	16.5038	0.628743	0.628505	0.0379345	1	0.000878223	41	16.49	2.3842e-05
2	1	0	1	0	16.7536	0.623746	0.623317	0.0369627	1	0.000887571	41	16.7398	2.30395e-05
2	1	0	1	0	17.0035	0.618747	0.618344	0.0360002	1	0.000896681	41	16.9897	2.22605e-05
2	1	0	1	0	17.2534	0.61375	0.613295	0.0350085	1	0.000905548	41	17.2396	2.14705e-05
2	1	0	1	0	17.5033	0.608752	0.608606	0.0340079	1	0.000914168	41	17.4895	2.06974e-05
2	1	0	1	0	17.7532	0.603755	0.603627	0.032994	1	0.000922539	41	17.7394	1.9916e-05
2	1	0	1	0	18.003	0.598759	0.598759	0.0319947	1	0.000930654	41	17.9892	1.91571e-05
2	1	0	1	0	18.2529	0.593759	0.593524	0.03096	1	0.000938515	41	18.2391	1.83755e-05
2	1	0	1	0	18.5028	0.588762	0.588376	0.029918	1	0.000946116	41	18.489	1.7603e-05
2	1	0	1	0	18.7527	0.583764	0.583552	0.0288253	1	0.000953452	41	18.7389	1.68211e-05
2	1	0	1	0	19.0026	0.578767	0.578468	0.0277443	1	0.000960516	41	18.9888	1.60492e-05
2	1	0	1	0	19.2524	0.573771	0.573499	0.0266011	1	0.000967302	41	19.2386	1.52557e-05
2	1	0	1	0	19.5023	0.568771	0.568287	0.0255058	1	0.000973809	41	19.4885	1.44946e-05
2	1	0	1	0	19.7522	0.563774	0.563526	0.0243428	1	0.000980029	41	19.7384	1.37178e-05
2	1	0	1	0	20.0021	0.558776	0.55855	0.0231512	1	0.000985954	41	19.9883	1.29311e-05
2	1	0	1	0	20.252	0.553779	0.553604	0.0219374	1	0.000991581	41	20.2382	1.21446e-05
2	1	0	1	0	20.5019	0.548781	0.548587	0.0207031	1	0.000996903	41	20.4881	1.13574e-05
2	1	0	1	0	20.7517	0.543783	0.54324	0.0194708	1	0.00100191	41	20.7379	1.05773e-05
2	1	0	1	0	21.0016	0.538786	0.538564	0.0181719	1	0.0010066	41	20.9878	9.78672e-06
2	1	0	1	0	21.2515	0.533788	0.533583	0.0168186	1	0.00101097	41	21.2377	8.97409e-06
2	1	0	1	0	21.5014	0.528791	0.528268	0.0154741	1	0.001015	41	21.4876	8.1745e-06
2	1	0	1	0	21.7513	0.523793	0.523327	0.0140858	1	0.00101868	41	21.7375	7.37147e-06
2	1	0	1	0	22.0011	0.518795	0.518435	0.0126678	1	0.00102202	41	21.9873	6.56744e-06
2	1	0	1	0	22.251	0.513798	0.513339	0.0112217	1	0.001025	41	22.2372	5.76055e-06
2	1	0	1	0	22.5009	0.5088	0.508446	0.00970526	1	0.00102761	41	22.4871	4.93461e-06
2	1	0	1	0	22.7508	0.503803	0.503444	0.00816534	1	0.00102984	41	22.737	4.11079e-06
2	1	0	1	0	23.0007	0.498805	0.498234	0.00658472	1	0.00103167	41	22.9869	3.28073e-06
2	1	0	1	0	23.2505	0.493807	0.493467	0.00494386	1	0.00103311	41	23.2367	2.43963e-06
2	1	0	1	0	23.5304	0.48821	0.488018	0.0030259	1	0.00103422	42	23.5166	1.47669e-06
2	1	0	1	0	23.7803	0.483212	0.482872	0.00128292	1	0.00103476	42	23.7665	6.19485e-07
2	0	0	1	0	24.0302	0.478215	0.477968	-0.000541139	1	0.00103485	42	0.05	-2.58647e-07
2	0	0	1	0	24.28	0.473218	0.472917	-0.00241584	1	0.00103448	42	0.2998	-1.14249e-06
2	0	0	1	0	24.5299	0.46822	0.467989	-0.00438362	1	0.00103363	42	0.5497	-2.05149e-06
2	0	0	1	0	24.7798	0.463222	0.463028	-0.00640545	1	0.00103228	42	0.7996	-2.9659e-06
2	0	0	1	0	25.0297	0.458224	0.45804	-0.00853692	1	0.00103041	42	1.0495	-3.91025e-06
2	0	0	1	0	25.2796	0.453227	0.453197	-0.0107339	1	0.00102801	42	1.2994	-4.86459e-06
2	0	0	1	0	25.5594	0.447629	0.447254	-0.0133114	1	0.00102464	41	1.5792	-5.95359e-06
2	0	0	1	0	25.8093	0.442632	0.442188	-0.0157237	1	0.00102101	41	1.8291	-6.95285e-06
2	0	0	1	0	26.0592	0.437634	0.437364	-0.0182494	1	0.00101676	41	2.079	-7.98166e-06
2	0	0	1	0	26.3091	0.432637	0.432573	-0.020922	1	0.00101186	41	2.3289	-9.05028e-06
2	0	0	1	0	26.559	0.427639	0.427674	-0.0236953	1	0.00100628	41	2.5788	-1.01338e-05
2	0	0	1	0	26.8088	0.422641	0.422367	-0.0265635	1	0.001	41	2.8286	-1.12195e-05
2	0	0	1	0	27.0587	0.417644	0.417313	-0.0295867	1	0.000992983	41	3.0785	-1.23469e-05
2	0	0	1	0	27.3086	0.412646	0.412294	-0.0327476	1	0.000985189	41	3.3284	-1.35017e-05
2	0	0	1	0	27.5585	0.407649	0.407488	-0.0360891	1	0.00097659	41	3.5783	-1.47059e-05
2	0	0	1	0	27.8084	0.402651	0.402228	-0.039453	1	0.000967151	41	3.8282	-1.58691e-05
2	0	0	1	0	28.0582	0.397653	0.39729	-0.0430223	1	0.000956844	41	4.078	-1.70923e-05
2	0	0	1	0	28.3081	0.392656	0.392382	-0.0467023	1	0.000945631	41	4.3279	-1.83251e-05
2	0	0	1	0	28.558	0.387658	0.387587	-0.0505036	1	0.000933485	41	4.5778	-1.95745e-05
2	0	0	1	0	28.8079	0.382661	0.382183	-0.0543937	1	0.000920372	41	4.8277	-2.07883e-05
2	0	0	1	0	29.0578	0.377663	0.377307	-0.0584182	1	0.000906269	41	5.0776	-2.20416e-05
2	0	0	1	0	29.3076	0.372665	0.372344	-0.0625237	1	0.000891158	41	5.3274	-2.32803e-05
2	0	0	1	0	29.5575	0.367668	0.367489	-0.066661	1	0.000875011	41	5.5773	-2.44972e-05
2	0	0	1	0	29.8074	0.36267	0.362423	-0.0708757	1	0.000857819	41	5.8272	-2.5687e-05
2	0	0	1	0	30.0573	0.357673	0.357603	-0.075103	1	0.000839574	41	6.0771	-2.6857e-05
2	0	0	1	0	30.3072	0.352675	0.352382	-0.0792938	1	0.000820274	41	6.327	-2.79417e-05
2	0	0	1	0	30.557	0.347677	0.347343	-0.0834743	1	0.000799934	41	6.5768	-2.89942e-05
2	0	0	1	0	30.8069	0.34268	0.342126	-0.0875838	1	0.000778551	41	6.8267	-2.99647e-05
2	0	0	1	0	31.0568	0.337682	0.337428	-0.0915912	1	0.000756154	41	7.0766	-3.09055e-05
2	0	0	1	0	31.3067	0.332685	0.332405	-0.0954139	1	0.000732776	41	7.3265	-3.1716e-05
2	0	0	1	0	31.5566	0.327687	0.32749	-0.0990977	1	0.000708456	41	7.5764	-3.24535e-05
2	0	0	1	0	31.8064	0.322689	0.322448	-0.102579	1	0.000683252	41	7.8262	-3.30764e-05
2	0	0	1	0	32.0563	0.317692	0.317329	-0.105775	1	0.000657203	41	8.0761	-3.35656e-05
2	0	0	1	0	32.3062	0.312694	0.312432	-0.108729	1	0.000630383	41	8.326	-3.39703e-05
2	0	0	1	0	32.5861	0.307097	0.306898	-0.110622	1	0.000599517	40	8.6059	-3.39495e-05
2	0	0	1	0	32.836	0.302098	0.301681	-0.112873	1	0.000571315	40	8.8558	-3.40515e-05
2	0	0	1	0	33.0858	0.297102	0.296852	-0.114837	1	0.000542602	40	9.1056	-3.40896e-05
2	0	0	1	0	33.3357	0.292104	0.292018	-0.116402	1	0.000513439	40	9.3555	-3.39915e-05
2	0	0	1	0	33.5856	0.287106	0.286794	-0.117498	1	0.000483935	40	9.6054	-3.36977e-05
2	0	0	1	0	33.8355	0.282109	0.281854	-0.118452	1	0.000454174	40	9.8553	-3.33861e-05
2	0	0	1	0	34.0854	0.27711	0.276735	-0.118834	1	0.000424252	40	10.1052	-3.28856e-05
2	0	0	1	0	34.3352	0.272114	0.271857	-0.119023	1	0.000394259	40	10.355	-3.23574e-05
2	0	0	1	0	34.5851	0.267116	0.266977	-0.118802	1	0.000364259	40	10.6049	-3.17174e-05
2	0	0	1	0	34.835	0.262118	0.261791	-0.118416	1	0.000334332	40	10.8548	-3.10001e-05
2	0	0	1	0	35.0849	0.257121	0.256951	-0.117628	1	0.000304553	40	11.1047	-3.02247e-05
2	0	0	1	0	35.3348	0.252122	0.251753	-0.116916	1	0.00027498	40	11.3546	-2.94339e-05
2	0	0	1	0	35.5846	0.247126	0.246953	-0.115677	1	0.000245684	40	11.6044	-2.85669e-05
2	0	0	1	0	35.8345	0.242128	0.241964	-0.114079	1	0.000216692	40	11.8543	-2.7603e-05
2	0	0	1	0	36.0844	0.23713	0.23666	-0.112611	1	0.000188049	40	12.1042	-2.66505e-05
2	0	0	1	0	36.3343	0.232133	0.231893	-0.111077	1	0.000159791	40	12.3541	-2.57579e-05
2	0	0	1	0	36.5842	0.227135	0.226811	-0.109398	1	0.000131941	40	12.604	-2.48125e-05
2	0	0	1	0	36.834	0.222137	0.221914	-0.107611	1	0.000104533	40	12.8538	-2.38803e-05
2	0	0	1	0	37.0839	0.21714	0.216968	-0.105825	1	7.75458e-05	40	13.1037	-2.29607e-05
2	0	0	1	0	37.3338	0.212142	0.211844	-0.104054	1	5.10123e-05	40	13.3536	-2.20432e-05
2	0	0	1	0	37.5837	0.207145	0.206838	-0.102132	1	2.49333e-05	40	13.6035	-2.11247e-05
2	0	0	1	0	37.8336	0.202147	0.201962	-0.100403	1	-6.94243e-07	40	13.8534	-2.02777e-05
2	0	0	1	0	38.0834	0.197149	0.196833	-0.0984979	1	-2.5864e-05	40	14.1032	-1.93876e-05
2	0	0	1	0	38.3333	0.192152	0.191986	-0.0966541	1	-5.05937e-05	40	14.3531	-1.85562e-05
2	0	0	1	0	38.5832	0.187154	0.186922	-0.0950393	1	-7.48843e-05	40	14.603	-1.7765e-05
2	0	0	1	0	38.8331	0.182157	0.181732	-0.0932413	1	-9.87521e-05	40	14.8529	-1.69449e-05
2	0	0	1	0	39.083	0.177159	0.176728	-0.0915844	1	-0.000122201	40	15.1028	-1.61855e-05
2	0	0	1	0	39.3328	0.172161	0.171907	-0.089922	1	-0.000145234	40	15.3526	-1.54582e-05
2	0	0	1	0	39.5827	0.167164	0.167032	-0.088447	1	-0.000167878	40	15.6025	-1.47735e-05
2	0	0	1	0	39.8326	0.162166	0.161748	-0.0869374	1	-0.000190148	40	15.8524	-1.40619e-05
2	0	0	1	0	40.0825	0.157169	0.15708	-0.085329	1	-0.000212048	40	16.1023	-1.34035e-05
2	0	0	1	0	40.3324	0.152171	0.151787	-0.0839336	1	-0.000233589	40	16.3522	-1.274e-05
2	0	0	1	0	40.5822	0.147173	0.146952	-0.0826224	1	-0.000254779	40	16.602	-1.21415e-05
2	0	0	1	0	40.8321	0.142176	0.141956	-0.0812969	1	-0.000275645	40	16.8519	-1.15406e-05
2	0	0	1	0	41.082	0.137178	0.136734	-0.0800104	1	-0.000296199	40	17.1018	-1.09401e-05
2	0	0	1	0	41.3319	0.132181	0.131964	-0.078864	1	-0.00031644	40	17.3517	-1.04072e-05
2	0	0	1	0	41.5818	0.127183	0.126908	-0.07763	1	-0.000336388	40	17.6016	-9.85183e-06
2	0	0	1	0	41.8316	0.122185	0.121935	-0.0764071	1	-0.000356042	40	17.8514	-9.31673e-06
2	0	0	1	0	42.0815	0.117188	0.117012	-0.0753345	1	-0.000375426	40	18.1013	-8.81504e-06
2	0	0	1	0	42.3314	0.11219	0.112076	-0.0741001	1	-0.000394544	40	18.3512	-8.30481e-06
2	0	0	1	0	42.5813	0.107193	0.106825	-0.0732396	1	-0.000413411	40	18.6011	-7.82384e-06
2	0	0	1	0	42.8312	0.102195	0.102004	-0.072422	1	-0.000432031	40	18.851	-7.38733e-06
2	0	0	1	0	43.081	0.0971974	0.0969868	-0.0713572	1	-0.000450408	40	19.1008	-6.92071e-06
2	0	0	1	0	43.3309	0.0921998	0.0919247	-0.0703831	1	-0.000468567	40	19.3507	-6.46995e-06
2	0	0	1	0	43.5808	0.0872022	0.087076	-0.069727	1	-0.000486508	40	19.6006	-6.07155e-06
2	0	0	1	0	43.8307	0.0822046	0.0819266	-0.0685447	1	-0.00050424	40	19.8505	-5.61563e-06
2	0	0	1	0	44.0806	0.0772069	0.0771225	-0.067862	1	-0.000521768	40	20.1004	-5.23369e-06
2	0	0	1	0	44.3304	0.0722094	0.0719742	-0.0669918	1	-0.000539096	40	20.3502	-4.82168e-06
2	0	0	1	0	44.5803	0.0672117	0.0671216	-0.0663621	1	-0.00055624	40	20.6001	-4.45433e-06
2	0	0	1	0	44.8302	0.0622141	0.0620512	-0.0654542	1	-0.000573203	40	20.85	-4.06151e-06
2	0	0	1	0	45.0801	0.0572165	0.0571295	-0.0649501	1	-0.00058999	40	21.0999	-3.71056e-06
2	0	0	1	0	45.33	0.0522189	0.0518853	-0.0641511	1	-0.000606615	40	21.3498	-3.3285e-06
2	0	0	1	0	45.5798	0.0472213	0.0470426	-0.0635757	1	-0.000623069	40	21.5996	-2.99076e-06
2	0	0	1	0	45.8297	0.0422237	0.0418864	-0.0631528	1	-0.000639369	40	21.8495	-2.64524e-06
2	0	0	1	0	46.0796	0.0372261	0.0369434	-0.0623805	1	-0.000655525	40	22.0994	-2.30455e-06
2	0	0	1	0	46.3295	0.0322285	0.0320233	-0.0617895	1	-0.000671537	40	22.3493	-1.9787e-06
2	0	0	1	0	46.5794	0.0272309	0.027046	-0.0610051	1	-0.000687411	40	22.5992	-1.64994e-06
2	0	0	1	0	46.8292	0.0222337	0.0220144	-0.0606546	1	-0.000703139	40	22.849	-1.33528e-06
2	0	0	1	0	47.0791	0.0172357	0.017101	-0.0602225	1	-0.000718748	40	23.0989	-1.02987e-06
2	0	0	1	0	47.329	0.0122381	0.0119685	-0.0595796	1	-0.00073423	40	23.3488	-7.1308e-07
2	0	0	1	0	47.5789	0.00724047	0.00688221	-0.0590528	1	-0.000749585	40	23.5987	-4.06414e-07
2	0	0	1	0	47.8288	0.00224287	0.00218417	-0.0585763	1	-0.000764826	40	23.8486	-1.27941e-07
2	0	0	1	1	48.054	0.00229285	0.00208581	-0.0609564	1	-0.00077832	40	24.0738	-1.27144e-07
2	0	0	1	1	48.3039	0.00729045	0.00713407	-0.060201	1	-0.000792928	40	24.3237	-4.29478e-07
2	0	0	1	1	48.5538	0.0122881	0.012014	-0.0596537	1	-0.000807345	40	24.5736	-7.1668e-07
2	0	0	1	1	48.8037	0.0172857	0.0170831	-0.0587504	1	-0.000821602	40	24.8235	-1.00364e-06
2	0	0	1	1	49.0536	0.0222842	0.0218918	-0.0582163	1	-0.000835709	40	25.0734	-1.27446e-06
2	0	0	1	1	49.3034	0.0272809	0.0269938	-0.0578917	1	-0.000849676	40	25.3232	-1.56272e-06
2	0	0	1	1	49.5533	0.0322785	0.032016	-0.0571135	1	-0.000863528	40	25.5731	-1.82855e-06
2	0	0	1	1	49.8032	0.0372761	0.0371233	-0.0568447	1	-0.000877257	40	25.823	-2.11026e-06
2	0	0	1	1	50.0531	0.0422737	0.0419799	-0.0564488	1	-0.000890868	40	26.0729	-2.36971e-06
2	0	0	1	1	50.303	0.0472717	0.0468066	-0.0557773	1	-0.000904366	40	26.3228	-2.61074e-06
2	0	0	1	1	50.5528	0.0522689	0.0520822	-0.0555352	1	-0.000917746	40	26.5726	-2.8924e-06
2	0	0	1	1	50.8027	0.0572665	0.0569739	-0.0551437	1	-0.000931027	40	26.8225	-3.14175e-06
2	0	0	1	1	51.0526	0.0622641	0.0618752	-0.054745	1	-0.000944207	40	27.0724	-3.38736e-06
2	0	0	1	1	51.3025	0.0672617	0.0669479	-0.054192	1	-0.000957279	40	27.3223	-3.62804e-06
2	0	0	1	1	51.5524	0.0722598	0.0721175	-0.0539321	1	-0.000970253	40	27.5722	-3.88944e-06
2	0	0	1	1	51.8022	0.0772569	0.0768715	-0.0534182	1	-0.000983122	40	27.822	-4.10634e-06
2	0	0	1	1	52.0521	0.0822545	0.0818518	-0.0531328	1	-0.0009959	40	28.0719	-4.34902e-06
2	0	0	1	1	52.302	0.0872521	0.086966	-0.0525658	1	-0.00100858	40	28.3218	-4.57144e-06
2	0	0	1	1	52.5519	0.0922497	0.0919402	-0.052092	1	-0.00102116	40	28.5717	-4.78935e-06
2	0	0	1	1	52.8018	0.0972473	0.0971208	-0.0517489	1	-0.00103365	40	28.8216	-5.02589e-06
2	0	0	1	1	53.0516	0.102245	0.101891	-0.0513541	1	-0.00104604	40	29.0714	-5.23252e-06
2	0	0	1	1	53.3015	0.107243	0.107011	-0.0507684	1	-0.00105834	40	29.3213	-5.43278e-06
2	0	0	1	1	53.5514	0.11224	0.111926	-0.0505219	1	-0.00107055	40	29.5712	-5.65471e-06
2	0	0	1	1	53.8013	0.117238	0.116972	-0.0500604	1	-0.00108266	40	29.8211	-5.85568e-06
2	0	0	1	1	54.0512	0.122235	0.121822	-0.0497004	1	-0.00109468	40	30.071	-6.05459e-06
2	0	0	1	1	54.301	0.127233	0.126841	-0.0492125	1	-0.00110659	40	30.3208	-6.24216e-06
2	0	0	1	1	54.5509	0.132231	0.132116	-0.0490084	1	-0.00111841	40	30.5707	-6.47479e-06
2	0	0	1	1	54.8008	0.137228	0.137058	-0.0483382	1	-0.00113013	40	30.8206	-6.62516e-06
2	0	0	1	1	55.0507	0.142226	0.14198	-0.0479723	1	-0.00114176	40	31.0705	-6.81111e-06
2	0	0	1	1	55.3006	0.147223	0.147041	-0.0476592	1	-0.00115329	40	31.3204	-7.00787e-06
2	0	0	1	1	55.5504	0.152221	0.151956	-0.0471586	1	-0.00116471	40	31.5702	-7.16603e-06
2	0	0	1	1	55.8003	0.157219	0.156975	-0.0465343	1	-0.00117603	40	31.8201	-7.30472e-06
2	0	0	1	1	56.0802	0.162816	0.16242	-0.0446621	1	-0.00118859	41	32.1	-7.25402e-06
2	0	0	1	1	56.3301	0.167814	0.167533	-0.0442241	1	-0.00119969	41	32.3499	-7.40897e-06
2	0	0	1	1	56.58	0.172813	0.172627	-0.0437637	1	-0.00121068	41	32.5998	-7.55478e-06
2	0	0	1	1	56.8298	0.177809	0.177579	-0.0433082	1	-0.00122155	41	32.8496	-7.69063e-06
2	0	0	1	1	57.0797	0.182806	0.182595	-0.0428578	1	-0.00123231	41	33.0995	-7.82564e-06
2	0	0	1	1	57.3296	0.187804	0.187625	-0.0423685	1	-0.00124294	41	33.3494	-7.94938e-06
2	0	0	1	1	57.5795	0.192802	0.192356	-0.0418466	1	-0.00125346	41	33.5993	-8.04944e-06
2	0	0	1	1	57.8294	0.1978	0.197268	-0.0413004	1	-0.00126385	41	33.8492	-8.14725e-06
2	0	0	1	1	58.0792	0.202797	0.202575	-0.0408013	1	-0.0012741	41	34.099	-8.26535e-06
2	0	0	1	1	58.3291	0.207794	0.207472	-0.0402517	1	-0.00128422	41	34.3489	-8.35111e-06
2	0	0	1	1	58.579	0.212792	0.212543	-0.0396867	1	-0.0012942	41	34.5988	-8.43512e-06
2	0	0	1	1	58.8289	0.21779	0.217468	-0.0390794	1	-0.00130404	41	34.8487	-8.49851e-06
2	0	0	1	1	59.0788	0.222789	0.222735	-0.0384622	1	-0.00131372	41	35.0986	-8.56687e-06
2	0	0	1	1	59.3286	0.227785	0.227519	-0.03784	1	-0.00132324	41	35.3484	-8.60932e-06
2	0	0	1	1	59.5785	0.232782	0.232533	-0.0371669	1	-0.00133261	41	35.5983	-8.64255e-06
2	0	0	1	1	59.8284	0.23778	0.237659	-0.0364947	1	-0.00134181	41	35.8482	-8.6733e-06
2	0	0	1	1	60.0783	0.242778	0.242653	-0.0357689	1	-0.00135083	41	36.0981	-8.67944e-06
2	0	0	1	1	60.3282	0.247776	0.2478	-0.0350361	1	-0.00135967	41	36.348	-8.68193e-06
2	0	0	1	1	60.578	0.252773	0.252632	-0.034273	1	-0.00136832	41	36.5978	-8.65844e-06
2	0	0	1	1	60.8279	0.25777	0.257466	-0.0334616	1	-0.00137678	41	36.8477	-8.61521e-06
2	0	0	1	1	61.0778	0.262768	0.262758	-0.0326366	1	-0.00138504	41	37.0976	-8.57555e-06
2	0	0	1	1	61.3277	0.267766	0.267524	-0.0318159	1	-0.00139309	41	37.3475	-8.51153e-06
2	0	0	1	1	61.5776	0.272764	0.272347	-0.0309045	1	-0.00140093	41	37.5974	-8.41676e-06
2	0	0	1	1	61.8274	0.277761	0.2775	-0.0300145	1	-0.00140853	41	37.8472	-8.32902e-06
2	0	0	1	1	62.0773	0.282758	0.282496	-0.0290737	1	-0.00141591	41	38.0971	-8.2132e-06
2	0	0	1	1	62.3272	0.287756	0.287252	-0.0281081	1	-0.00142306	41	38.347	-8.0741e-06
2	0	0	1	1	62.5771	0.292754	0.292531	-0.0271004	1	-0.00142996	41	38.5969	-7.92772e-06
2	0	0	1	1	62.827	0.297751	0.297659	-0.0261206	1	-0.0014366	41	38.8468	-7.77505e-06
2	0	0	1	1	63.0768	0.302749	0.302617	-0.0250606	1	-0.00144299	41	39.0966	-7.58376e-06
2	0	0	1	1	63.3267	0.307746	0.307741	-0.0239806	1	-0.00144911	41	39.3465	-7.37983e-06
2	0	0	1	1	63.5766	0.312744	0.312644	-0.0228635	1	-0.00145495	41	39.5964	-7.14814e-06
2	0	0	1	1	63.8265	0.317742	0.317241	-0.0217388	1	-0.00146052	41	39.8463	-6.89645e-06
2	0	0	1	1	64.0764	0.322739	0.322589	-0.0205539	1	-0.0014658	41	40.0962	-6.63045e-06
2	0	0	1	1	64.3262	0.327737	0.327447	-0.0193619	1	-0.00147078	41	40.346	-6.33999e-06
2	0	0	1	1	64.5761	0.332735	0.332473	-0.0181372	1	-0.00147546	41	40.5959	-6.03013e-06
2	0	0	1	1	64.826	0.337732	0.337635	-0.0168476	1	-0.00147983	41	40.8458	-5.68834e-06
2	0	0	1	1	65.0759	0.34273	0.342585	-0.0155778	1	-0.00148388	41	41.0957	-5.3367e-06
2	0	0	1	1	65.3258	0.347727	0.347405	-0.0142812	1	-0.00148761	41	41.3456	-4.96136e-06
2	0	0	1	1	65.5756	0.352725	0.352455	-0.0128961	1	-0.00149099	41	41.5954	-4.54531e-06
2	0	0	1	1	65.8255	0.357722	0.357606	-0.0114835	1	-0.00149404	41	41.8453	-4.10658e-06
2	0	0	1	1	66.0754	0.36272	0.362459	-0.0100524	1	-0.00149672	41	42.0952	-3.64356e-06
2	0	0	1	1	66.3253	0.367718	0.367386	-0.00854405	1	-0.00149904	41	42.3451	-3.13896e-06
2	0	0	1	1	66.5752	0.372715	0.372443	-0.00696636	1	-0.00150097	41	42.595	-2.59457e-06
2	0	0	1	1	66.825	0.377713	0.377794	-0.00537844	1	-0.00150251	41	42.8448	-2.03194e-06
2	0	0	1	1	67.1049	0.38331	0.382618	-0.00360815	1	-0.00150375	42	43.1247	-1.38054e-06
2	0	0	1	1	67.3548	0.388308	0.388138	-0.00173805	1	-0.0015044	42	43.3746	-6.74605e-07
2	0	0	1	1	67.6047	0.393305	0.393038	7.23407e-05	1	-0.00150461	42	0.000000000000000E+000	2.84326e-08
2	1	0	1	1	67.8546	0.398304	0.398083	0.001992	1	-0.00150435	42	0.225	7.92981e-07
2	1	0	1	1	68.1044	0.403301	0.403119	0.00399499	1	-0.0015036	42	0.4748	1.61046e-06
2	1	0	1	1	68.3543	0.408298	0.408344	0.00610444	1	-0.00150234	42	0.7247	2.49271e-06
2	1	0	1	1	68.6042	0.413296	0.412895	0.00830609	1	-0.00150054	42	0.9746	3.42954e-06
2	1	0	1	1	68.8541	0.418294	0.417976	0.0106436	1	-0.00149817	42	1.2245	4.44878e-06
2	1	0	1	1	69.1339	0.423891	0.423606	0.0133588	1	-0.00149482	41	1.5043	5.65885e-06
2	1	0	1	1	69.3838	0.428888	0.428672	0.015978	1	-0.00149115	41	1.7542	6.84933e-06
2	1	0	1	1	69.6337	0.433886	0.43369	0.0187269	1	-0.00148681	41	2.0041	8.12165e-06
2	1	0	1	1	69.8836	0.438884	0.43865	0.0216001	1	-0.00148178	41	2.254	9.47492e-06
2	1	0	1	1	70.106	0.443331	0.443189	0.0242813	2	-0.00147667	41	2.4764	1.07612e-05
2	1	0	1	1	70.3558	0.448328	0.448215	0.0274156	2	-0.00147022	41	2.7262	1.22881e-05
2	1	0	1	1	70.6057	0.453327	0.453108	0.0307499	2	-0.00146294	41	2.9761	1.3933e-05
2	1	0	1	1	70.8556	0.458324	0.458076	0.0342225	2	-0.00145482	41	3.226	1.56765e-05
2	1	0	1	1	71.1055	0.463322	0.463274	0.0378253	2	-0.00144581	41	3.4759	1.75235e-05
2	1	0	1	1	71.3554	0.46832	0.468092	0.0416111	2	-0.00143588	41	3.7258	1.94778e-05
2	1	0	1	1	71.6052	0.473316	0.473059	0.0455094	2	-0.00142499	41	3.9756	2.15286e-05
2	1	0	1	1	71.8551	0.478315	0.478193	0.0495279	2	-0.00141311	41	4.2255	2.36839e-05
2	1	0	1	1	72.105	0.483312	0.48297	0.0536604	2	-0.00140021	41	4.4754	2.59163e-05
2	1	0	1	1	72.3549	0.48831	0.488137	0.057856	2	-0.00138627	41	4.7253	2.82416e-05
2	1	0	1	1	72.6048	0.493308	0.492957	0.0621185	2	-0.00137126	41	4.9752	3.06218e-05
2	1	0	1	1	72.8546	0.498304	0.497814	0.066455	2	-0.0013552	41	5.225	3.30822e-05
2	1	0	1	1	73.1045	0.503303	0.503068	0.0707095	2	-0.00133805	41	5.4749	3.55717e-05
2	1	0	1	1	73.3544	0.5083	0.507951	0.0749542	2	-0.00131984	41	5.7248	3.80731e-05
2	1	0	1	1	73.6043	0.513298	0.513171	0.0791508	2	-0.00130057	41	5.9747	4.06179e-05
2	1	0	1	1	73.8542	0.518296	0.517877	0.083226	2	-0.00128028	41	6.2246	4.31008e-05
2	1	0	1	1	74.104	0.523291	0.522901	0.0871066	2	-0.001259	41	6.4744	4.55481e-05
2	1	0	1	1	74.3539	0.528291	0.527836	0.0907611	2	-0.00123676	41	6.7243	4.7907e-05
2	1	0	1	1	74.6038	0.533288	0.533174	0.0942248	2	-0.00121364	41	6.9742	5.02382e-05
2	1	0	1	1	74.8537	0.538286	0.537918	0.0973846	2	-0.00118968	41	7.2241	5.23849e-05
2	1	0	1	1	75.1036	0.543284	0.543157	0.100236	2	-0.00116497	41	7.474	5.4444e-05
2	1	0	1	1	75.3534	0.548279	0.547912	0.102762	2	-0.00113961	41	7.7238	5.63047e-05
2	1	0	1	1	75.6033	0.553279	0.553108	0.10486	2	-0.00111365	41	7.9737	5.7999e-05
2	1	0	1	1	75.8532	0.558276	0.558087	0.106641	2	-0.00108721	41	8.2236	5.95151e-05
2	1	0	1	1	76.1031	0.563274	0.563117	0.108028	2	-0.00106038	41	8.4735	6.08324e-05
2	1	0	1	1	76.353	0.568272	0.568106	0.108983	2	-0.00103325	41	8.7234	6.19137e-05
2	1	0	1	1	76.6029	0.573269	0.573034	0.109576	2	-0.00100592	41	8.9733	6.27906e-05
2	1	0	1	1	76.8827	0.578867	0.578633	0.109049	2	-0.000975207	40	9.2531	6.30992e-05
2	1	0	1	1	77.1326	0.583864	0.583537	0.108945	2	-0.000947775	40	9.503	6.35731e-05
2	1	0	1	1	77.3825	0.588862	0.588683	0.108451	2	-0.000920429	40	9.7529	6.38433e-05
2	1	0	1	1	77.6324	0.593859	0.593478	0.10766	2	-0.000893251	40	10.0028	6.38939e-05
2	1	0	1	1	77.8822	0.598857	0.598606	0.106645	2	-0.000866331	40	10.2526	6.38384e-05
2	1	0	1	1	78.1321	0.603855	0.603572	0.105339	2	-0.000839692	40	10.5025	6.35796e-05
2	1	0	1	1	78.382	0.608852	0.608618	0.103685	2	-0.00081341	40	10.7524	6.31048e-05
2	1	0	1	1	78.6319	0.61385	0.613451	0.102215	2	-0.000787531	40	11.0023	6.27041e-05
2	1	0	1	1	78.8818	0.618847	0.61858	0.10048	2	-0.000762084	40	11.2522	6.21551e-05
2	1	0	1	1	79.1316	0.623845	0.62375	0.0983538	2	-0.000737113	40	11.502	6.13482e-05
2	1	0	1	1	79.3815	0.628843	0.628422	0.0967538	2	-0.000712613	40	11.7519	6.08023e-05
2	1	0	1	1	79.6314	0.63384	0.633508	0.0945628	2	-0.000688617	40	12.0018	5.99062e-05
2	1	0	1	1	79.8813	0.638838	0.638509	0.0925814	2	-0.000665127	40	12.2517	5.91141e-05
2	1	0	1	1	80.1312	0.643835	0.643652	0.0906871	2	-0.000642142	40	12.5016	5.83709e-05
2	1	0	1	1	80.381	0.648833	0.648437	0.0885195	2	-0.000619671	40	12.7514	5.73993e-05
2	1	0	1	1	80.6309	0.653831	0.653482	0.0865206	2	-0.0005977	40	13.0013	5.65397e-05
2	1	0	1	1	80.8808	0.658828	0.658692	0.0845799	2	-0.000576218	40	13.2512	5.57121e-05
2	1	0	1	1	81.1307	0.663826	0.663671	0.082777	2	-0.000555218	40	13.5011	5.49367e-05
2	1	0	1	1	81.3806	0.668823	0.668582	0.0808693	2	-0.000534682	40	13.751	5.40677e-05
2	1	0	1	1	81.6304	0.67382	0.67372	0.0790415	2	-0.000514601	40	14.0008	5.32519e-05
2	1	0	1	1	81.8803	0.678819	0.678445	0.0775103	2	-0.000494947	40	14.2507	5.25865e-05
2	1	0	1	1	82.1302	0.683816	0.683645	0.0758694	2	-0.000475716	40	14.5006	5.18678e-05
2	1	0	1	1	82.3801	0.688814	0.68858	0.0742911	2	-0.000456888	40	14.7505	5.11554e-05
2	1	0	1	1	82.63	0.693812	0.693572	0.0726556	2	-0.000438452	40	15.0004	5.03919e-05
2	1	0	1	1	82.8798	0.698808	0.698617	0.0713231	2	-0.000420389	40	15.2502	4.98275e-05
2	1	0	1	1	83.1026	0.69671	0.696532	0.067967	2	-0.00040488	40	15.473	4.73412e-05
2	1	0	1	1	83.3525	0.691712	0.691547	0.065141	2	-0.000388334	40	15.7229	4.5048e-05
2	1	0	1	1	83.6024	0.686715	0.686343	0.0629365	2	-0.000372405	40	15.9728	4.3196e-05
2	1	0	1	1	83.8522	0.681717	0.681653	0.060819	2	-0.000357028	40	16.2226	4.14575e-05
2	1	0	1	1	84.1021	0.67672	0.676596	0.0589974	2	-0.000342118	40	16.4725	3.99174e-05
2	1	0	1	1	84.352	0.671722	0.671431	0.0574687	2	-0.000327648	40	16.7224	3.85862e-05
2	1	0	1	1	84.6019	0.666725	0.666445	0.0556582	2	-0.000313595	40	16.9723	3.70931e-05
2	1	0	1	1	84.8518	0.661727	0.661363	0.0541993	2	-0.000299933	40	17.2222	3.58454e-05
2	1	0	1	1	85.1016	0.656729	0.656399	0.0527583	2	-0.00028665	40	17.472	3.46305e-05
2	1	0	1	1	85.3515	0.651732	0.651533	0.0513017	2	-0.000273727	40	17.7219	3.34247e-05
2	1	0	1	1	85.6014	0.646734	0.646607	0.0498104	2	-0.000261158	40	17.9718	3.22077e-05
2	1	0	1	1	85.8513	0.641736	0.64151	0.0487447	2	-0.000248932	40	18.2217	3.12702e-05
2	1	0	1	1	86.1012	0.636739	0.636579	0.0472195	2	-0.000237039	40	18.4716	3.00589e-05
2	1	0	1	1	86.351	0.631741	0.631446	0.0459619	2	-0.000225484	40	18.7214	2.90225e-05
2	1	0	1	1	86.6309	0.626144	0.625622	0.0441489	2	-0.000212934	41	19.0013	2.76206e-05
2	1	0	1	1	86.8808	0.621146	0.621034	0.0428616	2	-0.000202071	41	19.2512	2.66185e-05
2	1	0	1	1	87.1307	0.616149	0.615943	0.0415579	2	-0.000191531	41	19.5011	2.55973e-05
2	1	0	1	1	87.3806	0.61115	0.610886	0.0402803	2	-0.000181314	41	19.751	2.46067e-05
2	1	0	1	1	87.6304	0.606153	0.606026	0.0389605	2	-0.000171422	41	20.0008	2.36111e-05
2	1	0	1	1	87.8803	0.601156	0.60087	0.0376857	2	-0.000161849	41	20.2507	2.26442e-05
2	1	0	1	1	88.1302	0.596158	0.59566	0.0363863	2	-0.0001526	41	20.5006	2.16738e-05
2	1	0	1	1	88.3801	0.591161	0.590956	0.0350897	2	-0.000143676	41	20.7505	2.07364e-05
2	1	0	1	1	88.63	0.586162	0.585826	0.0337832	2	-0.000135078	41	21.0004	1.9791e-05
2	1	0	1	1	88.8798	0.581165	0.580935	0.0324337	2	-0.000126813	41	21.2502	1.88419e-05
2	1	0	1	1	89.1297	0.576168	0.575779	0.0311177	2	-0.000118878	41	21.5001	1.79169e-05
2	1	0	1	1	89.3796	0.57117	0.570633	0.0297726	2	-0.000111277	41	21.75	1.69893e-05
2	1	0	1	1	89.6295	0.566173	0.566237	0.028389	2	-0.000104016	41	21.9999	1.60749e-05
2	1	0	1	1	89.8794	0.561175	0.561205	0.0270135	2	-9.70971e-05	41	22.2498	1.51601e-05
2	1	0	1	1	90.1292	0.556177	0.555775	0.0256349	2	-9.0526e-05	41	22.4996	1.42472e-05
2	1	0	1	1	90.3791	0.55118	0.55099	0.024218	2	-8.43039e-05	41	22.7495	1.33439e-05
2	1	0	1	1	90.629	0.546182	0.545894	0.0227973	2	-7.84362e-05	41	22.9994	1.24449e-05
2	1	0	1	1	90.8789	0.541185	0.540965	0.0213588	2	-7.29267e-05	41	23.2493	1.15544e-05
2	1	0	1	1	91.1288	0.536187	0.536098	0.0198715	2	-6.7782e-05	41	23.4992	1.06531e-05
2	1	0	1	1	91.3786	0.531189	0.530885	0.0184037	2	-6.30086e-05	41	23.749	9.77023e-06
2	1	0	1	1	91.6285	0.526192	0.526005	0.0168783	2	-5.86078e-05	41	23.9989	8.87807e-06
2	1	0	1	1	91.8784	0.521194	0.521042	0.0153357	2	-5.45898e-05	41	24.2488	7.99056e-06
2	1	0	1	1	92.1283	0.516197	0.516122	0.0137331	2	-5.09613e-05	41	24.4987	7.08793e-06
2	1	0	1	1	92.3782	0.511199	0.511087	0.0121722	2	-4.77285e-05	41	24.7486	6.22103e-06
2	1	0	1	1	92.628	0.506201	0.506217	0.01053	2	-4.49021e-05	41	24.9984	5.33049e-06
2	1	0	1	1	92.8779	0.501204	0.501148	0.00885863	2	-4.24863e-05	41	25.2483	4.43949e-06
2	1	0	1	1	93.1278	0.496206	0.495912	0.00713529	2	-4.04937e-05	41	25.4982	3.53848e-06
2	1	0	1	1	93.3777	0.491209	0.490669	0.0053919	2	-3.89346e-05	41	25.7481	2.64564e-06
2	1	0	1	1	93.6575	0.485611	0.485236	0.00332166	2	-3.77197e-05	42	26.0279	1.61179e-06
2	1	0	1	1	93.9074	0.480614	0.480536	0.00146099	2	-3.71214e-05	42	26.2778	7.0206e-07
2	0	0	1	1	94.1573	0.475616	0.475296	-0.000455576	2	-3.69971e-05	42	0.025	-2.16533e-07
2	0	0	1	1	94.4072	0.470618	0.470514	-0.00246564	2	-3.73609e-05	42	0.2749	-1.16011e-06
2	0	0	1	1	94.6571	0.465621	0.465358	-0.00451173	2	-3.82321e-05	42	0.5248	-2.09957e-06
2	0	0	1	1	94.9069	0.460623	0.460365	-0.00665197	2	-3.96251e-05	42	0.7746	-3.06234e-06
2	0	0	1	1	95.1568	0.455626	0.455464	-0.00886056	2	-4.1563e-05	42	1.0245	-4.03566e-06
2	0	0	1	1	95.4367	0.450028	0.449734	-0.0113943	2	-4.44029e-05	41	1.3044	-5.1244e-06
2	0	0	1	1	95.6866	0.445031	0.444827	-0.0138453	2	-4.75634e-05	41	1.5543	-6.15876e-06
2	0	0	1	1	95.9364	0.440034	0.439813	-0.0163211	2	-5.13375e-05	41	1.8041	-7.17824e-06
2	0	0	1	1	96.1863	0.435036	0.434748	-0.018974	2	-5.57527e-05	41	2.054	-8.24891e-06
2	0	0	1	1	96.4362	0.430038	0.429826	-0.0216535	2	-6.0835e-05	41	2.3039	-9.30726e-06
2	0	0	1	1	96.6861	0.42504	0.424684	-0.0245239	2	-6.66128e-05	41	2.5538	-1.04149e-05
2	0	0	1	1	96.936	0.420043	0.419718	-0.0274782	2	-7.31144e-05	41	2.8037	-1.15331e-05
2	0	0	1	1	97.1858	0.415046	0.414938	-0.0305907	2	-8.037e-05	41	3.0535	-1.26933e-05
2	0	0	1	1	97.4357	0.410047	0.409906	-0.033781	2	-8.84158e-05	41	3.3034	-1.3847e-05
2	0	0	1	1	97.6856	0.40505	0.404849	-0.0371345	2	-9.72791e-05	41	3.5533	-1.50338e-05
2	0	0	1	1	97.9355	0.400052	0.399605	-0.0405527	2	-0.000106993	41	3.8032	-1.62051e-05
2	0	0	1	1	98.1854	0.395055	0.394918	-0.0441687	2	-0.000117585	41	4.0531	-1.7443e-05
2	0	0	1	1	98.4352	0.390059	0.389798	-0.0478333	2	-0.00012908	41	4.3029	-1.86453e-05
2	0	0	1	1	98.6851	0.385059	0.38491	-0.0516603	2	-0.000141516	41	4.5528	-1.98846e-05
2	0	0	1	1	98.935	0.380062	0.379792	-0.0555321	2	-0.000154915	41	4.8027	-2.10906e-05
2	0	0	1	1	99.1849	0.375064	0.374782	-0.059549	2	-0.000169301	41	5.0526	-2.23179e-05
2	0	0	1	1	99.4348	0.370067	0.36979	-0.0635984	2	-0.000184692	41	5.3025	-2.3518e-05
2	0	0	1	1	99.6847	0.365069	0.364761	-0.0676633	2	-0.000201102	41	5.5524	-2.46809e-05
2	0	0	1	1	99.9345	0.360071	0.35977	-0.0718193	2	-0.000218535	41	5.8022	-2.58385e-05
2	0	0	1	1	100.184	0.355074	0.354682	-0.0759352	2	-0.000237007	41	6.0521	-2.69328e-05
2	0	0	1	1	100.434	0.350076	0.349851	-0.0800336	2	-0.000256508	41	6.302	-2.79998e-05
2	0	0	1	1	100.684	0.345079	0.344472	-0.0840997	2	-0.000277026	41	6.5519	-2.897e-05
2	0	0	1	1	100.934	0.340081	0.339812	-0.0880451	2	-0.000298546	41	6.8018	-2.99188e-05
2	0	0	1	1	101.184	0.335083	0.334947	-0.0918988	2	-0.000321031	41	7.0516	-3.07813e-05
2	0	0	1	1	101.434	0.330086	0.330004	-0.0955699	2	-0.000344462	41	7.3015	-3.15384e-05
2	0	0	1	1	101.684	0.325088	0.324889	-0.0990393	2	-0.000368789	41	7.5514	-3.21768e-05
2	0	0	1	1	101.934	0.320091	0.319747	-0.102304	2	-0.000393958	41	7.8013	-3.27115e-05
2	0	0	1	1	102.183	0.315093	0.314847	-0.105263	2	-0.000419908	41	8.0512	-3.31417e-05
2	0	0	1	1	102.433	0.310095	0.309725	-0.107998	2	-0.000446564	41	8.301	-3.34498e-05
2	0	0	1	1	102.713	0.304498	0.304197	-0.109687	2	-0.000477189	40	8.5809	-3.33665e-05
2	0	0	1	1	102.963	0.2995	0.29925	-0.111591	2	-0.000505111	40	8.8308	-3.33936e-05
2	0	0	1	1	103.213	0.294503	0.294011	-0.11338	2	-0.000533504	40	9.0807	-3.33349e-05
2	0	0	1	1	103.463	0.289506	0.28908	-0.114635	2	-0.000562266	40	9.3305	-3.31387e-05
2	0	0	1	1	103.713	0.284508	0.284251	-0.115754	2	-0.00059133	40	9.5804	-3.29033e-05
2	0	0	1	1	103.963	0.27951	0.27921	-0.116343	2	-0.000620595	40	9.8303	-3.24842e-05
2	0	0	1	1	104.212	0.274512	0.274235	-0.116612	2	-0.000649984	40	10.0802	-3.1979e-05
2	0	0	1	1	104.462	0.269515	0.269186	-0.116519	2	-0.000679417	40	10.3301	-3.13654e-05
2	0	0	1	1	104.712	0.264518	0.264285	-0.116331	2	-0.000708806	40	10.5799	-3.07445e-05
2	0	0	1	1	104.962	0.25952	0.259408	-0.115879	2	-0.000738098	40	10.8298	-3.00598e-05
2	0	0	1	1	105.212	0.254522	0.254481	-0.115048	2	-0.000767223	40	11.0797	-2.92775e-05
2	0	0	1	1	105.462	0.249524	0.249298	-0.113924	2	-0.000796122	40	11.3296	-2.84011e-05
2	0	0	1	1	105.712	0.244527	0.244291	-0.112752	2	-0.000824746	40	11.5795	-2.75444e-05
2	0	0	1	1	105.962	0.23953	0.239379	-0.111404	2	-0.000853039	40	11.8293	-2.66677e-05
2	0	0	1	1	106.211	0.234532	0.234146	-0.109821	2	-0.000880993	40	12.0792	-2.57142e-05
2	0	0	1	1	106.461	0.229534	0.22934	-0.108424	2	-0.000908568	40	12.3291	-2.4866e-05
2	0	0	1	1	106.711	0.224536	0.224187	-0.106533	2	-0.000935738	40	12.579	-2.38832e-05
2	0	0	1	1	106.961	0.219539	0.219371	-0.105051	2	-0.000962488	40	12.8289	-2.30452e-05
2	0	0	1	1	107.211	0.214542	0.214231	-0.103237	2	-0.000988798	40	13.0787	-2.21164e-05
2	0	0	1	1	107.461	0.209544	0.209097	-0.101446	2	-0.00101468	40	13.3286	-2.1212e-05
2	0	0	1	1	107.711	0.204546	0.204455	-0.0996965	2	-0.00104013	40	13.5785	-2.03834e-05
2	0	0	1	1	107.961	0.199548	0.199381	-0.0979589	2	-0.00106515	40	13.8284	-1.95312e-05
2	0	0	1	1	108.211	0.194551	0.194412	-0.0960978	2	-0.00108973	40	14.0783	-1.86825e-05
2	0	0	1	1	108.46	0.189555	0.189242	-0.0945085	2	-0.00111389	40	14.3281	-1.78849e-05
2	0	0	1	1	108.71	0.184556	0.184295	-0.0926934	2	-0.00113763	40	14.578	-1.70829e-05
2	0	0	1	1	108.96	0.179558	0.1794	-0.0909776	2	-0.00116096	40	14.8279	-1.63214e-05
2	0	0	1	1	109.21	0.17456	0.174291	-0.0895653	2	-0.0011839	40	15.0778	-1.56105e-05
2	0	0	1	1	109.46	0.169563	0.16928	-0.0880799	2	-0.00120646	40	15.3277	-1.49102e-05
2	0	0	1	1	109.71	0.164567	0.16451	-0.0864647	2	-0.00122863	40	15.5775	-1.42243e-05
2	0	0	1	1	109.96	0.159567	0.159363	-0.0848962	2	-0.00125045	40	15.8274	-1.35293e-05
2	0	0	1	1	110.21	0.15457	0.154417	-0.0835155	2	-0.00127191	40	16.0773	-1.28962e-05
2	0	0	1	1	110.459	0.149572	0.14947	-0.0823736	2	-0.00129304	40	16.3272	-1.23124e-05
2	0	0	1	1	110.709	0.144575	0.144269	-0.0808413	2	-0.00131384	40	16.5771	-1.16629e-05
2	0	0	1	1	110.959	0.139577	0.139289	-0.0797187	2	-0.00133432	40	16.827	-1.1104e-05
2	0	0	1	1	111.209	0.134579	0.134539	-0.0783751	2	-0.00135448	40	17.0768	-1.05445e-05
2	0	0	1	1	111.459	0.129582	0.12926	-0.077315	2	-0.00137436	40	17.3267	-9.99375e-06
2	0	0	1	1	111.709	0.124584	0.124367	-0.0760194	2	-0.00139396	40	17.5766	-9.45427e-06
2	0	0	1	1	111.959	0.119587	0.119274	-0.074993	2	-0.00141328	40	17.8265	-8.9447e-06
2	0	0	1	1	112.209	0.114589	0.114444	-0.0738733	2	-0.00143234	40	18.0764	-8.45435e-06
2	0	0	1	1	112.458	0.109591	0.109407	-0.0730133	2	-0.00145115	40	18.3262	-7.98813e-06
2	0	0	1	1	112.708	0.104594	0.104381	-0.0720862	2	-0.00146971	40	18.5761	-7.52443e-06
2	0	0	1	1	112.958	0.0995962	0.0993021	-0.070915	2	-0.00148805	40	18.826	-7.04201e-06
2	0	0	1	1	113.208	0.0945986	0.094219	-0.0703037	2	-0.00150615	40	19.0759	-6.62395e-06
2	0	0	1	1	113.458	0.089601	0.0894891	-0.0693523	2	-0.00152405	40	19.3258	-6.20627e-06
2	0	0	1	1	113.708	0.0846034	0.0844671	-0.0684794	2	-0.00154173	40	19.5756	-5.78425e-06
2	0	0	1	1	113.958	0.0796058	0.079433	-0.0675827	2	-0.00155921	40	19.8255	-5.3683e-06
2	0	0	1	1	114.208	0.0746082	0.0743039	-0.0670241	2	-0.0015765	40	20.0754	-4.98015e-06
2	0	0	1	1	114.458	0.0696106	0.0693811	-0.0663156	2	-0.0015936	40	20.3253	-4.60105e-06
2	0	0	1	1	114.707	0.064613	0.0642342	-0.0656439	2	-0.00161052	40	20.5752	-4.21658e-06
2	0	0	1	1	114.957	0.0596154	0.0593414	-0.0646694	2	-0.00162726	40	20.825	-3.83757e-06
2	0	0	1	1	115.207	0.0546178	0.0542915	-0.0640369	2	-0.00164384	40	21.0749	-3.47666e-06
2	0	0	1	1	115.457	0.0496202	0.0493071	-0.0635991	2	-0.00166026	40	21.3248	-3.13588e-06
2	0	0	1	1	115.707	0.0446226	0.0445565	-0.0627456	2	-0.00167651	40	21.5747	-2.79573e-06
2	0	0	1	1	115.957	0.039625	0.0395846	-0.062148	2	-0.00169262	40	21.8246	-2.4601e-06
2	0	0	1	1	116.207	0.0346273	0.0342551	-0.061615	2	-0.00170858	40	22.0744	-2.11063e-06
2	0	0	1	1	116.457	0.0296297	0.0296257	-0.0611201	2	-0.00172441	40	22.3243	-1.81073e-06
2	0	0	1	1	116.706	0.0246321	0.024443	-0.0603519	2	-0.0017401	40	22.5742	-1.47518e-06
2	0	0	1	1	116.956	0.0196345	0.0192801	-0.0599921	2	-0.00175567	40	22.8241	-1.15665e-06
2	0	0	1	1	117.206	0.0146369	0.0143351	-0.0594526	2	-0.0017711	40	23.074	-8.5226e-07
2	0	0	1	1	117.456	0.00963754	0.00927609	-0.0588534	2	-0.00178641	40	23.3239	-5.4593e-07
2	0	0	1	1	117.706	0.00464172	0.00438267	-0.0585459	2	-0.0018016	40	23.5737	-2.56587e-07
2	0	0	1	0	117.938	1.89349e-05	-4.65966e-05	-0.0586933	2	-0.00181559	40	23.8053	2.73491e-09
2	0	0	1	0	118.176	0.00479165	0.00454088	-0.0601617	2	-0.00182955	40	24.0439	-2.73187e-07
2	0	0	1	0	118.426	0.00978836	0.00951981	-0.0593592	2	-0.00184396	40	24.2937	-5.65088e-07
2	0	0	1	0	118.676	0.0147869	0.0146009	-0.0589092	2	-0.00185821	40	24.5436	-8.60127e-07
2	0	0	1	0	118.926	0.0197845	0.0195097	-0.0581617	2	-0.0018723	40	24.7935	-1.13472e-06
2	0	0	1	0	119.176	0.0247821	0.0245251	-0.0578062	2	-0.00188626	40	25.0434	-1.4177e-06
2	0	0	1	0	119.426	0.0297797	0.0296122	-0.0573028	2	-0.00190009	40	25.2933	-1.69686e-06
2	0	0	1	0	119.675	0.0347759	0.034588	-0.0565771	2	-0.00191379	40	25.5431	-1.95689e-06
2	0	0	1	0	119.925	0.0397749	0.0395663	-0.0563247	2	-0.00192738	40	25.793	-2.22856e-06
2	0	0	1	0	120.175	0.0447725	0.0443438	-0.0558768	2	-0.00194085	40	26.0429	-2.47779e-06
2	0	0	1	0	120.425	0.0497701	0.0495757	-0.0553496	2	-0.00195422	40	26.2928	-2.744e-06
2	0	0	1	0	120.675	0.0547677	0.0545255	-0.0548932	2	-0.00196747	40	26.5427	-2.99308e-06
2	0	0	1	0	120.925	0.059764	0.0594327	-0.0545204	2	-0.00198063	40	26.7925	-3.24029e-06
2	0	0	1	0	121.175	0.0647629	0.0644575	-0.0541227	2	-0.00199368	40	27.0424	-3.48861e-06
2	0	0	1	0	121.425	0.0697605	0.0696816	-0.0536302	2	-0.00200662	40	27.2923	-3.73704e-06
2	0	0	1	0	121.674	0.0747581	0.0743472	-0.0533723	2	-0.00201947	40	27.5422	-3.96808e-06
2	0	0	1	0	121.924	0.0797557	0.0793588	-0.0529799	2	-0.00203222	40	27.7921	-4.20442e-06
2	0	0	1	0	122.174	0.0847515	0.0847334	-0.0525025	2	-0.00204486	40	28.0419	-4.44871e-06
2	0	0	1	0	122.424	0.0897509	0.0894777	-0.0520331	2	-0.00205742	40	28.2918	-4.6558e-06
2	0	0	1	0	122.674	0.0947485	0.0945885	-0.0515736	2	-0.00206988	40	28.5417	-4.87827e-06
2	0	0	1	0	122.924	0.0997461	0.0993755	-0.0513825	2	-0.00208225	40	28.7916	-5.10616e-06
2	0	0	1	0	123.174	0.104744	0.10465	-0.0507609	2	-0.00209452	40	29.0415	-5.31211e-06
2	0	0	1	0	123.424	0.109741	0.109476	-0.0505148	2	-0.0021067	40	29.2914	-5.53017e-06
2	0	0	1	0	123.673	0.114739	0.114257	-0.0501276	2	-0.00211878	40	29.5412	-5.72741e-06
2	0	0	1	0	123.923	0.119737	0.119509	-0.0497458	2	-0.00213076	40	29.7911	-5.94508e-06
2	0	0	1	0	124.173	0.124734	0.124366	-0.0492356	2	-0.00214265	40	30.041	-6.12324e-06
2	0	0	1	0	124.423	0.129732	0.129443	-0.0488175	2	-0.00215445	40	30.2909	-6.31908e-06
2	0	0	1	0	124.673	0.134729	0.134435	-0.0482576	2	-0.00216615	40	30.5408	-6.4875e-06
2	0	0	1	0	124.923	0.139727	0.1393	-0.0479952	2	-0.00217774	40	30.7906	-6.6857e-06
2	0	0	1	0	125.173	0.144725	0.144552	-0.0478073	2	-0.00218925	40	31.0405	-6.91062e-06
2	0	0	1	0	125.423	0.149722	0.149541	-0.0471864	2	-0.00220065	40	31.2904	-7.05629e-06
2	0	0	1	0	125.688	0.15502	0.155112	-0.0445389	2	-0.00221262	40	31.5553	-6.90854e-06
2	0	0	1	0	125.952	0.160317	0.160109	-0.0445717	2	-0.00222448	41	31.8201	-7.13631e-06
2	0	0	1	0	126.202	0.165315	0.165017	-0.0441326	2	-0.00223556	41	32.07	-7.28262e-06
2	0	0	1	0	126.452	0.170312	0.170069	-0.0436992	2	-0.00224653	41	32.3199	-7.43187e-06
2	0	0	1	0	126.702	0.17531	0.175133	-0.0432409	2	-0.00225739	41	32.5698	-7.57289e-06
2	0	0	1	0	126.952	0.180308	0.180178	-0.0427743	2	-0.00226814	41	32.8197	-7.70699e-06
2	0	0	1	0	127.202	0.185305	0.185016	-0.0422979	2	-0.00227876	41	33.0695	-7.82579e-06
2	0	0	1	0	127.452	0.190303	0.190317	-0.0418368	2	-0.00228926	41	33.3194	-7.96227e-06
2	0	0	1	0	127.702	0.1953	0.195123	-0.0413056	2	-0.00229964	41	33.5693	-8.05968e-06
2	0	0	1	0	127.951	0.200298	0.200055	-0.0407743	2	-0.00230989	41	33.8192	-8.15711e-06
2	0	0	1	0	128.201	0.205296	0.205025	-0.04023	2	-0.00232001	41	34.0691	-8.24816e-06
2	0	0	1	0	128.451	0.210292	0.209953	-0.0396887	2	-0.00232999	41	34.3189	-8.33277e-06
2	0	0	1	0	128.701	0.215291	0.215061	-0.0390972	2	-0.00233983	41	34.5688	-8.40829e-06
2	0	0	1	0	128.951	0.220288	0.219974	-0.0384934	2	-0.00234952	41	34.8187	-8.46756e-06
2	0	0	1	0	129.201	0.225286	0.224917	-0.037882	2	-0.00235906	41	35.0686	-8.5203e-06
2	0	0	1	0	129.451	0.230284	0.230112	-0.0372679	2	-0.00236844	41	35.3185	-8.57581e-06
2	0	0	1	0	129.701	0.23528	0.234873	-0.0365621	2	-0.00237765	41	35.5683	-8.58746e-06
2	0	0	1	0	129.95	0.240279	0.239933	-0.0358599	2	-0.0023867	41	35.8182	-8.60395e-06
2	0	0	1	0	130.2	0.245276	0.245035	-0.0351424	2	-0.00239557	41	36.0681	-8.61114e-06
2	0	0	1	0	130.45	0.250274	0.249874	-0.0343966	2	-0.00240425	41	36.318	-8.59482e-06
2	0	0	1	0	130.7	0.255272	0.254877	-0.0335965	2	-0.00241275	41	36.5679	-8.56295e-06
2	0	0	1	0	130.95	0.260267	0.260196	-0.0328216	2	-0.00242104	41	36.8177	-8.54003e-06
2	0	0	1	0	131.2	0.265267	0.265199	-0.0320177	2	-0.00242914	41	37.0676	-8.49105e-06
2	0	0	1	0	131.45	0.270264	0.269854	-0.0311419	2	-0.00243702	41	37.3175	-8.40378e-06
2	0	0	1	0	131.7	0.275262	0.274967	-0.0302366	2	-0.00244469	41	37.5674	-8.31407e-06
2	0	0	1	0	131.95	0.28026	0.279813	-0.0293419	2	-0.00245213	41	37.8173	-8.21024e-06
2	0	0	1	0	132.199	0.285255	0.284961	-0.0283871	2	-0.00245933	41	38.0671	-8.0892e-06
2	0	0	1	0	132.449	0.290255	0.289976	-0.0274213	2	-0.0024663	41	38.317	-7.95151e-06
2	0	0	1	0	132.699	0.295252	0.294945	-0.0264099	2	-0.00247302	41	38.5669	-7.78945e-06
2	0	0	1	0	132.949	0.30025	0.299995	-0.0253717	2	-0.00247949	41	38.8168	-7.61138e-06
2	0	0	1	0	133.199	0.305248	0.304824	-0.0243037	2	-0.0024857	41	39.0667	-7.40836e-06
2	0	0	1	0	133.449	0.310245	0.309971	-0.0232381	2	-0.00249163	41	39.3166	-7.20313e-06
2	0	0	1	0	133.699	0.315243	0.315097	-0.0221321	2	-0.00249729	41	39.5664	-6.97375e-06
2	0	0	1	0	133.949	0.32024	0.320054	-0.0209761	2	-0.00250267	41	39.8163	-6.7135e-06
2	0	0	1	0	134.198	0.325238	0.325193	-0.0198202	2	-0.00250776	41	40.0662	-6.44539e-06
2	0	0	1	0	134.448	0.330236	0.329801	-0.0185831	2	-0.00251256	41	40.3161	-6.12871e-06
2	0	0	1	0	134.698	0.335233	0.335189	-0.0173526	2	-0.00251704	41	40.566	-5.8164e-06
2	0	0	1	0	134.948	0.340231	0.340049	-0.0160984	2	-0.00252122	41	40.8158	-5.47425e-06
2	0	0	1	0	135.198	0.345229	0.344855	-0.0147842	2	-0.00252507	41	41.0657	-5.09841e-06
2	0	0	1	0	135.448	0.350226	0.350056	-0.0134418	2	-0.00252859	41	41.3156	-4.7054e-06
2	0	0	1	0	135.698	0.355224	0.355038	-0.012097	2	-0.00253178	41	41.5655	-4.2949e-06
2	0	0	1	0	135.948	0.360221	0.35976	-0.0106498	2	-0.00253461	41	41.8154	-3.83137e-06
2	0	0	1	0	136.197	0.365219	0.365081	-0.00917538	2	-0.00253708	41	42.0652	-3.34976e-06
2	0	0	1	0	136.447	0.370217	0.370252	-0.00767159	2	-0.00253918	41	42.3151	-2.84042e-06
2	0	0	1	0	136.697	0.375214	0.374686	-0.00609283	2	-0.00254089	41	42.565	-2.2829e-06
2	0	0	1	0	136.947	0.380212	0.379988	-0.00444572	2	-0.0025422	41	42.8149	-1.68932e-06
2	0	0	1	0	137.227	0.385809	0.385607	-0.00252365	2	-0.00254318	42	43.0947	-9.73139e-07
2	0	0	1	0	137.477	0.390807	0.390677	-0.000735245	2	-0.00254358	42	43.3446	-2.87243e-07
2	1	0	1	0	137.727	0.395804	0.395521	0.00113009	2	-0.00254353	42	0.1249	4.46974e-07
2	1	0	1	0	137.977	0.400802	0.400444	0.00308754	2	-0.00254301	42	0.3748	1.23639e-06
2	1	0	1	0	138.227	0.4058	0.405306	0.00514271	2	-0.00254198	42	0.6247	2.08437e-06
2	1	0	1	0	138.476	0.410797	0.410417	0.00730675	2	-0.00254042	42	0.8745	2.99881e-06
2	1	0	1	0	138.726	0.415795	0.415562	0.009562	2	-0.00253832	42	1.1244	3.9736e-06
2	1	0	1	0	139.006	0.421392	0.421293	0.0122295	2	-0.00253528	41	1.4043	5.15218e-06
2	1	0	1	0	139.256	0.42639	0.426326	0.0147965	2	-0.00253189	41	1.6542	6.30814e-06
2	1	0	1	0	139.506	0.431387	0.43118	0.0174381	2	-0.00252787	41	1.9041	7.51896e-06
2	1	0	1	0	139.756	0.436385	0.436127	0.0202711	2	-0.00252315	41	2.1539	8.84075e-06
2	1	0	1	0	139.936	0.440008	0.439739	0.0224645	2	-0.00251932	41	2.3337	9.87853e-06