File: Python/Data/GoldElectrode/240322/Carbon/240322-CVEIS-Activation-5mM_Fe2Fe3-1M_H2SO4-0000RPM-Ag_AgCl_BLF8-GC_RDE_01_CV_C15.mpt
EC-Lab ASCII FILE
Nb header lines : 60

Cyclic Voltammetry

Run on channel : 15 (SN 19485)
User :
Electrode connection : standard
Potential control : Ewe
Ewe ctrl range : min = -2.50 V, max = 2.50 V
Ewe,I filtering : 50 kHz
Safety Limits :
	Do not start on E overload
Channel : Floating
Acquisition started on : 03/22/2024 12:39:19.547
Loaded Setting File :  C:\Data\mathias\GoldElectrode\240322-CVEIS-Activation-5mM_Fe2Fe3-1M_H2SO4-0000RPM-Ag_AgCl_BLF8-Au_RDE.mps
Saved on :
	File : 240322-CVEIS-Activation-5mM_Fe2Fe3-1M_H2SO4-0000RPM-Ag_AgCl_BLF8-GC_RDE_01_CV_C15.mpr
	Directory : C:\Data\mathias\GoldElectrode\
	Host : 192.168.0.1
Device : VMP-300 (SN 0826)
Address : USB
EC-Lab for windows v11.52 (software)
Internet server v11.52 (firmware)
Command interpretor v11.52 (firmware)
Electrode material :
Initial state :
Electrolyte :
Comments :
Cable : special
Electrode surface area : 0.001 cm²
Characteristic mass : 0.001 g
Equivalent Weight : 0.000 g/eq.
Density : 0.000 g/cm3
Volume (V) : 0.001 cm³
Record EIS quality indicators
Cycle Definition : Charge/Discharge alternance
Ei (V)              0.000
vs.                 Eoc
dE/dt               200.000
dE/dt unit          mV/s
E1 (V)              1.500
vs.                 Ref
Step percent        50
N                   10
E range min (V)     -2.500
E range max (V)     2.500
I Range             Auto
I Range min         Unset
I Range max         Unset
I Range init        Unset
Bandwidth           8
E2 (V)              -0.300
vs.                 Ref
nc cycles           0
Reverse Scan        1
Ef (V)              0.000
vs.                 Eoc

mode	ox/red	error	control changes	counter inc.	time/s	control/V	Ewe/V	<I>/mA	cycle number	(Q-Qo)/C	I Range	step time/s	P/W
2	1	0	0	0	0.000000000000000E+000	0.441742	0.44084	7.71242e-05	1	0.0000000E+000	44	0.000000000000000E+000	3.39994e-08
2	1	0	1	0	0.0602	0.453785	0.453564	0.00389984	1	1.05132e-07	42	0.0413	1.76883e-06
2	1	0	1	0	0.0902	0.459782	0.459575	0.00382362	1	2.11639e-07	42	0.0713	1.75724e-06
2	1	0	1	0	0.1202	0.465779	0.465506	0.00434529	1	3.34409e-07	42	0.1013	2.02276e-06
2	1	0	1	0	0.1502	0.471776	0.47151	0.00495864	1	4.7434e-07	42	0.1313	2.33805e-06
2	1	0	1	0	0.1802	0.477773	0.477494	0.00551907	1	6.31504e-07	42	0.1613	2.63532e-06
2	1	0	1	0	0.2101	0.48377	0.483517	0.00620037	1	8.06587e-07	42	0.1912	2.99799e-06
2	1	0	1	0	0.2401	0.489767	0.489489	0.00682464	1	1.00119e-06	42	0.2212	3.34059e-06
2	1	0	1	0	0.2701	0.495764	0.495484	0.00756302	1	1.21666e-06	42	0.2512	3.74735e-06
2	1	0	1	0	0.3001	0.501761	0.501468	0.00829577	1	1.45441e-06	42	0.2812	4.16006e-06
2	1	0	1	0	0.3301	0.507758	0.507472	0.00916923	1	1.71674e-06	42	0.3112	4.65313e-06
2	1	0	1	0	0.3601	0.513755	0.513458	0.0101052	1	2.00575e-06	42	0.3412	5.18858e-06
2	1	0	1	0	0.42	0.525749	0.525501	0.0122396	1	2.65851e-06	41	0.4011	6.43194e-06
2	1	0	1	0	0.45	0.531746	0.531493	0.0135466	1	3.04579e-06	41	0.4311	7.19993e-06
2	1	0	1	0	0.48	0.537743	0.53747	0.0149501	1	3.47314e-06	41	0.4611	8.03525e-06
2	1	0	1	0	0.51	0.54374	0.54348	0.0165202	1	3.94528e-06	41	0.4911	8.97839e-06
2	1	0	1	0	0.54	0.549737	0.549486	0.0182533	1	4.4665e-06	41	0.5211	1.00299e-05
2	1	0	1	0	0.57	0.555734	0.555472	0.0201793	1	5.04247e-06	41	0.5511	1.1209e-05
2	1	0	1	0	0.5999	0.561731	0.561469	0.0222726	1	5.67687e-06	41	0.581	1.25054e-05
2	1	0	1	0	0.6299	0.567728	0.567483	0.0246113	1	6.38024e-06	41	0.611	1.39665e-05
2	1	0	1	0	0.6599	0.573725	0.573454	0.0271588	1	7.15646e-06	41	0.641	1.55743e-05
2	1	0	1	0	0.6899	0.579722	0.579472	0.0299773	1	8.01369e-06	41	0.671	1.7371e-05
2	1	0	1	0	0.7199	0.585719	0.585438	0.033002	1	8.95843e-06	41	0.701	1.93206e-05
2	1	0	1	0	0.7499	0.591715	0.591442	0.0363277	1	9.99839e-06	41	0.731	2.14857e-05
2	1	0	1	0	0.7799	0.597712	0.597447	0.0398853	1	1.11413e-05	41	0.761	2.38294e-05
2	1	0	1	0	0.8098	0.603709	0.603426	0.0437227	1	1.23915e-05	41	0.7909	2.63834e-05
2	1	0	1	0	0.8398	0.609706	0.609447	0.0477666	1	1.37638e-05	41	0.8209	2.91112e-05
2	1	0	1	0	0.8698	0.615703	0.615454	0.0521141	1	1.52627e-05	41	0.8509	3.20739e-05
2	1	0	1	0	0.8998	0.6217	0.621434	0.0566766	1	1.68951e-05	41	0.8809	3.52208e-05
2	1	0	1	0	0.9298	0.627697	0.627416	0.0615336	1	1.86686e-05	41	0.9109	3.86072e-05
2	1	0	1	0	0.9598	0.633694	0.633419	0.0665477	1	2.059e-05	41	0.9409	4.21526e-05
2	1	0	1	0	0.9897	0.639691	0.639408	0.0718594	1	2.26595e-05	41	0.9708	4.59475e-05
2	1	0	1	0	1.0197	0.645688	0.645418	0.0773054	1	2.48971e-05	41	1.0008	4.98943e-05
2	1	0	1	0	1.0497	0.651685	0.651431	0.0830241	1	2.73025e-05	41	1.0308	5.40845e-05
2	1	0	1	0	1.0797	0.657682	0.657415	0.088895	1	2.98815e-05	41	1.0608	5.84409e-05
2	1	0	1	0	1.1097	0.663679	0.663402	0.0949672	1	3.26398e-05	41	1.0908	6.30014e-05
2	1	0	1	0	1.1397	0.669676	0.669401	0.101213	1	3.55828e-05	41	1.1208	6.77518e-05
2	1	0	1	0	1.1697	0.675673	0.675394	0.107641	1	3.87158e-05	41	1.1508	7.27004e-05
2	1	0	1	0	1.2301	0.687767	0.687516	0.12093	1	4.55199e-05	40	1.2112	8.31412e-05
2	1	0	1	0	1.2601	0.693764	0.693504	0.127745	1	4.92511e-05	40	1.2412	8.85916e-05
2	1	0	1	0	1.2901	0.699761	0.699497	0.134614	1	5.31879e-05	40	1.2712	9.41618e-05
2	1	0	1	0	1.3201	0.705758	0.705504	0.141543	1	5.7332e-05	40	1.3012	9.9859e-05
2	1	0	1	0	1.3501	0.711755	0.71148	0.148478	1	6.16839e-05	40	1.3312	0.000105639
2	1	0	1	0	1.38	0.717747	0.717491	0.155454	1	6.62276e-05	40	1.3611	0.000111537
2	1	0	1	0	1.41	0.723749	0.723482	0.162196	1	7.09929e-05	40	1.3911	0.000117346
2	1	0	1	0	1.44	0.729745	0.729478	0.168825	1	7.59589e-05	40	1.4211	0.000123154
2	1	0	1	0	1.47	0.735742	0.735463	0.175208	1	8.11202e-05	40	1.4511	0.000128859
2	1	0	1	0	1.5	0.741739	0.741488	0.18124	1	8.64687e-05	40	1.4811	0.000134387
2	1	0	1	0	1.53	0.747736	0.747463	0.186979	1	9.19936e-05	40	1.5111	0.00013976
2	1	0	1	0	1.56	0.753733	0.753459	0.192216	1	9.76824e-05	40	1.5411	0.000144827
2	1	0	1	0	1.5899	0.75973	0.75947	0.197024	1	0.000103503	40	1.571	0.000149634
2	1	0	1	0	1.6199	0.765727	0.76547	0.201156	1	0.000109477	40	1.601	0.000153979
2	1	0	1	0	1.6499	0.771724	0.771461	0.204652	1	0.000115566	40	1.631	0.000157881
2	1	0	1	0	1.6799	0.777721	0.777463	0.207497	1	0.00012175	40	1.661	0.000161321
2	1	0	1	0	1.7099	0.783718	0.783461	0.209692	1	0.000128011	40	1.691	0.000164286
2	1	0	1	0	1.7399	0.789715	0.789451	0.211266	1	0.000134327	40	1.721	0.000166784
2	1	0	1	0	1.7699	0.795712	0.795443	0.212147	1	0.00014068	40	1.751	0.000168751
2	1	0	1	0	1.7998	0.801709	0.801438	0.212425	1	0.000147028	40	1.7809	0.000170245
2	1	0	1	0	1.8298	0.807706	0.807457	0.212119	1	0.000153398	40	1.8109	0.000171277
2	1	0	1	0	1.8598	0.813703	0.81345	0.211233	1	0.00015975	40	1.8409	0.000171828
2	1	0	1	0	1.8898	0.8197	0.819458	0.210019	1	0.00016607	40	1.8709	0.000172102
2	1	0	1	0	1.9198	0.825697	0.82545	0.208257	1	0.000172344	40	1.9009	0.000171906
2	1	0	1	0	1.9498	0.831694	0.831457	0.206229	1	0.000178562	40	1.9309	0.000171471
2	1	0	1	0	1.9797	0.837691	0.837444	0.20391	1	0.000184693	40	1.9608	0.000170763
2	1	0	1	0	2.0097	0.843688	0.843449	0.201374	1	0.000190772	40	1.9908	0.000169848
2	1	0	1	0	2.0397	0.849685	0.849414	0.198553	1	0.00019677	40	2.0208	0.000168654
2	1	0	1	0	2.0697	0.855682	0.855407	0.19572	1	0.000202683	40	2.0508	0.00016742
2	1	0	1	0	2.0997	0.861679	0.861417	0.192705	1	0.000208509	40	2.0808	0.000166
2	1	0	1	0	2.1297	0.867676	0.867395	0.189681	1	0.000214245	40	2.1108	0.000164528
2	1	0	1	0	2.1597	0.873672	0.873407	0.186694	1	0.000219891	40	2.1408	0.00016306
2	1	0	1	0	2.1896	0.87967	0.87939	0.183702	1	0.000225428	40	2.1707	0.000161545
2	1	0	1	0	2.2196	0.885667	0.885398	0.180705	1	0.000230894	40	2.2007	0.000159996
2	1	0	1	0	2.2496	0.891663	0.891411	0.177744	1	0.00023627	40	2.2307	0.000158443
2	1	0	1	0	2.2796	0.89766	0.897381	0.174898	1	0.000241559	40	2.2607	0.00015695
2	1	0	1	0	2.3096	0.903657	0.903392	0.172032	1	0.000246762	40	2.2907	0.000155412
2	1	0	1	0	2.3396	0.909654	0.909406	0.169258	1	0.000251882	40	2.3207	0.000153924
2	1	0	1	0	2.3695	0.915651	0.915397	0.166724	1	0.000256905	40	2.3506	0.000152619
2	1	0	1	0	2.3995	0.921648	0.921392	0.164103	1	0.000261866	40	2.3806	0.000151203
2	1	0	1	0	2.4295	0.927645	0.927381	0.161655	1	0.000266752	40	2.4106	0.000149915
2	1	0	1	0	2.4595	0.933642	0.933391	0.159262	1	0.000271565	40	2.4406	0.000148654
2	1	0	1	0	2.4895	0.939639	0.939379	0.156996	1	0.000276307	40	2.4706	0.000147479
2	1	0	1	0	2.5195	0.945636	0.945381	0.154743	1	0.000280983	40	2.5006	0.000146291
2	1	0	1	0	2.5495	0.951633	0.951363	0.152616	1	0.000285593	40	2.5306	0.000145194
2	1	0	1	0	2.5794	0.95763	0.957351	0.150626	1	0.000290126	40	2.5605	0.000144202
2	1	0	1	0	2.6094	0.963627	0.963358	0.148698	1	0.000294616	40	2.5905	0.00014325
2	1	0	1	0	2.6394	0.969624	0.969367	0.146858	1	0.000299048	40	2.6205	0.000142359
2	1	0	1	0	2.6694	0.975621	0.975369	0.14505	1	0.000303427	40	2.6505	0.000141477
2	1	0	1	0	2.6994	0.981618	0.981344	0.143396	1	0.000307753	40	2.6805	0.000140721
2	1	0	1	0	2.7294	0.987615	0.987368	0.141767	1	0.00031203	40	2.7105	0.000139976
2	1	0	1	0	2.7594	0.993621	0.993374	0.140288	1	0.000316259	40	2.7405	0.000139358
2	1	0	1	0	2.7893	0.999609	0.999347	0.138758	1	0.00032043	40	2.7704	0.000138668
2	1	0	1	0	2.8193	1.00561	1.00535	0.137314	1	0.000324571	40	2.8004	0.000138048
2	1	0	1	0	2.8493	1.0116	1.01134	0.135998	1	0.00032867	40	2.8304	0.00013754
2	1	0	1	0	2.8793	1.0176	1.01733	0.134663	1	0.00033273	40	2.8604	0.000136997
2	1	0	1	0	2.9093	1.0236	1.02333	0.133493	1	0.000336752	40	2.8904	0.000136607
2	1	0	1	0	2.9393	1.02959	1.02934	0.132297	1	0.000340738	40	2.9204	0.000136179
2	1	0	1	0	2.9692	1.03559	1.03532	0.131228	1	0.000344678	40	2.9503	0.000135863
2	1	0	1	0	2.9992	1.04159	1.04134	0.130157	1	0.000348598	40	2.9803	0.000135538
2	1	0	1	0	3.0292	1.04758	1.04732	0.12914	1	0.000352486	40	3.0103	0.00013525
2	1	0	1	0	3.0592	1.05358	1.05333	0.128185	1	0.000356346	40	3.0403	0.00013502
2	1	0	1	0	3.0892	1.05958	1.05931	0.127281	1	0.000360177	40	3.0703	0.000134831
2	1	0	1	0	3.1192	1.06558	1.06532	0.126377	1	0.000363982	40	3.1003	0.000134632
2	1	0	1	0	3.1492	1.07157	1.0713	0.125594	1	0.000367761	40	3.1303	0.000134548
2	1	0	1	0	3.1791	1.07757	1.07732	0.1248	1	0.000371504	40	3.1602	0.00013445
2	1	0	1	0	3.2091	1.08357	1.08332	0.124083	1	0.000375237	40	3.1902	0.000134422
2	1	0	1	0	3.2391	1.08956	1.08931	0.123375	1	0.000378949	40	3.2202	0.000134393
2	1	0	1	0	3.2691	1.09556	1.0953	0.122757	1	0.000382641	40	3.2502	0.000134456
2	1	0	1	0	3.2991	1.10156	1.10131	0.122128	1	0.000386313	40	3.2802	0.000134501
2	1	0	1	0	3.3291	1.10755	1.1073	0.121571	1	0.000389969	40	3.3102	0.000134616
2	1	0	1	0	3.359	1.11355	1.1133	0.121102	1	0.000393597	40	3.3401	0.000134823
2	1	0	1	0	3.389	1.11955	1.1193	0.120621	1	0.000397223	40	3.3701	0.000135011
2	1	0	1	0	3.419	1.12554	1.1253	0.120175	1	0.000400835	40	3.4001	0.000135233
2	1	0	1	0	3.449	1.13154	1.13131	0.119799	1	0.000404435	40	3.4301	0.00013553
2	1	0	1	0	3.479	1.13754	1.13729	0.119401	1	0.000408023	40	3.4601	0.000135793
2	1	0	1	0	3.509	1.14354	1.14327	0.119025	1	0.000411599	40	3.4901	0.000136078
2	1	0	1	0	3.539	1.14953	1.14929	0.118626	1	0.000415164	40	3.5201	0.000136336
2	1	0	1	0	3.5689	1.15553	1.15529	0.118292	1	0.000418707	40	3.55	0.000136663
2	1	0	1	0	3.5989	1.16153	1.16128	0.117988	1	0.000422251	40	3.58	0.000137017
2	1	0	1	0	3.6289	1.16752	1.16726	0.117672	1	0.000425785	40	3.61	0.000137353
2	1	0	1	0	3.6589	1.17352	1.17327	0.117364	1	0.000429311	40	3.64	0.0001377
2	1	0	1	0	3.6889	1.17952	1.17927	0.1171	1	0.000432828	40	3.67	0.000138092
2	1	0	1	0	3.7189	1.18551	1.18526	0.11686	1	0.000436336	40	3.7	0.00013851
2	1	0	1	0	3.7488	1.19151	1.19125	0.116655	1	0.000439826	40	3.7299	0.000138966
2	1	0	1	0	3.7788	1.19751	1.19724	0.116345	1	0.000443321	40	3.7599	0.000139293
2	1	0	1	0	3.8088	1.20351	1.20324	0.116143	1	0.000446808	40	3.7899	0.000139749
2	1	0	1	0	3.8388	1.2095	1.20923	0.115976	1	0.00045029	40	3.8199	0.000140242
2	1	0	1	0	3.8688	1.2155	1.21524	0.115814	1	0.000453767	40	3.8499	0.000140741
2	1	0	1	0	3.8988	1.2215	1.22123	0.115728	1	0.000457241	40	3.8799	0.000141331
2	1	0	1	0	3.9288	1.22749	1.22725	0.115722	1	0.000460712	40	3.9099	0.00014202
2	1	0	1	0	3.9587	1.23349	1.23325	0.115689	1	0.00046417	40	3.9398	0.000142673
2	1	0	1	0	3.9887	1.23949	1.23924	0.115669	1	0.00046764	40	3.9698	0.000143342
2	1	0	1	0	4.0187	1.24548	1.24524	0.115726	1	0.000471111	40	3.9998	0.000144107
2	1	0	1	0	4.0487	1.25148	1.25122	0.115812	1	0.000474584	40	4.0298	0.000144905
2	1	0	1	0	4.0787	1.25748	1.25723	0.115904	1	0.000478061	40	4.0598	0.000145718
2	1	0	1	0	4.1087	1.26347	1.26319	0.116074	1	0.000481541	40	4.0898	0.000146623
2	1	0	1	0	4.1387	1.26947	1.26922	0.116225	1	0.000485025	40	4.1198	0.000147516
2	1	0	1	0	4.1686	1.27547	1.27521	0.11639	1	0.000488502	40	4.1497	0.000148421
2	1	0	1	0	4.1986	1.28147	1.28121	0.116598	1	0.000491996	40	4.1797	0.000149387
2	1	0	1	0	4.2286	1.28746	1.28721	0.116746	1	0.000495496	40	4.2097	0.000150276
2	1	0	1	0	4.2586	1.29346	1.2932	0.116953	1	0.000499001	40	4.2397	0.000151243
2	1	0	1	0	4.2886	1.29946	1.29918	0.117223	1	0.000502513	40	4.2697	0.000152295
2	1	0	1	0	4.3186	1.30545	1.30521	0.117481	1	0.000506033	40	4.2997	0.000153338
2	1	0	1	0	4.3485	1.31145	1.31121	0.117807	1	0.000509551	40	4.3296	0.00015447
2	1	0	1	0	4.3785	1.31745	1.31721	0.11819	1	0.000513091	40	4.3596	0.00015568
2	1	0	1	0	4.4085	1.32344	1.32317	0.118575	1	0.000516643	40	4.3896	0.000156894
2	1	0	1	0	4.4385	1.32944	1.32919	0.119005	1	0.000520207	40	4.4196	0.00015818
2	1	0	1	0	4.4685	1.33544	1.33515	0.119423	1	0.000523784	40	4.4496	0.000159448
2	1	0	1	0	4.4985	1.34144	1.34117	0.119855	1	0.000527374	40	4.4796	0.000160745
2	1	0	1	0	4.5285	1.34743	1.34717	0.120217	1	0.000530975	40	4.5096	0.000161953
2	1	0	1	0	4.5584	1.35343	1.35316	0.120602	1	0.000534576	40	4.5395	0.000163195
2	1	0	1	0	4.5884	1.35943	1.35917	0.12097	1	0.0005382	40	4.5695	0.000164418
2	1	0	1	0	4.6184	1.36542	1.36515	0.12135	1	0.000541834	40	4.5995	0.000165661
2	1	0	1	0	4.6484	1.37142	1.37114	0.121894	1	0.000545482	40	4.6295	0.000167134
2	1	0	1	0	4.6784	1.37742	1.37715	0.122413	1	0.000549146	40	4.6595	0.000168582
2	1	0	1	0	4.7084	1.38341	1.38315	0.123039	1	0.000552827	40	4.6895	0.000170182
2	1	0	1	0	4.7383	1.38941	1.38914	0.123602	1	0.000556515	40	4.7194	0.000171701
2	1	0	1	0	4.7683	1.39541	1.39516	0.12417	1	0.000560231	40	4.7494	0.000173237
2	1	0	1	0	4.7983	1.4014	1.40115	0.124585	1	0.000563962	40	4.7794	0.000174562
2	1	0	1	0	4.8283	1.4074	1.40715	0.125006	1	0.000567706	40	4.8094	0.000175902
2	1	0	1	0	4.8583	1.4134	1.41314	0.125383	1	0.000571463	40	4.8394	0.000177184
2	1	0	1	0	4.8883	1.4194	1.41914	0.125915	1	0.000575233	40	4.8694	0.000178692
2	1	0	1	0	4.9183	1.42539	1.42514	0.126533	1	0.00057902	40	4.8994	0.000180327
2	1	0	1	0	4.9482	1.43139	1.43113	0.127321	1	0.000582815	40	4.9293	0.000182212
2	1	0	1	0	4.9782	1.43739	1.43712	0.128136	1	0.000586646	40	4.9593	0.000184147
2	1	0	1	0	5.0082	1.44338	1.44314	0.129167	1	0.000590505	40	4.9893	0.000186405
2	1	0	1	0	5.0382	1.44938	1.44913	0.130228	1	0.000594396	40	5.0193	0.000188718
2	1	0	1	0	5.0682	1.45538	1.45511	0.131454	1	0.000598321	40	5.0493	0.00019128
2	1	0	1	0	5.0982	1.46137	1.46112	0.132777	1	0.000602284	40	5.0793	0.000194002
2	1	0	1	0	5.1282	1.46738	1.46712	0.134292	1	0.000606289	40	5.1093	0.000197023
2	1	0	1	0	5.1581	1.47337	1.47313	0.135829	1	0.000610326	40	5.1392	0.000200093
2	1	0	1	0	5.1881	1.47937	1.47911	0.137454	1	0.000614425	40	5.1692	0.00020331
2	1	0	1	0	5.2181	1.48536	1.4851	0.139145	1	0.000618574	40	5.1992	0.000206645
2	1	0	1	0	5.2481	1.49136	1.49111	0.140934	1	0.000622775	40	5.2292	0.000210148
2	1	0	1	0	5.2781	1.49736	1.49709	0.142701	1	0.00062703	40	5.2592	0.000213636
2	1	0	1	0	5.2991	1.49846	1.49813	0.133646	1	0.000629977	40	5.2802	0.000200219
2	1	0	1	0	5.3291	1.49246	1.49214	0.120512	1	0.000633772	40	5.3102	0.00017982
2	1	0	1	0	5.3591	1.48646	1.48614	0.111254	1	0.000637242	40	5.3402	0.000165338
2	1	0	1	0	5.3891	1.48046	1.48015	0.104305	1	0.000640471	40	5.3702	0.000154387
2	1	0	1	0	5.4191	1.47447	1.47416	0.0987257	1	0.000643513	40	5.4002	0.000145537
2	1	0	1	0	5.4491	1.46847	1.46816	0.0942341	1	0.000646404	40	5.4302	0.000138351
2	1	0	1	0	5.479	1.46247	1.46217	0.0904461	1	0.000649162	40	5.4601	0.000132247
2	1	0	1	0	5.509	1.45648	1.45617	0.0872694	1	0.000651827	40	5.4901	0.000127079
2	1	0	1	0	5.539	1.45048	1.45016	0.0845553	1	0.000654403	40	5.5201	0.000122619
2	1	0	1	0	5.569	1.44448	1.44418	0.0822295	1	0.000656904	40	5.5501	0.000118754
2	1	0	1	0	5.599	1.43849	1.43819	0.0801963	1	0.000659339	40	5.5801	0.000115338
2	1	0	1	0	5.629	1.43249	1.4322	0.0784343	1	0.000661717	40	5.6101	0.000112334
2	1	0	1	0	5.6589	1.42649	1.42621	0.0768345	1	0.000664037	40	5.64	0.000109582
2	1	0	1	0	5.6889	1.4205	1.4202	0.0753612	1	0.000666319	40	5.67	0.000107028
2	1	0	1	0	5.7189	1.4145	1.41418	0.0741396	1	0.000668561	40	5.7	0.000104847
2	1	0	1	0	5.7489	1.4085	1.4082	0.072987	1	0.000670768	40	5.73	0.000102781
2	1	0	1	0	5.7789	1.4025	1.4022	0.0719445	1	0.000672941	40	5.76	0.00010088
2	1	0	1	0	5.8089	1.39651	1.3962	0.0709704	1	0.000675084	40	5.79	9.90887e-05
2	1	0	1	0	5.8389	1.39051	1.39018	0.0700836	1	0.0006772	40	5.82	9.74288e-05
2	1	0	1	0	5.8688	1.38451	1.38421	0.0692916	1	0.000679284	40	5.8499	9.5914e-05
2	1	0	1	0	5.8988	1.37852	1.3782	0.0685822	1	0.000681351	40	5.8799	9.45201e-05
2	1	0	1	0	5.9288	1.37252	1.3722	0.0678691	1	0.000683397	40	5.9099	9.31304e-05
2	1	0	1	0	5.9588	1.36652	1.3662	0.0672341	1	0.000685424	40	5.9399	9.18552e-05
2	1	0	1	0	5.9888	1.36053	1.36022	0.066649	1	0.000687431	40	5.9699	9.06572e-05
2	1	0	1	0	6.0188	1.35453	1.35422	0.0660407	1	0.000689422	40	5.9999	8.94336e-05
2	1	0	1	0	6.0487	1.34853	1.34821	0.0654863	1	0.000691389	40	6.0298	8.82894e-05
2	1	0	1	0	6.0787	1.34253	1.34222	0.0650481	1	0.000693347	40	6.0598	8.7309e-05
2	1	0	1	0	6.1087	1.33654	1.33622	0.0645316	1	0.00069529	40	6.0898	8.62285e-05
2	1	0	1	0	6.1387	1.33054	1.33022	0.0640565	1	0.00069722	40	6.1198	8.52095e-05
2	1	0	1	0	6.1687	1.32454	1.32423	0.0636698	1	0.000699136	40	6.1498	8.43132e-05
2	1	0	1	0	6.1987	1.31855	1.31824	0.0632152	1	0.000701039	40	6.1798	8.33328e-05
2	1	0	1	0	6.2287	1.31255	1.31224	0.0628723	1	0.00070293	40	6.2098	8.25038e-05
2	1	0	1	0	6.2586	1.30655	1.30627	0.062494	1	0.000704803	40	6.2397	8.16339e-05
2	1	0	1	0	6.2886	1.30056	1.30026	0.0620815	1	0.000706672	40	6.2697	8.07224e-05
2	1	0	1	0	6.3186	1.29456	1.29425	0.0617794	1	0.00070853	40	6.2997	7.99579e-05
2	1	0	1	0	6.3486	1.28856	1.28826	0.0614462	1	0.000710378	40	6.3297	7.91586e-05
2	1	0	1	0	6.3786	1.28257	1.28227	0.0611198	1	0.000712216	40	6.3597	7.83724e-05
2	1	0	1	0	6.4086	1.27657	1.27626	0.0607599	1	0.000714044	40	6.3897	7.75453e-05
2	1	0	1	0	6.4386	1.27057	1.27027	0.0604343	1	0.000715862	40	6.4197	7.67676e-05
2	1	0	1	0	6.4685	1.26457	1.26427	0.0601589	1	0.000717665	40	6.4496	7.60573e-05
2	1	0	1	0	6.4985	1.25858	1.25827	0.0598777	1	0.000719466	40	6.4796	7.53421e-05
2	1	0	1	0	6.5285	1.25258	1.25228	0.0595819	1	0.000721259	40	6.5096	7.46135e-05
2	1	0	1	0	6.5585	1.24658	1.24629	0.0593051	1	0.000723043	40	6.5396	7.39115e-05
2	1	0	1	0	6.5885	1.24059	1.2403	0.0590501	1	0.000724818	40	6.5696	7.32398e-05
2	1	0	1	0	6.6185	1.23459	1.23429	0.0588066	1	0.000726586	40	6.5996	7.25841e-05
2	1	0	1	0	6.6484	1.22859	1.2283	0.0585416	1	0.00072834	40	6.6295	7.19064e-05
2	1	0	1	0	6.6784	1.2226	1.22229	0.0583177	1	0.000730093	40	6.6595	7.1281e-05
2	1	0	1	0	6.7084	1.2166	1.21628	0.0580521	1	0.000731838	40	6.6895	7.06078e-05
2	1	0	1	0	6.7384	1.2106	1.21029	0.0578443	1	0.000733576	40	6.7195	7.00084e-05
2	1	0	1	0	6.7684	1.2046	1.2043	0.0575479	1	0.000735307	40	6.7495	6.93049e-05
2	1	0	1	0	6.7984	1.19861	1.19831	0.0573357	1	0.000737031	40	6.7795	6.8706e-05
2	1	0	1	0	6.8284	1.19261	1.19232	0.0571436	1	0.000738749	40	6.8095	6.81334e-05
2	1	0	1	0	6.8583	1.18661	1.18629	0.0569444	1	0.000740454	40	6.8394	6.75528e-05
2	1	0	1	0	6.8883	1.18062	1.18032	0.0566748	1	0.000742158	40	6.8694	6.68943e-05
2	1	0	1	0	6.9183	1.17462	1.17433	0.0564538	1	0.000743855	40	6.8994	6.62953e-05
2	1	0	1	0	6.9483	1.16862	1.16831	0.0562581	1	0.000745546	40	6.9294	6.57272e-05
2	1	0	1	0	6.9783	1.16263	1.16232	0.0560392	1	0.000747231	40	6.9594	6.51353e-05
2	1	0	1	0	7.0083	1.15663	1.15633	0.0558307	1	0.00074891	40	6.9894	6.45588e-05
2	1	0	1	0	7.0382	1.15063	1.15033	0.0556353	1	0.000750577	40	7.0193	6.39991e-05
2	1	0	1	0	7.0682	1.14464	1.14432	0.0554539	1	0.000752244	40	7.0493	6.34568e-05
2	1	0	1	0	7.0982	1.13864	1.13834	0.0552616	1	0.000753904	40	7.0793	6.29067e-05
2	1	0	1	0	7.1282	1.13264	1.13234	0.055081	1	0.000755559	40	7.1093	6.23703e-05
2	1	0	1	0	7.1582	1.12664	1.12634	0.0549063	1	0.000757209	40	7.1393	6.18431e-05
2	1	0	1	0	7.1882	1.12065	1.12032	0.0547208	1	0.000758852	40	7.1693	6.13051e-05
2	1	0	1	0	7.2182	1.11465	1.11434	0.0544398	1	0.00076049	40	7.1993	6.06644e-05
2	1	0	1	0	7.2481	1.10865	1.10835	0.0542941	1	0.000762116	40	7.2292	6.01767e-05
2	1	0	1	0	7.2781	1.10266	1.10234	0.0541097	1	0.000763742	40	7.2592	5.96475e-05
2	1	0	1	0	7.3081	1.09666	1.09635	0.0539297	1	0.000765362	40	7.2892	5.91261e-05
2	1	0	1	0	7.3381	1.09066	1.09037	0.0537336	1	0.000766978	40	7.3192	5.85894e-05
2	1	0	1	0	7.3681	1.08467	1.08436	0.0535713	1	0.000768587	40	7.3492	5.80908e-05
2	1	0	1	0	7.3981	1.07867	1.07836	0.0533144	1	0.000770191	40	7.3792	5.74922e-05
2	1	0	1	0	7.428	1.07268	1.07237	0.0531509	1	0.000771783	40	7.4091	5.69976e-05
2	1	0	1	0	7.458	1.06667	1.06637	0.0530043	1	0.000773376	40	7.4391	5.6522e-05
2	1	0	1	0	7.488	1.06068	1.06037	0.0528349	1	0.000774963	40	7.4691	5.60246e-05
2	1	0	1	0	7.518	1.05468	1.05436	0.0526268	1	0.000776545	40	7.4991	5.54874e-05
2	1	0	1	0	7.548	1.04868	1.04836	0.052437	1	0.000778121	40	7.5291	5.49731e-05
2	1	0	1	0	7.578	1.04269	1.04238	0.0522692	1	0.000779691	40	7.5591	5.44845e-05
2	1	0	1	0	7.608	1.03669	1.03641	0.0520747	1	0.000781255	40	7.5891	5.39708e-05
2	1	0	1	0	7.6379	1.03069	1.03039	0.0518301	1	0.000782809	40	7.619	5.34051e-05
2	1	0	1	0	7.6679	1.0247	1.02439	0.0516646	1	0.000784361	40	7.649	5.29247e-05
2	1	0	1	0	7.6979	1.0187	1.01838	0.0514248	1	0.000785908	40	7.679	5.23699e-05
2	1	0	1	0	7.7279	1.0127	1.01238	0.0512381	1	0.000787448	40	7.709	5.18725e-05
2	1	0	1	0	7.7579	1.0067	1.00637	0.0510301	1	0.000788983	40	7.739	5.13554e-05
2	1	0	1	0	7.7879	1.00071	1.00039	0.0508258	1	0.000790511	40	7.769	5.08458e-05
2	1	0	1	0	7.8179	0.994711	0.99441	0.0506372	1	0.000792033	40	7.799	5.03542e-05
2	1	0	1	0	7.8478	0.988714	0.988403	0.0503775	1	0.000793543	40	7.8289	4.97933e-05
2	1	0	1	0	7.8778	0.982717	0.982396	0.0501672	1	0.000795052	40	7.8589	4.9284e-05
2	1	0	1	0	7.9078	0.97672	0.976413	0.0499755	1	0.000796553	40	7.8889	4.87968e-05
2	1	0	1	0	7.9378	0.970723	0.970415	0.0497147	1	0.000798048	40	7.9189	4.82439e-05
2	1	0	1	0	7.9678	0.964726	0.964403	0.0494432	1	0.000799535	40	7.9489	4.76832e-05
2	1	0	1	0	7.9978	0.958729	0.958416	0.0492052	1	0.000801015	40	7.9789	4.71591e-05
2	1	0	1	0	8.0277	0.952732	0.952426	0.0489282	1	0.000802482	40	8.0088	4.66005e-05
2	1	0	1	0	8.0577	0.946735	0.946419	0.0486645	1	0.000803946	40	8.0388	4.6057e-05
2	1	0	1	0	8.0877	0.940739	0.940424	0.0483686	1	0.000805402	40	8.0688	4.5487e-05
2	1	0	1	0	8.1177	0.934742	0.934445	0.0480887	1	0.000806849	40	8.0988	4.49363e-05
2	1	0	1	0	8.1477	0.928745	0.928445	0.0477718	1	0.000808287	40	8.1288	4.43535e-05
2	1	0	1	0	8.1777	0.922748	0.92243	0.0474567	1	0.000809716	40	8.1588	4.37754e-05
2	1	0	1	0	8.2077	0.916751	0.916449	0.0471262	1	0.000811135	40	8.1888	4.31888e-05
2	1	0	1	0	8.2376	0.910754	0.910427	0.0468212	1	0.000812539	40	8.2187	4.26273e-05
2	1	0	1	0	8.2676	0.904757	0.904449	0.0464742	1	0.000813938	40	8.2487	4.20336e-05
2	1	0	1	0	8.2976	0.89876	0.898438	0.046066	1	0.000815326	40	8.2787	4.13875e-05
2	1	0	1	0	8.3276	0.892763	0.892449	0.0456947	1	0.000816702	40	8.3087	4.07802e-05
2	1	0	1	0	8.3576	0.886766	0.886454	0.0453108	1	0.000818067	40	8.3387	4.01659e-05
2	1	0	1	0	8.3876	0.880769	0.880451	0.0448841	1	0.000819419	40	8.3687	3.95182e-05
2	1	0	1	0	8.4175	0.874772	0.874461	0.0444102	1	0.000820754	40	8.3986	3.8835e-05
2	1	0	1	0	8.4775	0.862778	0.86247	0.0435102	1	0.000823402	41	8.4586	3.75262e-05
2	1	0	1	0	8.5075	0.856781	0.856482	0.0430212	1	0.0008247	41	8.4886	3.68469e-05
2	1	0	1	0	8.5375	0.850784	0.850474	0.0424753	1	0.000825982	41	8.5186	3.61241e-05
2	1	0	1	0	8.5675	0.844787	0.844493	0.041928	1	0.000827248	41	8.5486	3.54079e-05
2	1	0	1	0	8.5975	0.83879	0.838477	0.0413604	1	0.000828497	41	8.5786	3.46798e-05
2	1	0	1	0	8.6274	0.832793	0.832497	0.0407568	1	0.000829724	41	8.6085	3.39299e-05
2	1	0	1	0	8.6574	0.826796	0.826485	0.0401264	1	0.000830937	41	8.6385	3.31638e-05
2	1	0	1	0	8.6874	0.820799	0.820495	0.0394524	1	0.000832131	41	8.6685	3.23705e-05
2	1	0	1	0	8.7174	0.814802	0.814469	0.0387624	1	0.000833304	41	8.6985	3.15708e-05
2	1	0	1	0	8.7474	0.808805	0.808499	0.0380641	1	0.000834457	41	8.7285	3.07748e-05
2	1	0	1	0	8.7774	0.802808	0.802473	0.0372786	1	0.000835587	41	8.7585	2.99151e-05
2	1	0	1	0	8.8074	0.796807	0.796506	0.0365015	1	0.000836694	41	8.7885	2.90736e-05
2	1	0	1	0	8.8373	0.790814	0.790501	0.0357017	1	0.000837773	41	8.8184	2.82222e-05
2	1	0	1	0	8.8673	0.784817	0.784509	0.0348623	1	0.000838832	41	8.8484	2.73498e-05
2	1	0	1	0	8.8973	0.778821	0.778514	0.0339386	1	0.000839863	41	8.8784	2.64216e-05
2	1	0	1	0	8.9273	0.772824	0.772515	0.0330274	1	0.000840869	41	8.9084	2.55141e-05
2	1	0	1	0	8.9573	0.766827	0.766516	0.0320877	1	0.000841846	41	8.9384	2.45957e-05
2	1	0	1	0	8.9873	0.76083	0.76053	0.0311429	1	0.000842794	41	8.9684	2.36851e-05
2	1	0	1	0	9.0172	0.754833	0.754527	0.030136	1	0.00084371	41	8.9983	2.27384e-05
2	1	0	1	0	9.0472	0.748836	0.748521	0.0291124	1	0.000844599	41	9.0283	2.17912e-05
2	1	0	1	0	9.0772	0.742839	0.742525	0.0280871	1	0.000845458	41	9.0583	2.08554e-05
2	1	0	1	0	9.1072	0.736842	0.736537	0.0270672	1	0.000846285	41	9.0883	1.9936e-05
2	1	0	1	0	9.1372	0.730845	0.730525	0.0259661	1	0.000847081	41	9.1183	1.89689e-05
2	1	0	1	0	9.1672	0.724848	0.724528	0.0249314	1	0.000847845	41	9.1483	1.80635e-05
2	1	0	1	0	9.1972	0.718851	0.718535	0.0238403	1	0.000848576	41	9.1783	1.71301e-05
2	1	0	1	0	9.2271	0.712854	0.712528	0.0227566	1	0.000849272	41	9.2082	1.62147e-05
2	1	0	1	0	9.2571	0.706857	0.706542	0.0216764	1	0.000849938	41	9.2382	1.53153e-05
2	1	0	1	0	9.2871	0.70086	0.700549	0.0205484	1	0.000850572	41	9.2682	1.43952e-05
2	1	0	1	0	9.3171	0.694863	0.69455	0.0194474	1	0.000851172	41	9.2982	1.35072e-05
2	1	0	1	0	9.3471	0.688866	0.688553	0.0183664	1	0.000851739	41	9.3282	1.26463e-05
2	1	0	1	0	9.3771	0.682869	0.68255	0.0172517	1	0.000852273	41	9.3582	1.17752e-05
2	1	0	1	0	9.407	0.676872	0.676571	0.0161355	1	0.000852772	41	9.3881	1.09168e-05
2	1	0	1	0	9.437	0.670875	0.670594	0.0150249	1	0.00085324	41	9.4181	1.00756e-05
2	1	0	1	0	9.467	0.664878	0.664566	0.0139612	1	0.000853674	41	9.4481	9.27816e-06
2	1	0	1	0	9.497	0.658881	0.65858	0.0128685	1	0.000854076	41	9.4781	8.47497e-06
2	1	0	1	0	9.527	0.652884	0.652597	0.0117847	1	0.000854446	41	9.5081	7.69069e-06
2	1	0	1	0	9.557	0.646888	0.646589	0.0106781	1	0.000854782	41	9.5381	6.90433e-06
2	1	0	1	0	9.587	0.640891	0.640607	0.00965757	1	0.000855087	41	9.5681	6.1867e-06
2	1	0	1	0	9.6169	0.634894	0.634589	0.00861163	1	0.000855359	41	9.598	5.46485e-06
2	1	0	1	0	9.6469	0.628897	0.628593	0.00755589	1	0.000855602	41	9.628	4.74958e-06
2	1	0	1	0	9.6769	0.6229	0.622607	0.00654956	1	0.000855813	41	9.658	4.0778e-06
2	1	0	1	0	9.7069	0.616903	0.616598	0.00557058	1	0.000855995	41	9.688	3.43481e-06
2	1	0	1	0	9.7369	0.610906	0.61059	0.00461558	1	0.000856148	41	9.718	2.81823e-06
2	1	0	1	0	9.7968	0.598916	0.598807	0.00317859	1	0.000856386	42	9.7779	1.90336e-06
2	1	0	1	0	9.8268	0.592915	0.59265	0.00197548	1	0.000856455	42	9.8079	1.17077e-06
2	1	0	1	0	9.8568	0.586918	0.586643	0.000989523	1	0.000856498	42	9.8379	5.80497e-07
2	1	0	1	0	9.8868	0.580921	0.580637	0.00018674	1	0.000856515	42	9.8679	1.08428e-07
2	0	0	1	0	9.9168	0.574924	0.574613	-0.00068143	1	0.000856507	42	0.02	-3.91559e-07
2	0	0	1	0	9.9468	0.568927	0.568632	-0.00140595	1	0.000856476	42	0.05	-7.99466e-07
2	0	0	1	0	9.9768	0.56293	0.56265	-0.0022109	1	0.000856421	42	0.08	-1.24396e-06
2	0	0	1	0	10.0067	0.556933	0.556641	-0.00285623	1	0.000856344	42	0.1099	-1.58989e-06
2	0	0	1	0	10.0367	0.550936	0.550642	-0.00361121	1	0.000856246	42	0.1399	-1.98848e-06
2	0	0	1	0	10.0667	0.544939	0.544649	-0.00418109	1	0.000856129	42	0.1699	-2.27723e-06
2	0	0	1	0	10.0967	0.538942	0.538647	-0.0048055	1	0.000855993	42	0.1999	-2.58847e-06
2	0	0	1	0	10.1267	0.532945	0.532655	-0.00530734	1	0.000855841	42	0.2299	-2.82698e-06
2	0	0	1	0	10.1567	0.526948	0.526675	-0.00587776	1	0.000855673	42	0.2599	-3.09567e-06
2	0	0	1	0	10.1867	0.520951	0.520662	-0.00632027	1	0.00085549	42	0.2899	-3.29072e-06
2	0	0	1	0	10.2166	0.514954	0.514668	-0.00684133	1	0.000855293	42	0.3198	-3.52101e-06
2	0	0	1	0	10.2466	0.508957	0.508678	-0.00727845	1	0.00085508	42	0.3498	-3.70239e-06
2	0	0	1	0	10.2766	0.50296	0.502681	-0.00781052	1	0.000854853	42	0.3798	-3.9262e-06
2	0	0	1	0	10.3066	0.496964	0.496661	-0.00830458	1	0.000854612	42	0.4098	-4.12456e-06
2	0	0	1	0	10.3366	0.490967	0.49068	-0.00881877	1	0.000854356	42	0.4398	-4.32719e-06
2	0	0	1	0	10.3666	0.48497	0.484695	-0.00925858	1	0.000854084	42	0.4698	-4.48759e-06
2	0	0	1	0	10.3965	0.478973	0.478657	-0.00985157	1	0.000853798	42	0.4997	-4.71552e-06
2	0	0	1	0	10.4265	0.472976	0.472702	-0.0103062	1	0.000853496	42	0.5297	-4.87177e-06
2	0	0	1	0	10.4565	0.466979	0.466683	-0.0109185	1	0.000853178	42	0.5597	-5.09549e-06
2	0	0	1	0	10.5165	0.454985	0.454659	-0.0120885	1	0.000852499	41	0.6197	-5.49615e-06
2	0	0	1	0	10.5465	0.448988	0.448665	-0.0127004	1	0.000852128	41	0.6497	-5.69823e-06
2	0	0	1	0	10.5765	0.442991	0.442673	-0.0133606	1	0.000851737	41	0.6797	-5.91439e-06
2	0	0	1	0	10.6064	0.436994	0.436686	-0.0141353	1	0.000851326	41	0.7096	-6.17268e-06
2	0	0	1	0	10.6364	0.430997	0.43067	-0.0148943	1	0.000850891	41	0.7396	-6.41453e-06
2	0	0	1	0	10.6664	0.425	0.42467	-0.015685	1	0.000850433	41	0.7696	-6.66098e-06
2	0	0	1	0	10.6964	0.419003	0.418677	-0.0165866	1	0.000849949	41	0.7996	-6.94444e-06
2	0	0	1	0	10.7264	0.413006	0.412695	-0.0175147	1	0.000849438	41	0.8296	-7.22823e-06
2	0	0	1	0	10.7564	0.407009	0.406671	-0.0185536	1	0.000848897	41	0.8596	-7.54522e-06
2	0	0	1	0	10.7863	0.401012	0.400704	-0.0195966	1	0.000848326	41	0.8895	-7.85242e-06
2	0	0	1	0	10.8163	0.395015	0.394669	-0.0208798	1	0.00084772	41	0.9195	-8.2406e-06
2	0	0	1	0	10.8463	0.389018	0.388687	-0.0220845	1	0.000847077	41	0.9495	-8.58395e-06
2	0	0	1	0	10.8763	0.383021	0.382702	-0.0234803	1	0.000846395	41	0.9795	-8.98597e-06
2	0	0	1	0	10.9063	0.377024	0.376717	-0.0248512	1	0.000845671	41	1.0095	-9.36187e-06
2	0	0	1	0	10.9363	0.371027	0.370735	-0.0264769	1	0.0008449	41	1.0395	-9.8159e-06
2	0	0	1	0	10.9663	0.36503	0.36474	-0.0282138	1	0.00084408	41	1.0695	-1.02907e-05
2	0	0	1	0	10.9962	0.359034	0.358719	-0.0300683	1	0.000843209	41	1.0994	-1.07861e-05
2	0	0	1	0	11.0262	0.353036	0.352739	-0.032081	1	0.000842276	41	1.1294	-1.13162e-05
2	0	0	1	0	11.0562	0.34704	0.346735	-0.0343736	1	0.000841279	41	1.1594	-1.19185e-05
2	0	0	1	0	11.0862	0.341043	0.340745	-0.0367838	1	0.000840212	41	1.1894	-1.25339e-05
2	0	0	1	0	11.1162	0.335046	0.334762	-0.039428	1	0.000839069	41	1.2194	-1.3199e-05
2	0	0	1	0	11.1462	0.329049	0.328753	-0.0422692	1	0.000837843	41	1.2494	-1.38961e-05
2	0	0	1	0	11.1762	0.323047	0.322751	-0.0454878	1	0.000836527	41	1.2794	-1.46812e-05
2	0	0	1	0	11.2061	0.317055	0.316739	-0.0488682	1	0.000835116	41	1.3093	-1.54785e-05
2	0	0	1	0	11.2361	0.311058	0.310757	-0.0525812	1	0.000833595	41	1.3393	-1.634e-05
2	0	0	1	0	11.2661	0.305061	0.304761	-0.0565351	1	0.000831958	41	1.3693	-1.72297e-05
2	0	0	1	0	11.2961	0.299064	0.298781	-0.0609118	1	0.000830196	41	1.3993	-1.81993e-05
2	0	0	1	0	11.3261	0.293067	0.292769	-0.065625	1	0.000828298	41	1.4293	-1.9213e-05
2	0	0	1	0	11.3561	0.28707	0.286784	-0.0707413	1	0.000826253	41	1.4593	-2.02875e-05
2	0	0	1	0	11.386	0.281073	0.280771	-0.0761872	1	0.000824055	41	1.4892	-2.13912e-05
2	0	0	1	0	11.416	0.275076	0.27478	-0.0821562	1	0.000821679	41	1.5192	-2.25749e-05
2	0	0	1	0	11.446	0.269079	0.268812	-0.0885294	1	0.000819119	41	1.5492	-2.37977e-05
2	0	0	1	0	11.476	0.263082	0.262795	-0.0953937	1	0.00081636	41	1.5792	-2.5069e-05
2	0	0	1	0	11.506	0.257085	0.256804	-0.102655	1	0.000813389	41	1.6092	-2.63623e-05
2	0	0	1	0	11.551	0.24809	0.247786	-0.114774	1	0.000808525	41	1.6542	-2.84394e-05
2	0	0	1	0	11.5959	0.239094	0.238789	-0.127603	1	0.000803192	40	1.6991	-3.04701e-05
2	0	0	1	0	11.6259	0.233097	0.232784	-0.136812	1	0.000799226	40	1.7291	-3.18476e-05
2	0	0	1	0	11.6559	0.2271	0.226801	-0.146622	1	0.000794974	40	1.7591	-3.32541e-05
2	0	0	1	0	11.6859	0.221103	0.220802	-0.156865	1	0.000790422	40	1.7891	-3.46362e-05
2	0	0	1	0	11.7159	0.215106	0.214802	-0.167571	1	0.000785555	40	1.8191	-3.59945e-05
2	0	0	1	0	11.7459	0.209109	0.208799	-0.178597	1	0.000780362	40	1.8491	-3.72908e-05
2	0	0	1	0	11.7758	0.203113	0.202802	-0.190169	1	0.000774849	40	1.879	-3.85665e-05
2	0	0	1	0	11.8058	0.197116	0.196814	-0.201922	1	0.000768966	40	1.909	-3.97409e-05
2	0	0	1	0	11.8358	0.191119	0.190809	-0.214028	1	0.000762725	40	1.939	-4.08383e-05
2	0	0	1	0	11.8658	0.185122	0.184795	-0.226358	1	0.000756117	40	1.969	-4.183e-05
2	0	0	1	0	11.8958	0.179125	0.178812	-0.238791	1	0.000749139	40	1.999	-4.26987e-05
2	0	0	1	0	11.9258	0.173128	0.172815	-0.251266	1	0.000741786	40	2.029	-4.34225e-05
2	0	0	1	0	11.9558	0.167131	0.166839	-0.26378	1	0.000734059	40	2.059	-4.40088e-05
2	0	0	1	0	11.9857	0.161134	0.160832	-0.276165	1	0.000725983	40	2.0889	-4.44162e-05
2	0	0	1	0	12.0157	0.155137	0.15483	-0.28837	1	0.000717513	40	2.1189	-4.46484e-05
2	0	0	1	0	12.0457	0.14914	0.148816	-0.300242	1	0.000708681	40	2.1489	-4.46809e-05
2	0	0	1	0	12.0757	0.143143	0.14283	-0.311754	1	0.000699499	40	2.1789	-4.45276e-05
2	0	0	1	0	12.1057	0.137146	0.136826	-0.322661	1	0.000689981	40	2.2089	-4.41483e-05
2	0	0	1	0	12.1357	0.131149	0.130824	-0.333038	1	0.000680143	40	2.2389	-4.35694e-05
2	0	0	1	0	12.1656	0.125157	0.124858	-0.342795	1	0.000670038	40	2.2688	-4.28006e-05
2	0	0	1	0	12.1956	0.119155	0.118853	-0.35165	1	0.000659618	40	2.2988	-4.17945e-05
2	0	0	1	0	12.2256	0.113158	0.112849	-0.359755	1	0.000648944	40	2.3288	-4.05979e-05
2	0	0	1	0	12.2556	0.107161	0.106838	-0.366946	1	0.00063804	40	2.3588	-3.92038e-05
2	0	0	1	0	12.2856	0.101164	0.100847	-0.373227	1	0.000626934	40	2.3888	-3.76387e-05
2	0	0	1	0	12.3156	0.0951672	0.094864	-0.378491	1	0.000615655	40	2.4188	-3.59052e-05
2	0	0	1	0	12.3456	0.0891703	0.0888683	-0.382826	1	0.000604231	40	2.4488	-3.40211e-05
2	0	0	1	0	12.3755	0.0831733	0.0828563	-0.386225	1	0.00059273	40	2.4787	-3.20012e-05
2	0	0	1	0	12.4055	0.0771764	0.0768653	-0.388529	1	0.000581106	40	2.5087	-2.98644e-05
2	0	0	1	0	12.4355	0.0711794	0.070863	-0.38993	1	0.000569427	40	2.5387	-2.76316e-05
2	0	0	1	0	12.4655	0.0651824	0.0648715	-0.390358	1	0.00055772	40	2.5687	-2.53231e-05
2	0	0	1	0	12.4955	0.0591855	0.0588642	-0.390029	1	0.000546012	40	2.5987	-2.29587e-05
2	0	0	1	0	12.5255	0.0531885	0.0528682	-0.388812	1	0.000534327	40	2.6287	-2.05558e-05
2	0	0	1	0	12.5555	0.0471916	0.0468772	-0.38693	1	0.00052269	40	2.6587	-1.81382e-05
2	0	0	1	0	12.5854	0.0411946	0.040878	-0.384329	1	0.000511157	40	2.6886	-1.57106e-05
2	0	0	1	0	12.6154	0.0351977	0.0348876	-0.38123	1	0.000499673	40	2.7186	-1.33002e-05
2	0	0	1	0	12.6454	0.0292007	0.0288829	-0.377438	1	0.000488293	40	2.7486	-1.09015e-05
2	0	0	1	0	12.6754	0.0232037	0.0228721	-0.373338	1	0.000477031	40	2.7786	-8.539e-06
2	0	0	1	0	12.7054	0.0172068	0.0168927	-0.36875	1	0.0004659	40	2.8086	-6.22919e-06
2	0	0	1	0	12.7354	0.0112098	0.0109096	-0.36399	1	0.00045491	40	2.8386	-3.971e-06
2	0	0	1	0	12.7653	0.00521286	0.00490625	-0.358919	1	0.000444104	40	2.8685	-1.76095e-06
2	0	0	1	0	12.7953	-0.000784104	-0.00108334	-0.353668	1	0.000433415	40	2.8985	3.83144e-07
2	0	0	1	0	12.8253	-0.00678107	-0.00710464	-0.348211	1	0.000422887	40	2.9285	2.47391e-06
2	0	0	1	0	12.8553	-0.012778	-0.0130877	-0.342764	1	0.000412523	40	2.9585	4.48599e-06
2	0	0	1	0	12.8853	-0.018775	-0.0191071	-0.337248	1	0.000402324	40	2.9885	6.44385e-06
2	0	0	1	0	12.9153	-0.0247719	-0.0250851	-0.331741	1	0.00039229	40	3.0185	8.32177e-06
2	0	0	1	0	12.9453	-0.0307689	-0.0310972	-0.326206	1	0.000382422	40	3.0485	1.01441e-05
2	0	0	1	0	12.9752	-0.0367659	-0.0370752	-0.32089	1	0.000372749	40	3.0784	1.18971e-05
2	0	0	1	0	13.0052	-0.0427628	-0.0430954	-0.31548	1	0.000363204	40	3.1084	1.35958e-05
2	0	0	1	0	13.0352	-0.0487598	-0.0490803	-0.310236	1	0.00035382	40	3.1384	1.52265e-05
2	0	0	1	0	13.0652	-0.0547568	-0.0550919	-0.305062	1	0.000344591	40	3.1684	1.68065e-05
2	0	0	1	0	13.0952	-0.0607537	-0.0610708	-0.300079	1	0.000335515	40	3.1984	1.83261e-05
2	0	0	1	0	13.1252	-0.0667507	-0.0670707	-0.295105	1	0.000326588	40	3.2284	1.97929e-05
2	0	0	1	0	13.1551	-0.0727476	-0.0730859	-0.290446	1	0.000317835	40	3.2583	2.12275e-05
2	0	0	1	0	13.1851	-0.0787446	-0.0790629	-0.285776	1	0.000309193	40	3.2883	2.25943e-05
2	0	0	1	0	13.2151	-0.0847416	-0.0850798	-0.281337	1	0.000300688	40	3.3183	2.39361e-05
2	0	0	1	0	13.2451	-0.0907385	-0.091048	-0.27697	1	0.000292315	40	3.3483	2.52176e-05
2	0	0	1	0	13.2751	-0.0967355	-0.0970481	-0.272761	1	0.00028407	40	3.3783	2.64709e-05
2	0	0	1	0	13.3051	-0.102732	-0.103065	-0.268673	1	0.000275951	40	3.4083	2.76908e-05
2	0	0	1	0	13.3351	-0.108729	-0.109048	-0.26472	1	0.000267951	40	3.4383	2.88673e-05
2	0	0	1	0	13.365	-0.114726	-0.115029	-0.260919	1	0.000260093	40	3.4682	3.00132e-05
2	0	0	1	0	13.395	-0.120723	-0.121054	-0.257252	1	0.000252321	40	3.4982	3.11413e-05
2	0	0	1	0	13.425	-0.12672	-0.127038	-0.253658	1	0.000244658	40	3.5282	3.22243e-05
2	0	0	1	0	13.455	-0.132717	-0.133041	-0.250249	1	0.0002371	40	3.5582	3.32934e-05
2	0	0	1	0	13.485	-0.138714	-0.13904	-0.246929	1	0.000229644	40	3.5882	3.43332e-05
2	0	0	1	0	13.515	-0.144711	-0.145024	-0.243772	1	0.000222284	40	3.6182	3.53527e-05
2	0	0	1	0	13.545	-0.150717	-0.151041	-0.240687	1	0.000215019	40	3.6482	3.63536e-05
2	0	0	1	0	13.5749	-0.156705	-0.157038	-0.237704	1	0.000207868	40	3.6781	3.73286e-05
2	0	0	1	0	13.6049	-0.162702	-0.16301	-0.234798	1	0.000200782	40	3.7081	3.82745e-05
2	0	0	1	0	13.6349	-0.168699	-0.169032	-0.231995	1	0.000193781	40	3.7381	3.92146e-05
2	0	0	1	0	13.6649	-0.174696	-0.175018	-0.229287	1	0.000186862	40	3.7681	4.01293e-05
2	0	0	1	0	13.6949	-0.180693	-0.181032	-0.226748	1	0.000180022	40	3.7981	4.10487e-05
2	0	0	1	0	13.7249	-0.18669	-0.187018	-0.224192	1	0.000173259	40	3.8281	4.19279e-05
2	0	0	1	0	13.7548	-0.192687	-0.193009	-0.221763	1	0.000166591	40	3.858	4.28022e-05
2	0	0	1	0	13.7848	-0.198684	-0.19903	-0.219377	1	0.000159973	40	3.888	4.36625e-05
2	0	0	1	0	13.8148	-0.204681	-0.205018	-0.217189	1	0.000153424	40	3.918	4.45278e-05
2	0	0	1	0	13.8448	-0.210678	-0.211022	-0.215006	1	0.000146942	40	3.948	4.5371e-05
2	0	0	1	0	13.8748	-0.216675	-0.217002	-0.212889	1	0.000140525	40	3.978	4.61973e-05
2	0	0	1	0	13.9048	-0.222672	-0.223003	-0.210786	1	0.000134169	40	4.008	4.70058e-05
2	0	0	1	0	13.9348	-0.228669	-0.229012	-0.208873	1	0.000127875	40	4.038	4.78345e-05
2	0	0	1	0	13.9647	-0.234666	-0.235	-0.206961	1	0.000121658	40	4.0679	4.86359e-05
2	0	0	1	0	13.9947	-0.240663	-0.240994	-0.205125	1	0.000115478	40	4.0979	4.94337e-05
2	0	0	1	0	14.0247	-0.24666	-0.246994	-0.203317	1	0.000109351	40	4.1279	5.02181e-05
2	0	0	1	0	14.0547	-0.252657	-0.252992	-0.201593	1	0.000103278	40	4.1579	5.10015e-05
2	0	0	1	0	14.0847	-0.258653	-0.258988	-0.199908	1	9.72557e-05	40	4.1879	5.17737e-05
2	0	0	1	0	14.1147	-0.26465	-0.264987	-0.19826	1	9.12834e-05	40	4.2179	5.25363e-05
2	0	0	1	0	14.1446	-0.270647	-0.270982	-0.196723	1	8.53785e-05	40	4.2478	5.33083e-05
2	0	0	1	0	14.1746	-0.276644	-0.27699	-0.195175	1	7.95005e-05	40	4.2778	5.40614e-05
2	0	0	1	0	14.2046	-0.282641	-0.282964	-0.193676	1	7.36684e-05	40	4.3078	5.48034e-05
2	0	0	1	0	14.2346	-0.288638	-0.288955	-0.192244	1	6.78801e-05	40	4.3378	5.55498e-05
2	0	0	1	0	14.2646	-0.294635	-0.294958	-0.190834	1	6.21346e-05	40	4.3678	5.62881e-05
2	0	0	1	1	14.2918	-0.299982	-0.300355	-0.188806	1	5.69618e-05	40	4.395	5.67086e-05
2	0	0	1	1	14.3195	-0.294435	-0.294701	-0.179296	1	5.19306e-05	40	4.4227	5.28386e-05
2	0	0	1	1	14.3495	-0.288438	-0.288719	-0.175599	1	4.66106e-05	40	4.4527	5.06989e-05
2	0	0	1	1	14.3795	-0.282441	-0.282719	-0.172569	1	4.13906e-05	40	4.4827	4.87885e-05
2	0	0	1	1	14.4095	-0.276444	-0.276716	-0.169972	1	3.62541e-05	40	4.5127	4.7034e-05
2	0	0	1	1	14.4395	-0.270447	-0.270717	-0.16758	1	3.11923e-05	40	4.5427	4.53669e-05
2	0	0	1	1	14.4694	-0.264451	-0.264718	-0.16545	1	2.62147e-05	40	4.5726	4.37975e-05
2	0	0	1	1	14.4994	-0.258454	-0.25871	-0.163425	1	2.12828e-05	40	4.6026	4.22797e-05
2	0	0	1	1	14.5294	-0.252457	-0.252728	-0.161512	1	1.64101e-05	40	4.6326	4.08185e-05
2	0	0	1	1	14.5594	-0.24646	-0.246739	-0.159659	1	1.1593e-05	40	4.6626	3.93942e-05
2	0	0	1	1	14.5894	-0.240463	-0.24074	-0.157949	1	6.82958e-06	40	4.6926	3.80246e-05
2	0	0	1	1	14.6194	-0.234466	-0.234737	-0.156241	1	2.11729e-06	40	4.7226	3.66756e-05
2	0	0	1	1	14.6493	-0.228469	-0.228748	-0.154637	1	-2.52964e-06	40	4.7525	3.53729e-05
2	0	0	1	1	14.6793	-0.222472	-0.22276	-0.153083	1	-7.14472e-06	40	4.7825	3.41008e-05
2	0	0	1	1	14.7093	-0.216475	-0.216743	-0.151569	1	-1.17133e-05	40	4.8125	3.28517e-05
2	0	0	1	1	14.7393	-0.210478	-0.210761	-0.150062	1	-1.6237e-05	40	4.8425	3.16272e-05
2	0	0	1	1	14.7693	-0.204481	-0.204752	-0.148612	1	-2.07162e-05	40	4.8725	3.04286e-05
2	0	0	1	1	14.7993	-0.198484	-0.19876	-0.147198	1	-2.5152e-05	40	4.9025	2.92571e-05
2	0	0	1	1	14.8293	-0.192487	-0.192757	-0.145772	1	-2.95452e-05	40	4.9325	2.80986e-05
2	0	0	1	1	14.8592	-0.18649	-0.186752	-0.144407	1	-3.38822e-05	40	4.9624	2.69682e-05
2	0	0	1	1	14.8892	-0.180493	-0.180764	-0.143006	1	-3.81927e-05	40	4.9924	2.58503e-05
2	0	0	1	1	14.9192	-0.174496	-0.174766	-0.141684	1	-4.24629e-05	40	5.0224	2.47615e-05
2	0	0	1	1	14.9492	-0.168499	-0.168777	-0.140391	1	-4.66933e-05	40	5.0524	2.36949e-05
2	0	0	1	1	14.9792	-0.162502	-0.162771	-0.139003	1	-5.08837e-05	40	5.0824	2.26255e-05
2	0	0	1	1	15.0092	-0.156505	-0.15677	-0.137773	1	-5.50347e-05	40	5.1124	2.15985e-05
2	0	0	1	1	15.0392	-0.15049	-0.150749	-0.136336	1	-5.91464e-05	40	5.1424	2.05526e-05
2	0	0	1	1	15.0691	-0.144511	-0.144763	-0.135112	1	-6.32057e-05	40	5.1723	1.95592e-05
2	0	0	1	1	15.0991	-0.138514	-0.138765	-0.133861	1	-6.724e-05	40	5.2023	1.85752e-05
2	0	0	1	1	15.1291	-0.132517	-0.132778	-0.132534	1	-7.12356e-05	40	5.2323	1.75976e-05
2	0	0	1	1	15.1591	-0.12652	-0.126782	-0.131294	1	-7.51931e-05	40	5.2623	1.66457e-05
2	0	0	1	1	15.1891	-0.120523	-0.120768	-0.130001	1	-7.91119e-05	40	5.2923	1.57e-05
2	0	0	1	1	15.2191	-0.114526	-0.114778	-0.128695	1	-8.29916e-05	40	5.3223	1.47713e-05
2	0	0	1	1	15.249	-0.10853	-0.108789	-0.127435	1	-8.68199e-05	40	5.3522	1.38635e-05
2	0	0	1	1	15.279	-0.102533	-0.102785	-0.126137	1	-9.06222e-05	40	5.3822	1.29651e-05
2	0	0	1	1	15.309	-0.0965356	-0.0967835	-0.124814	1	-9.43852e-05	40	5.4122	1.208e-05
2	0	0	1	1	15.339	-0.0905386	-0.0907827	-0.123488	1	-9.81087e-05	40	5.4422	1.12106e-05
2	0	0	1	1	15.369	-0.0845417	-0.0847951	-0.122132	1	-0.000101792	40	5.4722	1.03562e-05
2	0	0	1	1	15.399	-0.0785447	-0.0788276	-0.120766	1	-0.000105436	40	5.5022	9.51965e-06
2	0	0	1	1	15.429	-0.0725478	-0.0728092	-0.119424	1	-0.000109038	40	5.5322	8.69516e-06
2	0	0	1	1	15.4589	-0.0665508	-0.0668293	-0.11799	1	-0.000112586	40	5.5621	7.8852e-06
2	0	0	1	1	15.4889	-0.0605538	-0.0608096	-0.116572	1	-0.000116104	40	5.5921	7.08869e-06
2	0	0	1	1	15.5189	-0.0545569	-0.0548228	-0.115167	1	-0.000119579	40	5.6221	6.31376e-06
2	0	0	1	1	15.5489	-0.0485599	-0.0488241	-0.113652	1	-0.000123011	40	5.6521	5.54896e-06
2	0	0	1	1	15.5789	-0.0425629	-0.0428219	-0.112199	1	-0.000126399	40	5.6821	4.80459e-06
2	0	0	1	1	15.6089	-0.036566	-0.0368279	-0.110641	1	-0.000129741	40	5.7121	4.07465e-06
2	0	0	1	1	15.6388	-0.030569	-0.0308378	-0.109121	1	-0.000133025	40	5.742	3.36504e-06
2	0	0	1	1	15.6688	-0.0245721	-0.0248363	-0.107515	1	-0.000136274	40	5.772	2.67026e-06
2	0	0	1	1	15.6988	-0.0185751	-0.0188404	-0.105891	1	-0.000139474	40	5.802	1.99503e-06
2	0	0	1	1	15.7288	-0.0125781	-0.0128286	-0.104214	1	-0.000142625	40	5.832	1.33692e-06
2	0	0	1	1	15.7588	-0.00658117	-0.00683638	-0.102503	1	-0.000145726	40	5.862	7.00747e-07
2	0	0	1	1	15.7888	-0.000584206	-0.000839163	-0.100781	1	-0.000148775	40	5.892	8.45719e-08
2	0	0	1	1	15.8188	0.00541275	0.00515094	-0.0990256	1	-0.000151771	40	5.922	-5.10075e-07
2	0	0	1	1	15.8487	0.0114097	0.0111446	-0.0971438	1	-0.000154703	40	5.9519	-1.08263e-06
2	0	0	1	1	15.8787	0.0174067	0.017154	-0.0953393	1	-0.00015759	40	5.9819	-1.63545e-06
2	0	0	1	1	15.9087	0.0234036	0.0231312	-0.0934527	1	-0.000160421	40	6.0119	-2.16167e-06
2	0	0	1	1	15.9387	0.0294006	0.0291463	-0.0914748	1	-0.000163194	40	6.0419	-2.66615e-06
2	0	0	1	1	15.9687	0.0353975	0.0351316	-0.0894915	1	-0.000165908	40	6.0719	-3.14398e-06
2	0	0	1	1	15.9987	0.0413945	0.0411462	-0.0874787	1	-0.000168563	40	6.1019	-3.59942e-06
2	0	0	1	1	16.0286	0.0473915	0.0471252	-0.0854043	1	-0.000171148	40	6.1318	-4.0247e-06
2	0	0	1	1	16.0586	0.0533884	0.0531113	-0.0833039	1	-0.000173678	40	6.1618	-4.42438e-06
2	0	0	1	1	16.0886	0.0593854	0.0591432	-0.0811828	1	-0.000176145	40	6.1918	-4.80141e-06
2	0	0	1	1	16.1186	0.0653823	0.0651093	-0.0789964	1	-0.000178548	40	6.2218	-5.1434e-06
2	0	0	1	1	16.1486	0.0713793	0.0711069	-0.0767978	1	-0.000180884	40	6.2518	-5.46085e-06
2	0	0	1	1	16.1786	0.0773763	0.0770922	-0.0745224	1	-0.000183154	40	6.2818	-5.74509e-06
2	0	0	1	1	16.2086	0.0833732	0.0831081	-0.0722646	1	-0.000185356	40	6.3118	-6.00578e-06
2	0	0	1	1	16.2385	0.0893702	0.0891035	-0.0699274	1	-0.000187481	40	6.3417	-6.23078e-06
2	0	0	1	1	16.2685	0.0953671	0.0951267	-0.0675811	1	-0.000189543	40	6.3717	-6.42877e-06
2	0	0	1	1	16.2985	0.101364	0.101099	-0.0652642	1	-0.000191536	40	6.4017	-6.59812e-06
2	0	0	1	1	16.3285	0.107361	0.107085	-0.0629102	1	-0.000193457	40	6.4317	-6.73674e-06
2	0	0	1	1	16.3585	0.113358	0.113083	-0.0604917	1	-0.000195308	40	6.4617	-6.84061e-06
2	0	0	1	1	16.3885	0.119355	0.1191	-0.0581041	1	-0.000197086	40	6.4917	-6.9202e-06
2	0	0	1	1	16.4184	0.125343	0.125076	-0.0556575	1	-0.000198787	40	6.5216	-6.96141e-06
2	0	0	1	1	16.4484	0.131349	0.131086	-0.0532998	1	-0.000200421	40	6.5516	-6.98683e-06
2	0	0	1	1	16.4784	0.137346	0.137082	-0.0509338	1	-0.000201984	40	6.5816	-6.98209e-06
2	0	0	1	1	16.5084	0.143343	0.143076	-0.0485448	1	-0.000203476	40	6.6116	-6.94559e-06
2	0	0	1	1	16.5384	0.14934	0.149088	-0.0462003	1	-0.000204896	40	6.6416	-6.88789e-06
2	0	0	1	1	16.5684	0.155337	0.155078	-0.0438434	1	-0.000206246	40	6.6716	-6.79915e-06
2	0	0	1	1	16.6283	0.167331	0.167066	-0.0392276	1	-0.000208779	41	6.7315	-6.55359e-06
2	0	0	1	1	16.6583	0.173328	0.173059	-0.0369567	1	-0.000209922	41	6.7615	-6.39572e-06
2	0	0	1	1	16.6883	0.179325	0.179055	-0.0347478	1	-0.000210997	41	6.7915	-6.22177e-06
2	0	0	1	1	16.7183	0.185322	0.185057	-0.0326055	1	-0.000212007	41	6.8215	-6.03387e-06
2	0	0	1	1	16.7483	0.191318	0.191063	-0.030444	1	-0.000212952	41	6.8515	-5.81672e-06
2	0	0	1	1	16.7783	0.197315	0.197067	-0.0283746	1	-0.000213833	41	6.8815	-5.5917e-06
2	0	0	1	1	16.8083	0.203312	0.203054	-0.026298	1	-0.000214654	41	6.9115	-5.33991e-06
2	0	0	1	1	16.8382	0.209309	0.209066	-0.0244266	1	-0.000215412	41	6.9414	-5.10677e-06
2	0	0	1	1	16.8682	0.215306	0.215057	-0.0224904	1	-0.000216114	41	6.9714	-4.83673e-06
2	0	0	1	1	16.8982	0.221303	0.221029	-0.0206663	1	-0.000216761	41	7.0014	-4.56787e-06
2	0	0	1	1	16.9282	0.2273	0.227041	-0.018874	1	-0.000217353	41	7.0314	-4.28517e-06
2	0	0	1	1	16.9582	0.233297	0.233026	-0.017176	1	-0.000217894	41	7.0614	-4.00246e-06
2	0	0	1	1	16.9882	0.239294	0.239017	-0.0155328	1	-0.000218384	41	7.0914	-3.71261e-06
2	0	0	1	1	17.0181	0.245291	0.245021	-0.0139133	1	-0.000218824	41	7.1213	-3.40905e-06
2	0	0	1	1	17.0481	0.251288	0.251032	-0.0124808	1	-0.000219219	41	7.1513	-3.13309e-06
2	0	0	1	1	17.0781	0.257285	0.257032	-0.0110278	1	-0.000219571	41	7.1813	-2.83448e-06
2	0	0	1	1	17.1081	0.263282	0.263022	-0.00961232	1	-0.00021988	41	7.2113	-2.52825e-06
2	0	0	1	1	17.1381	0.269279	0.269034	-0.00832474	1	-0.000220149	41	7.2413	-2.23964e-06
2	0	0	1	1	17.1681	0.275276	0.275021	-0.00706328	1	-0.00022038	41	7.2713	-1.94255e-06
2	0	0	1	1	17.1981	0.281273	0.281008	-0.00588981	1	-0.000220574	41	7.3013	-1.65508e-06
2	0	0	1	1	17.228	0.28727	0.287005	-0.00479104	1	-0.000220733	41	7.3312	-1.37505e-06
2	0	0	1	1	17.258	0.293267	0.293021	-0.00371708	1	-0.000220859	41	7.3612	-1.08918e-06
2	0	0	1	1	17.288	0.299264	0.299006	-0.00270624	1	-0.000220955	41	7.3912	-8.09181e-07
2	0	0	1	1	17.348	0.311258	0.31098	-0.00124974	1	-0.000221076	42	7.4512	-3.88645e-07
2	1	0	1	1	17.378	0.317255	0.316989	0.000106829	1	-0.000221088	42	0.000000000000000E+000	3.38637e-08
2	1	0	1	1	17.4079	0.323252	0.322957	0.00096478	1	-0.000221075	42	0.0299	3.11583e-07
2	1	0	1	1	17.4379	0.329249	0.328972	0.00151148	1	-0.000221038	42	0.0599	4.97233e-07
2	1	0	1	1	17.4679	0.335245	0.334968	0.00236715	1	-0.000220979	42	0.0899	7.92918e-07
2	1	0	1	1	17.4979	0.341242	0.340948	0.00292907	1	-0.000220899	42	0.1199	9.9866e-07
2	1	0	1	1	17.5279	0.347239	0.346946	0.00374465	1	-0.000220798	42	0.1499	1.29919e-06
2	1	0	1	1	17.5579	0.353236	0.352947	0.00425627	1	-0.000220677	42	0.1799	1.50224e-06
2	1	0	1	1	17.5879	0.359233	0.358941	0.00501328	1	-0.000220538	42	0.2099	1.79947e-06
2	1	0	1	1	17.6178	0.36523	0.364945	0.00549147	1	-0.00022038	42	0.2398	2.00408e-06
2	1	0	1	1	17.6478	0.371227	0.370961	0.00628474	1	-0.000220203	42	0.2698	2.33139e-06
2	1	0	1	1	17.6778	0.377224	0.376933	0.00668955	1	-0.000220009	42	0.2998	2.52151e-06
2	1	0	1	1	17.7078	0.383221	0.382933	0.00742655	1	-0.000219797	42	0.3298	2.84387e-06
2	1	0	1	1	17.7378	0.389218	0.388919	0.00784122	1	-0.000219568	42	0.3598	3.0496e-06
2	1	0	1	1	17.7678	0.395215	0.394895	0.00858825	1	-0.000219322	42	0.3898	3.39145e-06
2	1	0	1	1	17.7978	0.401212	0.400912	0.00897185	1	-0.000219058	42	0.4198	3.59693e-06
2	1	0	1	1	17.8277	0.407209	0.406906	0.00975593	1	-0.000218779	42	0.4497	3.96974e-06
2	1	0	1	1	17.8577	0.413206	0.412893	0.0101286	1	-0.000218481	42	0.4797	4.18205e-06
2	1	0	1	1	17.8877	0.419203	0.418903	0.0109021	1	-0.000218166	42	0.5097	4.56691e-06
2	1	0	1	1	17.9477	0.431197	0.430936	0.0120733	1	-0.000217492	41	0.5697	5.20282e-06
2	1	0	1	1	17.9777	0.437194	0.436918	0.0127876	1	-0.000217119	41	0.5997	5.58715e-06
2	1	0	0	1	17.9984	0.441342	0.441073	0.0136006	1	-0.00021685	41	0.6204	5.99885e-06