File: Python/Data/GoldElectrode/240322/Carbon/240322-CVEIS-PostActivation-5mM_Fe2Fe3-1M_H2SO4-0000RPM-Ag_AgCl_BLF8-GC_RDE_02_PEIS_C15.mpt
EC-Lab ASCII FILE
Nb header lines : 66

Potentio Electrochemical Impedance Spectroscopy

Run on channel : 15 (SN 19485)
User :
Electrode connection : standard
Potential control : Ewe
Ewe ctrl range : min = -1.00 V, max = 1.00 V
Ewe,I filtering : <None>
Safety Limits :
	Do not start on E overload
Channel : Floating
Acquisition started on : 03/22/2024 13:54:23.830
Loaded Setting File :  C:\Data\mathias\GoldElectrode\240322-CVEIS-PostActivation-5mM_Fe2Fe3-1M_H2SO4-0000RPM-Ag_AgCl_BLF8-Au_RDE.mps
Saved on :
	File : 240322-CVEIS-PostActivation-5mM_Fe2Fe3-1M_H2SO4-0000RPM-Ag_AgCl_BLF8-GC_RDE_02_PEIS_C15.mpr
	Directory : C:\Data\mathias\GoldElectrode\
	Host : 192.168.0.1
Device : VMP-300 (SN 0826)
Address : USB
EC-Lab for windows v11.52 (software)
Internet server v11.52 (firmware)
Command interpretor v11.52 (firmware)
Electrode material :
Initial state :
Electrolyte :
Comments :
Cable : special
Electrode surface area : 0.001 cm²
Characteristic mass : 0.001 g
Equivalent Weight : 0.000 g/eq.
Density : 0.000 g/cm3
Volume (V) : 0.001 cm³
Record EIS quality indicators
Cycle Definition : Charge/Discharge alternance
Mode                Single sine
E (V)               0.0000
vs.                 Eoc
tE (h:m:s)          0:00:0.0000
record              0
dI                  0.000
unit dI             mA
dt (s)              0.000
fi                  400.000
unit fi             kHz
ff                  100.000
unit ff             mHz
Nd                  10
Points              per decade
spacing             Logarithmic
Va (mV)             5.0
pw                  0.10
Na                  3
corr                0
E range min (V)     -1.000
E range max (V)     1.000
I Range             Auto
Bandwidth           8
nc cycles           2
goto Ns'            0
nr cycles           0
inc. cycle          1

freq/Hz	Re(Z)/Ohm	-Im(Z)/Ohm	|Z|/Ohm	Phase(Z)/deg	time/s	<Ewe>/V	<I>/mA	Cs/µF	Cp/µF	cycle number	I Range	|Ewe|/V	|I|/A	Ns	(Q-Qo)/mA.h	THD Ewe/%	NSD Ewe/%	NSR Ewe/%	|Ewe h2|/V	|Ewe h3|/V	|Ewe h4|/V	|Ewe h5|/V	|Ewe h6|/V	|Ewe h7|/V	THD I/%	NSD I/%	NSR I/%	|I h2|/A	|I h3|/A	|I h4|/A	|I h5|/A	|I h6|/A	|I h7|/A	Re(Y)/Ohm-1	Im(Y)/Ohm-1	|Y|/Ohm-1	Phase(Y)/deg	Re(C)/nF	Im(C)/nF	|C|/nF	Phase(C)/deg	Re(M)	Im(M)	|M|	Phase(M)/deg	Re(Permittivity)	Im(Permittivity)	|Permittivity|	Phase(Permittivity)/deg	Re(Resistivity)/Ohm.cm	Im(Resistivity)/Ohm.cm	|Resistivity|/Ohm.cm	Phase(Resistivity)/deg	Re(Conductivity)/mS/cm	Im(Conductivity)/mS/cm	|Conductivity|/mS/cm	Phase(Conductivity)/deg	Tan(Delta)	Loss Angle(Delta)/deg	dq/mA.h
399996	3.14435	1.15749	3.35063	-20.2095	142.695	0.439876	-0.00196094	0.343754	0.041023	1	38	0.00499225	0.00148994	0	7.95138e-06	-1	-1	-1	0	0	0	0	0	0	-1	-1	-1	0	0	0	0	0	0	0.280077	0.103101	0.298451	20.2095	41.023	111.44	118.751	-69.7905	0.0000000E+000	0.0000000E+000	0.0000000E+000	69.7905	0.0000000E+000	0.0000000E+000	0.0000000E+000	-69.7905	0.0000000E+000	0.0000000E+000	0.0000000E+000	-20.2095	0.0000000E+000	0.0000000E+000	0.0000000E+000	20.2095	2.71653	69.7905	7.95138e-06
200434	3.05156	0.115046	3.05373	-2.15907	146.573	0.43987	-0.0668548	6.90201	0.00979625	1	37	0.00522642	0.00171149	0	-6.46784e-05	-1	-1	-1	0	0	0	0	0	0	-1	-1	-1	0	0	0	0	0	0	0.327236	0.0123371	0.327469	2.15907	9.79625	259.842	260.027	-87.8409	0.0000000E+000	0.0000000E+000	0.0000000E+000	87.8409	0.0000000E+000	0.0000000E+000	0.0000000E+000	-87.8409	0.0000000E+000	0.0000000E+000	0.0000000E+000	-2.15907	0.0000000E+000	0.0000000E+000	0.0000000E+000	2.15907	26.5246	87.8409	-2.11021e-05
100431	2.94736	0.161444	2.95178	-3.13529	150.016	0.439888	-0.0615506	9.81596	0.0293636	1	37	0.00519569	0.00176019	0	-0.00012386	1.64885	0.446727	25.1002	4.89135e-05	3.57504e-05	3.31454e-05	2.86136e-05	2.42849e-05	2.30233e-05	0.469815	0.247692	10.0942	3.03465e-06	3.30707e-06	4.27423e-06	2.03388e-06	2.08545e-06	3.25815e-06	0.338272	0.0185291	0.338779	3.13529	29.3635	536.069	536.872	-86.8647	0.0000000E+000	0.0000000E+000	0.0000000E+000	86.8647	0.0000000E+000	0.0000000E+000	0.0000000E+000	-86.8647	0.0000000E+000	0.0000000E+000	0.0000000E+000	-3.13529	0.0000000E+000	0.0000000E+000	0.0000000E+000	3.13529	18.2562	86.8647	-1.91739e-05
50326.6	2.95693	0.293603	2.97147	-5.67049	153.46	0.439889	-0.0551669	10.7711	0.105157	1	37	0.00517538	0.00174169	0	-0.000175999	0.868582	0.652593	24.7604	1.48815e-05	1.92204e-05	2.28886e-05	1.42229e-05	1.49666e-05	1.61858e-05	0.471418	0.285197	10.1578	3.61148e-06	1.82823e-06	5.79661e-06	1.5758e-06	1.6923e-06	2.73324e-06	0.334887	0.0332519	0.336533	5.67049	105.157	1059.06	1064.27	-84.3295	0.0000000E+000	0.0000000E+000	0.0000000E+000	84.3295	0.0000000E+000	0.0000000E+000	0.0000000E+000	-84.3295	0.0000000E+000	0.0000000E+000	0.0000000E+000	-5.67049	0.0000000E+000	0.0000000E+000	0.0000000E+000	5.67049	10.0712	84.3295	-1.46711e-05
25219	3.02207	0.517875	3.06612	-9.72401	156.904	0.43988	-0.0560602	12.1862	0.347648	1	37	0.00512615	0.00167187	0	-0.000233456	1.23567	0.574937	25.2445	1.66616e-05	2.616e-05	2.96405e-05	2.45327e-05	2.97639e-05	2.33794e-05	0.514012	0.31735	10.7104	2.23851e-06	3.08705e-06	4.23702e-06	3.02593e-06	3.49831e-06	2.99496e-06	0.321459	0.0550867	0.326145	9.72401	347.648	2028.7	2058.28	-80.276	0.0000000E+000	0.0000000E+000	0.0000000E+000	80.276	0.0000000E+000	0.0000000E+000	0.0000000E+000	-80.276	0.0000000E+000	0.0000000E+000	0.0000000E+000	-9.72401	0.0000000E+000	0.0000000E+000	0.0000000E+000	9.72401	5.83551	80.276	-1.81973e-05
12637.3	3.12256	0.918486	3.25484	-16.391	160.348	0.439867	-0.0600803	13.7117	1.09189	1	37	0.00507394	0.00155889	0	-0.000291629	1.49026	1.119	25.397	4.27622e-05	1.45802e-05	3.00851e-05	2.70365e-05	2.09451e-05	2.71355e-05	0.645772	0.259029	11.4812	4.44544e-06	4.54547e-06	4.7163e-06	3.61608e-06	2.16553e-06	2.97761e-06	0.294748	0.0866987	0.307235	16.391	1091.89	3712.07	3869.32	-73.609	0.0000000E+000	0.0000000E+000	0.0000000E+000	73.609	0.0000000E+000	0.0000000E+000	0.0000000E+000	-73.609	0.0000000E+000	0.0000000E+000	0.0000000E+000	-16.391	0.0000000E+000	0.0000000E+000	0.0000000E+000	16.391	3.39968	73.609	-1.81287e-05
6332.63	3.23468	1.64902	3.63076	-27.0122	163.911	0.439774	-0.0580516	15.2409	3.14389	1	37	0.00498366	0.00137262	0	-0.000347944	1.7372	0.571091	25.8262	2.61483e-05	1.78524e-05	1.15425e-05	2.63241e-05	6.52746e-05	3.00024e-05	0.644065	0.404371	13.0861	2.78026e-06	1.98834e-06	3.42052e-06	3.26731e-06	2.72659e-06	5.71949e-06	0.245378	0.125092	0.275424	27.0122	3143.89	6166.97	6922.11	-62.9878	0.0000000E+000	0.0000000E+000	0.0000000E+000	62.9878	0.0000000E+000	0.0000000E+000	0.0000000E+000	-62.9878	0.0000000E+000	0.0000000E+000	0.0000000E+000	-27.0122	0.0000000E+000	0.0000000E+000	0.0000000E+000	27.0122	1.96158	62.9878	-2.16209e-05
3171.96	3.45642	3.07396	4.62558	-41.6482	167.72	0.439753	-0.00374463	16.3228	7.20871	1	38	0.00531476	0.00114899	0	-0.000372304	1.44086	0.61838	23.4507	2.29364e-05	3.60623e-05	2.96346e-05	2.22416e-05	3.46304e-05	2.02065e-05	0.280547	0.0856217	2.57766	2.48458e-06	1.34799e-06	6.90323e-07	3.94928e-07	4.55756e-07	1.0274e-06	0.161545	0.14367	0.216189	41.6482	7208.71	8105.61	10847.4	-48.3518	0.0000000E+000	0.0000000E+000	0.0000000E+000	48.3518	0.0000000E+000	0.0000000E+000	0.0000000E+000	-48.3518	0.0000000E+000	0.0000000E+000	0.0000000E+000	-41.6482	0.0000000E+000	0.0000000E+000	0.0000000E+000	41.6482	1.12442	48.3518	-1.841e-06
1589.49	3.75419	5.76466	6.87934	-56.9262	171.037	0.439773	-0.00390849	17.3695	12.1967	1	38	0.00504513	0.000733374	0	-0.000376735	0.800728	1.05798	24.9363	1.7383e-05	1.37445e-05	1.74415e-05	2.09046e-05	1.35019e-05	8.01211e-06	0.490936	0.151139	4.11021	3.14566e-06	1.24417e-06	3.95728e-07	8.18302e-07	3.51871e-07	5.04431e-07	0.0793273	0.121809	0.145363	56.9262	12196.7	7943	14555.1	-33.0738	0.0000000E+000	0.0000000E+000	0.0000000E+000	33.0738	0.0000000E+000	0.0000000E+000	0.0000000E+000	-33.0738	0.0000000E+000	0.0000000E+000	0.0000000E+000	-56.9262	0.0000000E+000	0.0000000E+000	0.0000000E+000	56.9262	0.651241	33.0738	-1.36185e-06
796.787	4.36745	10.9702	11.8076	-68.2915	174.358	0.439742	-0.00462721	18.2081	15.7169	1	38	0.00476455	0.000403515	0	-0.000381913	1.36871	0.70703	25.9415	2.36903e-05	1.28044e-05	3.86693e-05	2.1409e-05	1.82852e-05	2.82259e-05	0.660318	0.191333	7.35056	1.70777e-06	8.47752e-07	4.2199e-07	1.44543e-06	5.26934e-07	7.00716e-07	0.0313259	0.0786847	0.0846911	68.2915	15716.9	6257.22	16916.7	-21.7085	0.0000000E+000	0.0000000E+000	0.0000000E+000	21.7085	0.0000000E+000	0.0000000E+000	0.0000000E+000	-21.7085	0.0000000E+000	0.0000000E+000	0.0000000E+000	-68.2915	0.0000000E+000	0.0000000E+000	0.0000000E+000	68.2915	0.398119	21.7085	-1.57806e-06
399.106	5.72809	20.9597	21.7283	-74.7148	177.681	0.439788	-0.00291423	19.026	17.7037	1	38	0.00466958	0.000214908	0	-0.000384089	1.52556	0.74606	26.4192	3.04183e-05	1.65288e-05	2.74089e-05	2.84771e-05	3.31771e-05	2.98396e-05	1.05337	0.455265	13.9251	1.03719e-06	8.43321e-07	1.00517e-06	9.88974e-07	6.08206e-07	4.13917e-07	0.0121327	0.0443948	0.0460228	74.7148	17703.7	4838.26	18352.9	-15.2852	0.0000000E+000	0.0000000E+000	0.0000000E+000	15.2852	0.0000000E+000	0.0000000E+000	0.0000000E+000	-15.2852	0.0000000E+000	0.0000000E+000	0.0000000E+000	-74.7148	0.0000000E+000	0.0000000E+000	0.0000000E+000	74.7148	0.273291	15.2852	-6.20759e-07
199.936	8.48272	40.0857	40.9734	-78.0516	181.247	0.439799	-0.000122479	19.8582	19.007	1	39	0.00470618	0.000114859	0	-0.000385235	2.62311	1.43231	26.5776	4.51712e-05	4.39761e-05	4.35081e-05	4.1748e-05	4.4117e-05	5.89372e-05	1.06093	0.292031	10.72	7.86573e-07	5.09476e-07	2.97777e-07	6.28383e-07	1.4026e-07	2.61468e-07	0.0050528	0.0238773	0.0244061	78.0516	19007	4022.17	19427.9	-11.9484	0.0000000E+000	0.0000000E+000	0.0000000E+000	11.9484	0.0000000E+000	0.0000000E+000	0.0000000E+000	-11.9484	0.0000000E+000	0.0000000E+000	0.0000000E+000	-78.0516	0.0000000E+000	0.0000000E+000	0.0000000E+000	78.0516	0.211615	11.9484	6.48722e-08
100.224	14.3658	76.1958	77.5383	-79.3229	184.562	0.439769	-7.62586e-05	20.8408	20.1254	1	39	0.00462443	5.96406e-05	0	-0.000385269	1.12036	0.937064	26.8902	2.00327e-05	1.72698e-05	1.6959e-05	2.97094e-05	1.81099e-05	1.09007e-05	1.13262	0.433891	19.6885	3.76155e-07	1.9675e-07	2.0113e-07	2.54188e-07	2.99462e-07	2.49414e-07	0.00238944	0.0126736	0.0128969	79.3229	20125.4	3794.4	20480	-10.6771	0.0000000E+000	0.0000000E+000	0.0000000E+000	10.6771	0.0000000E+000	0.0000000E+000	0.0000000E+000	-10.6771	0.0000000E+000	0.0000000E+000	0.0000000E+000	-79.3229	0.0000000E+000	0.0000000E+000	0.0000000E+000	79.3229	0.188537	10.6771	1.85486e-08
50.2089	33.1143	142.58	146.375	-76.9248	187.79	0.439762	-3.60014e-05	22.2321	21.0943	1	39	0.00460292	3.14461e-05	0	-0.000385404	1.21635	0.654544	27.9221	1.44812e-05	2.62333e-05	2.06258e-05	2.7464e-05	1.50435e-05	2.037e-05	2.17663	0.87649	39.5708	1.16961e-07	3.28417e-07	1.97862e-07	4.28738e-07	1.94379e-07	2.19073e-07	0.00154555	0.00665465	0.00683177	76.9248	21094.3	4899.16	21655.7	-13.0752	0.0000000E+000	0.0000000E+000	0.0000000E+000	13.0752	0.0000000E+000	0.0000000E+000	0.0000000E+000	-13.0752	0.0000000E+000	0.0000000E+000	0.0000000E+000	-76.9248	0.0000000E+000	0.0000000E+000	0.0000000E+000	76.9248	0.232251	13.0752	-7.79885e-08
25.1691	81.4998	261.721	274.117	-72.7035	191.221	0.439777	-5.51619e-06	24.1609	22.0252	1	40	0.00462459	1.68709e-05	0	-0.000385385	1.64669	1.73612	39.6486	2.83701e-05	2.95091e-05	1.77553e-05	3.16696e-05	4.77135e-05	1.92674e-05	0.997368	0.639449	13.1105	8.96803e-08	5.94272e-08	1.76972e-08	8.11462e-08	8.49894e-08	2.51848e-08	0.00108464	0.0034831	0.00364808	72.7035	22025.2	6858.61	23068.3	-17.2965	0.0000000E+000	0.0000000E+000	0.0000000E+000	17.2965	0.0000000E+000	0.0000000E+000	0.0000000E+000	-17.2965	0.0000000E+000	0.0000000E+000	0.0000000E+000	-72.7035	0.0000000E+000	0.0000000E+000	0.0000000E+000	72.7035	0.311399	17.2965	-8.09783e-09
12.6144	220.732	437.565	490.088	-63.2311	194.498	0.439746	-2.77568e-05	28.8345	22.9853	1	40	0.00459869	9.3834e-06	0	-0.000385365	1.35292	0.635264	27.9237	1.84022e-05	2.25901e-05	2.36358e-05	2.76208e-05	2.18817e-05	2.73455e-05	1.10691	0.376224	16.699	5.14812e-08	3.55186e-08	4.19847e-08	4.3087e-08	2.07459e-08	4.28987e-08	0.000919004	0.00182178	0.00204045	63.2311	22985.3	11595	25744.3	-26.7689	0.0000000E+000	0.0000000E+000	0.0000000E+000	26.7689	0.0000000E+000	0.0000000E+000	0.0000000E+000	-26.7689	0.0000000E+000	0.0000000E+000	0.0000000E+000	-63.2311	0.0000000E+000	0.0000000E+000	0.0000000E+000	63.2311	0.504454	26.7689	5.93524e-08
6.31569	510.313	603.65	790.451	-49.7895	198.147	0.439772	-9.01289e-05	41.7459	24.3464	1	40	0.00460511	5.82592e-06	0	-0.000385409	1.49124	0.634844	28.6652	3.3789e-05	1.72619e-05	2.25808e-05	2.40688e-05	2.61029e-05	2.98911e-05	1.42792	0.817574	27.9872	3.61801e-08	2.5596e-08	3.69385e-08	3.33972e-08	3.24153e-08	2.58877e-08	0.000816745	0.00096613	0.0012651	49.7895	24346.4	20581.9	31880.5	-40.2105	0.0000000E+000	0.0000000E+000	0.0000000E+000	40.2105	0.0000000E+000	0.0000000E+000	0.0000000E+000	-40.2105	0.0000000E+000	0.0000000E+000	0.0000000E+000	-49.7895	0.0000000E+000	0.0000000E+000	0.0000000E+000	49.7895	0.845378	40.2104	2.86528e-08
3.16616	896.592	597.89	1077.66	-33.6972	204.439	0.439788	-9.87282e-05	84.0748	25.8789	1	41	0.00459905	4.26763e-06	0	-0.000385561	1.14976	0.637443	21.5999	7.79159e-06	1.96624e-05	3.01644e-05	1.49887e-05	1.62901e-05	2.24275e-05	0.468474	0.127943	5.55683	1.23086e-08	8.1645e-09	6.79182e-09	7.10004e-09	4.69388e-09	4.11564e-09	0.000772026	0.000514823	0.000927937	33.6972	25878.9	38807.8	46645.1	-56.3028	0.0000000E+000	0.0000000E+000	0.0000000E+000	56.3028	0.0000000E+000	0.0000000E+000	0.0000000E+000	-56.3028	0.0000000E+000	0.0000000E+000	0.0000000E+000	-33.6972	0.0000000E+000	0.0000000E+000	0.0000000E+000	33.6972	1.49959	56.3028	-1.19651e-07
1.5871	1176.98	455.883	1262.18	-21.173	214.871	0.439773	-0.000106779	219.97	28.6962	1	41	0.00459981	3.64433e-06	0	-0.00038584	0.700351	0.548727	14.3788	1.15292e-05	9.20651e-06	8.75369e-06	7.62384e-06	1.76571e-05	1.59998e-05	0.353194	0.153714	4.84654	9.43845e-09	3.83952e-09	1.54501e-09	5.8972e-09	3.48417e-09	2.82559e-09	0.000738795	0.00028616	0.000792278	21.173	28696.2	74086.6	79449.9	-68.827	0.0000000E+000	0.0000000E+000	0.0000000E+000	68.827	0.0000000E+000	0.0000000E+000	0.0000000E+000	-68.827	0.0000000E+000	0.0000000E+000	0.0000000E+000	-21.173	0.0000000E+000	0.0000000E+000	0.0000000E+000	21.173	2.58176	68.827	-1.74283e-07
0.79456	1324.37	318.554	1362.15	-13.5245	234.544	0.439781	-0.000115648	628.798	34.3898	1	41	0.00459131	3.37064e-06	0	-0.000386367	0.54519	0.32613	9.54387	1.01281e-05	1.14362e-05	6.94142e-06	9.53206e-06	8.18582e-06	9.77407e-06	0.223262	0.0759904	4.5567	5.30025e-09	2.97303e-09	7.94188e-10	2.7582e-09	9.64668e-10	2.57504e-09	0.000713778	0.000171686	0.000734136	13.5245	34389.8	142974	147052	-76.4755	0.0000000E+000	0.0000000E+000	0.0000000E+000	76.4755	0.0000000E+000	0.0000000E+000	0.0000000E+000	-76.4755	0.0000000E+000	0.0000000E+000	0.0000000E+000	-13.5245	0.0000000E+000	0.0000000E+000	0.0000000E+000	13.5245	4.15746	76.4755	-2.09913e-07
0.398211	1417.03	240.317	1437.27	-9.62528	272.671	0.439777	-0.000202608	1663.12	46.496	1	41	0.00460382	3.20318e-06	0	-0.000387822	0.403996	0.245279	6.82633	4.17074e-06	7.2881e-06	7.22531e-06	1.17751e-05	4.7889e-06	4.59693e-06	0.18591	0.156774	4.67075	3.29261e-09	3.06748e-09	1.51074e-09	2.74984e-09	9.72211e-10	1.53388e-09	0.00068597	0.000116335	0.000695765	9.62528	46496	274165	278080	-80.3747	0.0000000E+000	0.0000000E+000	0.0000000E+000	80.3747	0.0000000E+000	0.0000000E+000	0.0000000E+000	-80.3747	0.0000000E+000	0.0000000E+000	0.0000000E+000	-9.62528	0.0000000E+000	0.0000000E+000	0.0000000E+000	9.62528	5.89653	80.3747	-4.90502e-07
0.199573	1484.63	211.144	1499.57	-8.09432	347.824	0.439784	-0.0002877	3776.92	74.8794	1	41	0.0045953	3.06441e-06	0	-0.00039415	0.232081	0.200939	5.14475	4.85052e-06	5.23177e-06	3.9744e-06	3.19114e-06	2.98958e-06	4.51019e-06	0.229941	0.146375	4.30138	4.85723e-09	3.91205e-09	1.06283e-09	2.54898e-09	1.10462e-09	1.25791e-09	0.000660214	9.38956e-05	0.000666857	8.09432	74879.4	526504	531802	-81.9057	0.0000000E+000	0.0000000E+000	0.0000000E+000	81.9057	0.0000000E+000	0.0000000E+000	0.0000000E+000	-81.9057	0.0000000E+000	0.0000000E+000	0.0000000E+000	-8.09432	0.0000000E+000	0.0000000E+000	0.0000000E+000	8.09432	7.03136	81.9057	-2.55259e-06
0.0999518	1561.38	223.275	1577.26	-8.13805	496.88	0.43977	-0.000319024	7131.63	142.91	1	41	0.00459608	2.91396e-06	0	-0.000405162	0.25271	0.169895	4.84334	4.5353e-06	5.15335e-06	3.17198e-06	6.50969e-06	3.37396e-06	4.19353e-06	0.208325	0.161153	2.65745	3.46019e-09	3.48534e-09	8.90498e-10	2.7307e-09	8.71546e-10	1.20163e-09	0.000627625	8.97497e-05	0.00063401	8.13805	142910	999379	1.00955e+06	-81.8619	0.0000000E+000	0.0000000E+000	0.0000000E+000	81.8619	0.0000000E+000	0.0000000E+000	0.0000000E+000	-81.8619	0.0000000E+000	0.0000000E+000	0.0000000E+000	-8.13805	0.0000000E+000	0.0000000E+000	0.0000000E+000	8.13805	6.99307	81.8619	-4.93923e-06
252347	3.12931	0.134523	3.1322	-2.46151	502.501	0.439848	-0.0257611	4.68842	0.008648	2	37	0.00511983	0.00163458	0	-0.000416519	-1	-1	-1	0	0	0	0	0	0	-1	-1	-1	0	0	0	0	0	0	0.318969	0.0137118	0.319264	2.46151	8.64801	201.173	201.359	-87.5385	0.0000000E+000	0.0000000E+000	0.0000000E+000	87.5385	0.0000000E+000	0.0000000E+000	0.0000000E+000	-87.5385	0.0000000E+000	0.0000000E+000	0.0000000E+000	-2.46151	0.0000000E+000	0.0000000E+000	0.0000000E+000	2.46151	23.2624	87.5385	-4.88141e-06
126447	2.97248	0.144747	2.97601	-2.78785	505.943	0.439827	-0.0170138	8.69562	0.0205708	2	37	0.00520013	0.00174735	0	-0.000432007	-1	-1	-1	0	0	0	0	0	0	-1	-1	-1	0	0	0	0	0	0	0.335623	0.0163434	0.336021	2.78785	20.5708	422.437	422.937	-87.2122	0.0000000E+000	0.0000000E+000	0.0000000E+000	87.2122	0.0000000E+000	0.0000000E+000	0.0000000E+000	-87.2122	0.0000000E+000	0.0000000E+000	0.0000000E+000	-2.78785	0.0000000E+000	0.0000000E+000	0.0000000E+000	2.78785	20.5357	87.2122	-1.82102e-06
63362.9	2.95814	0.265744	2.97005	-5.13338	509.386	0.439859	-0.0214805	9.45196	0.0756695	2	37	0.00518005	0.00174409	0	-0.000456862	1.40286	0.789752	25.3861	3.03872e-05	2.02186e-05	2.27558e-05	2.93825e-05	2.26828e-05	2.7307e-05	0.638235	0.275749	10.2305	4.41193e-06	5.31022e-06	3.07601e-06	5.26357e-06	3.70506e-06	3.63172e-06	0.335344	0.0301256	0.336695	5.13338	75.6695	842.318	845.71	-84.8666	0.0000000E+000	0.0000000E+000	0.0000000E+000	84.8666	0.0000000E+000	0.0000000E+000	0.0000000E+000	-84.8666	0.0000000E+000	0.0000000E+000	0.0000000E+000	-5.13338	0.0000000E+000	0.0000000E+000	0.0000000E+000	5.13338	11.1315	84.8666	-7.64871e-06
31751	2.99921	0.455466	3.0336	-8.63506	512.83	0.439866	-0.021983	11.0054	0.248085	2	37	0.00514285	0.0016953	0	-0.000478016	1.62562	0.718378	25.0504	2.95022e-05	4.29198e-05	2.28048e-05	3.19514e-05	2.3003e-05	3.86285e-05	0.57287	0.438034	10.4857	4.07408e-06	4.08442e-06	3.77532e-06	3.10662e-06	3.439e-06	3.62432e-06	0.325905	0.0494925	0.329641	8.63506	248.085	1633.63	1652.36	-81.3649	0.0000000E+000	0.0000000E+000	0.0000000E+000	81.3649	0.0000000E+000	0.0000000E+000	0.0000000E+000	-81.3649	0.0000000E+000	0.0000000E+000	0.0000000E+000	-8.63506	0.0000000E+000	0.0000000E+000	0.0000000E+000	8.63506	6.58493	81.3649	-6.91145e-06
15912.6	3.10023	0.795406	3.20064	-14.3897	516.275	0.43984	-0.0234533	12.5744	0.776595	2	37	0.00514951	0.0016089	0	-0.00050698	1.50978	0.679544	25.2567	3.28964e-05	2.88595e-05	3.20836e-05	2.1164e-05	2.35014e-05	3.60036e-05	0.655858	0.18792	11.2055	4.18996e-06	3.38867e-06	3.07959e-06	4.5013e-06	2.26723e-06	6.14162e-06	0.302636	0.0776455	0.312438	14.3897	776.595	3026.9	3124.94	-75.6103	0.0000000E+000	0.0000000E+000	0.0000000E+000	75.6103	0.0000000E+000	0.0000000E+000	0.0000000E+000	-75.6103	0.0000000E+000	0.0000000E+000	0.0000000E+000	-14.3897	0.0000000E+000	0.0000000E+000	0.0000000E+000	14.3897	3.89766	75.6103	-1.02143e-05
7967.67	3.2015	1.41105	3.49867	-23.7852	519.748	0.439717	-0.0209035	14.1562	2.30264	2	37	0.00511144	0.00146097	0	-0.000530504	1.14263	0.552954	25.4	2.41035e-05	2.18543e-05	1.10852e-05	2.68674e-05	1.76591e-05	2.82125e-05	0.600711	0.401535	12.21	3.01879e-06	2.67336e-06	4.03384e-06	3.57671e-06	3.04398e-06	3.67466e-06	0.261546	0.115275	0.285823	23.7852	2302.64	5224.42	5709.35	-66.2148	0.0000000E+000	0.0000000E+000	0.0000000E+000	66.2148	0.0000000E+000	0.0000000E+000	0.0000000E+000	-66.2148	0.0000000E+000	0.0000000E+000	0.0000000E+000	-23.7852	0.0000000E+000	0.0000000E+000	0.0000000E+000	23.7852	2.26889	66.2148	-1.06284e-05
3993.72	3.38045	2.58957	4.25833	-37.4536	523.504	0.439735	-0.0021564	15.3892	5.69105	2	38	0.00543562	0.00127647	0	-0.000548105	1.19593	0.581974	22.8477	2.8455e-05	2.57844e-05	3.2246e-05	3.07288e-05	1.39025e-05	1.4969e-05	0.187274	0.0901834	2.32189	2.02257e-06	8.40421e-07	3.18159e-07	4.82948e-07	2.95292e-07	5.76878e-07	0.186422	0.142807	0.234834	37.4536	5691.05	7429.16	9358.45	-52.5464	0.0000000E+000	0.0000000E+000	0.0000000E+000	52.5464	0.0000000E+000	0.0000000E+000	0.0000000E+000	-52.5464	0.0000000E+000	0.0000000E+000	0.0000000E+000	-37.4536	0.0000000E+000	0.0000000E+000	0.0000000E+000	37.4536	1.30541	52.5464	-3.17126e-06
2001.92	3.64623	4.82843	6.05051	-52.9414	527.041	0.439735	-0.00237425	16.4652	10.4856	2	38	0.00502153	0.000829934	0	-0.000553559	1.35026	1.48324	25.0216	3.11227e-05	2.26038e-05	1.92633e-05	1.81005e-05	3.3991e-05	2.0689e-05	0.37682	0.157365	3.63293	2.59645e-06	1.0278e-06	6.43626e-07	6.86881e-07	5.60755e-07	5.84788e-07	0.0996001	0.131893	0.165275	52.9414	10485.6	7918.32	13139.6	-37.0586	0.0000000E+000	0.0000000E+000	0.0000000E+000	37.0586	0.0000000E+000	0.0000000E+000	0.0000000E+000	-37.0586	0.0000000E+000	0.0000000E+000	0.0000000E+000	-52.9414	0.0000000E+000	0.0000000E+000	0.0000000E+000	52.9414	0.755159	37.0586	-1.51629e-06
1002.75	4.11436	9.19368	10.0723	-65.8905	530.362	0.43973	-0.00295332	17.2638	14.3833	2	38	0.00467558	0.000464201	0	-0.000555313	1.19359	0.935317	26.8723	1.61647e-05	2.32259e-05	2.244e-05	2.45512e-05	2.3564e-05	2.16723e-05	0.67765	0.17723	6.55282	2.13747e-06	1.21012e-06	7.31417e-07	1.32364e-06	4.81899e-07	7.03151e-07	0.0405549	0.0906213	0.099282	65.8905	14383.3	6436.8	15757.9	-24.1095	0.0000000E+000	0.0000000E+000	0.0000000E+000	24.1095	0.0000000E+000	0.0000000E+000	0.0000000E+000	-24.1095	0.0000000E+000	0.0000000E+000	0.0000000E+000	-65.8905	0.0000000E+000	0.0000000E+000	0.0000000E+000	65.8905	0.44752	24.1095	-3.97957e-07
502.588	5.13763	17.4762	18.2157	-73.6178	533.684	0.43981	0.000934387	18.1201	16.6787	2	38	0.00452202	0.000248248	0	-0.000556482	1.74034	0.858798	28.1359	3.13008e-05	1.77325e-05	2.02491e-05	2.21213e-05	2.3524e-05	4.91316e-05	0.903812	0.232776	11.9998	1.36004e-06	6.67219e-07	9.94931e-07	6.45438e-07	5.41713e-07	7.83882e-07	0.0154835	0.0526689	0.0548977	73.6178	16678.7	4903.18	17384.5	-16.3822	0.0000000E+000	0.0000000E+000	0.0000000E+000	16.3822	0.0000000E+000	0.0000000E+000	0.0000000E+000	-16.3822	0.0000000E+000	0.0000000E+000	0.0000000E+000	-73.6178	0.0000000E+000	0.0000000E+000	0.0000000E+000	73.6178	0.293979	16.3822	4.37694e-07
251.853	7.17542	33.3955	34.1576	-77.8737	537.471	0.439757	-0.000487595	18.9228	18.0877	2	39	0.00506536	0.000148294	0	-0.000557182	1.14331	0.556327	25.5514	1.57992e-05	1.63463e-05	2.6238e-05	3.06977e-05	1.51272e-05	2.07159e-05	1.04498	0.261098	8.37379	1.13739e-06	5.71844e-07	9.70607e-08	7.51106e-07	2.92632e-07	1.98124e-07	0.00614995	0.0286228	0.029276	77.8737	18087.7	3886.36	18500.5	-12.1263	0.0000000E+000	0.0000000E+000	0.0000000E+000	12.1263	0.0000000E+000	0.0000000E+000	0.0000000E+000	-12.1263	0.0000000E+000	0.0000000E+000	0.0000000E+000	-77.8737	0.0000000E+000	0.0000000E+000	0.0000000E+000	77.8737	0.214862	12.1263	-2.56923e-07
126.171	12.3666	63.3444	64.5403	-78.9532	540.787	0.439752	-0.000387325	19.9137	19.1826	2	39	0.00494103	7.65573e-05	0	-0.000557605	1.50292	0.725901	25.5592	3.31137e-05	2.04538e-05	3.42178e-05	3.38242e-05	1.74182e-05	2.46563e-05	1.10229	0.378952	16.0406	3.85835e-07	2.27025e-07	2.92985e-07	4.4465e-07	1.24456e-07	3.73873e-07	0.00296886	0.0152071	0.0154942	78.9532	19182.6	3744.99	19544.7	-11.0468	0.0000000E+000	0.0000000E+000	0.0000000E+000	11.0468	0.0000000E+000	0.0000000E+000	0.0000000E+000	-11.0468	0.0000000E+000	0.0000000E+000	0.0000000E+000	-78.9532	0.0000000E+000	0.0000000E+000	0.0000000E+000	78.9532	0.195229	11.0468	-1.56517e-07
63.2394	25.6043	119.463	122.176	-77.9029	544.057	0.439758	-0.000355828	21.0668	20.1415	2	39	0.0049047	4.01444e-05	0	-0.000558085	1.15321	0.69454	25.8824	2.12653e-05	3.03923e-05	2.45664e-05	1.81392e-05	1.98512e-05	5.81512e-06	1.97465	0.740959	31.0333	4.46084e-07	3.69132e-07	2.03079e-07	3.30683e-07	2.68487e-07	1.77049e-07	0.0017153	0.00800314	0.0081849	77.9029	20141.5	4316.9	20599	-12.0971	0.0000000E+000	0.0000000E+000	0.0000000E+000	12.0971	0.0000000E+000	0.0000000E+000	0.0000000E+000	-12.0971	0.0000000E+000	0.0000000E+000	0.0000000E+000	-77.9029	0.0000000E+000	0.0000000E+000	0.0000000E+000	77.9029	0.214328	12.0971	-1.10682e-07
31.6723	63.1248	221.495	230.314	-74.0928	547.484	0.439782	-0.000350057	22.687	20.9828	2	40	0.00492471	2.13825e-05	0	-0.000558467	1.93736	0.804435	37.9304	3.49119e-05	5.26934e-05	1.91617e-05	4.46983e-05	3.38824e-05	1.97813e-05	0.895107	0.319788	10.5046	1.14736e-07	5.81758e-08	2.16809e-08	1.00694e-07	4.39595e-08	4.29763e-08	0.00119003	0.00417563	0.00434189	74.0928	20982.8	5979.97	21818.3	-15.9072	0.0000000E+000	0.0000000E+000	0.0000000E+000	15.9072	0.0000000E+000	0.0000000E+000	0.0000000E+000	-15.9072	0.0000000E+000	0.0000000E+000	0.0000000E+000	-74.0928	0.0000000E+000	0.0000000E+000	0.0000000E+000	74.0928	0.284994	15.9073	-1.0354e-07
15.879	165.959	389.566	423.443	-66.9255	550.659	0.439743	-0.000305017	25.7285	21.7764	2	40	0.00494253	1.16723e-05	0	-0.000558798	1.36156	1.3225	36.6781	2.33097e-05	2.77213e-05	2.16518e-05	2.45285e-05	3.25714e-05	2.27202e-05	0.981492	0.680372	18.898	5.01256e-08	5.32272e-08	3.50247e-08	4.57672e-08	3.76635e-08	3.12286e-08	0.000925573	0.00217266	0.00236159	66.9255	21776.4	9276.97	23670.1	-23.0745	0.0000000E+000	0.0000000E+000	0.0000000E+000	23.0745	0.0000000E+000	0.0000000E+000	0.0000000E+000	-23.0745	0.0000000E+000	0.0000000E+000	0.0000000E+000	-66.9255	0.0000000E+000	0.0000000E+000	0.0000000E+000	66.9255	0.42601	23.0745	-1.15565e-07
7.95573	414.852	572.508	707.013	-54.0721	554.094	0.439765	-0.000323505	34.9429	22.9122	2	40	0.00491061	6.94557e-06	0	-0.000559137	1.43365	0.741993	25.0503	2.77462e-05	3.68961e-05	2.27602e-05	1.86029e-05	2.14244e-05	3.32382e-05	1.22333	0.553061	22.2419	4.1341e-08	3.65321e-08	2.3832e-08	2.36821e-08	3.12752e-08	2.82267e-08	0.000829924	0.00114532	0.0014144	54.0721	22912.2	16602.7	28295.2	-35.9279	0.0000000E+000	0.0000000E+000	0.0000000E+000	35.9279	0.0000000E+000	0.0000000E+000	0.0000000E+000	-35.9279	0.0000000E+000	0.0000000E+000	0.0000000E+000	-54.0721	0.0000000E+000	0.0000000E+000	0.0000000E+000	54.0721	0.724623	35.9279	-1.68688e-07
3.98597	799.948	629.604	1018	-38.2047	559.464	0.439764	-0.000321864	63.4189	24.2583	2	41	0.00491355	4.82668e-06	0	-0.000559608	1.41199	0.733838	23.1744	1.92333e-05	1.82424e-05	1.21446e-05	3.09811e-05	2.65368e-05	4.54069e-05	0.534498	0.13546	5.42726	1.65815e-08	9.67394e-09	5.34311e-09	1.09686e-08	5.59713e-09	6.88886e-09	0.000771913	0.000607539	0.000982321	38.2047	24258.3	30821.6	39222.9	-51.7953	0.0000000E+000	0.0000000E+000	0.0000000E+000	51.7953	0.0000000E+000	0.0000000E+000	0.0000000E+000	-51.7953	0.0000000E+000	0.0000000E+000	0.0000000E+000	-38.2047	0.0000000E+000	0.0000000E+000	0.0000000E+000	38.2047	1.27056	51.7953	-1.56053e-07
1.99783	1127.67	516.903	1240.5	-24.6258	567.994	0.439761	-0.000327608	154.118	26.7596	2	41	0.00491079	3.95873e-06	0	-0.000560427	0.729422	0.332906	14.8856	1.19128e-05	1.35605e-05	1.31512e-05	8.55006e-06	1.18402e-05	1.74342e-05	0.356972	0.126934	4.91652	9.78033e-09	5.68271e-09	2.84315e-09	5.82986e-09	3.04544e-09	3.18351e-09	0.000732811	0.000335906	0.000806129	24.6258	26759.6	58378.6	64219.5	-65.3742	0.0000000E+000	0.0000000E+000	0.0000000E+000	65.3742	0.0000000E+000	0.0000000E+000	0.0000000E+000	-65.3742	0.0000000E+000	0.0000000E+000	0.0000000E+000	-24.6258	0.0000000E+000	0.0000000E+000	0.0000000E+000	24.6258	2.18159	65.3742	-3.3153e-07
1.00122	1311.92	359.746	1360.35	-15.3343	583.86	0.43976	-0.000322596	441.872	30.9018	2	41	0.00489827	3.60073e-06	0	-0.00056166	0.595504	0.228082	10.4802	1.73762e-05	8.53852e-06	9.27881e-06	1.27114e-05	6.66443e-06	9.58461e-06	0.292975	0.0533001	4.51323	6.96447e-09	3.59202e-09	1.62774e-09	5.85916e-09	2.01571e-09	1.63528e-09	0.000708932	0.000194398	0.000735103	15.3343	30901.8	112693	116853	-74.6657	0.0000000E+000	0.0000000E+000	0.0000000E+000	74.6657	0.0000000E+000	0.0000000E+000	0.0000000E+000	-74.6657	0.0000000E+000	0.0000000E+000	0.0000000E+000	-15.3343	0.0000000E+000	0.0000000E+000	0.0000000E+000	15.3343	3.64681	74.6657	-4.15091e-07
0.501541	1414.23	262.832	1438.44	-10.5282	614.356	0.439746	-0.000321434	1207.36	40.3094	2	41	0.004907	3.41133e-06	0	-0.000564268	0.368324	0.162515	7.4369	6.24941e-06	9.13315e-06	5.92028e-06	9.05941e-06	5.82512e-06	5.34083e-06	0.180083	0.134549	4.84414	3.21689e-09	3.51406e-09	1.39594e-09	2.71792e-09	9.67796e-10	1.17935e-09	0.000683493	0.000127026	0.000695196	10.5282	40309.4	216894	220608	-79.4718	0.0000000E+000	0.0000000E+000	0.0000000E+000	79.4718	0.0000000E+000	0.0000000E+000	0.0000000E+000	-79.4718	0.0000000E+000	0.0000000E+000	0.0000000E+000	-10.5282	0.0000000E+000	0.0000000E+000	0.0000000E+000	10.5282	5.38073	79.4718	-9.81313e-07
0.251222	1485.33	217.898	1501.23	-8.34576	674.248	0.439763	-0.000323956	2907.43	61.2523	2	41	0.00490515	3.26743e-06	0	-0.000569847	0.248543	0.121473	5.32958	6.07253e-06	4.52848e-06	4.3688e-06	6.95247e-06	3.68066e-06	1.62423e-06	0.196697	0.0897688	4.23177	3.78779e-09	4.14694e-09	9.90536e-10	2.64303e-09	1.02875e-09	4.81438e-10	0.000659067	9.66851e-05	0.000666121	8.34576	61252.3	417535	422004	-81.6542	0.0000000E+000	0.0000000E+000	0.0000000E+000	81.6542	0.0000000E+000	0.0000000E+000	0.0000000E+000	-81.6542	0.0000000E+000	0.0000000E+000	0.0000000E+000	-8.34576	0.0000000E+000	0.0000000E+000	0.0000000E+000	8.34576	6.81664	81.6542	-1.78037e-06
0.125939	1555.78	216.209	1570.73	-7.91181	792.81	0.439745	-0.000323268	5845.03	110.747	2	41	0.00490502	3.12276e-06	0	-0.000580087	0.296491	0.129064	3.85912	7.80729e-06	5.54692e-06	4.63496e-06	4.36584e-06	5.588e-06	3.48884e-06	0.213237	0.196335	3.49901	3.97076e-09	4.0998e-09	8.09091e-10	2.83997e-09	1.0587e-09	7.09937e-10	0.000630586	8.76335e-05	0.000636646	7.91181	110747	796903	804561	-82.0882	0.0000000E+000	0.0000000E+000	0.0000000E+000	82.0882	0.0000000E+000	0.0000000E+000	0.0000000E+000	-82.0882	0.0000000E+000	0.0000000E+000	0.0000000E+000	-7.91181	0.0000000E+000	0.0000000E+000	0.0000000E+000	7.91181	7.19572	82.0882	-4.94328e-06
317705	3.26147	0.151752	3.265	-2.66399	858.685	0.439852	-0.0363509	3.30111	0.00713125	3	37	0.00465169	0.00142472	0	-0.000605564	-1	-1	-1	0	0	0	0	0	0	-1	-1	-1	0	0	0	0	0	0	0.305948	0.0142354	0.306279	2.66399	7.13125	153.265	153.431	-87.336	0.0000000E+000	0.0000000E+000	0.0000000E+000	87.336	0.0000000E+000	0.0000000E+000	0.0000000E+000	-87.336	0.0000000E+000	0.0000000E+000	0.0000000E+000	-2.66399	0.0000000E+000	0.0000000E+000	0.0000000E+000	2.66399	21.492	87.336	-1.23797e-05
159201	3.00938	0.127551	3.01208	-2.42701	862.126	0.439877	-0.0375234	7.83773	0.0140549	3	37	0.00520505	0.00172806	0	-0.000649603	-1	-1	-1	0	0	0	0	0	0	-1	-1	-1	0	0	0	0	0	0	0.331698	0.0140589	0.331996	2.42701	14.0548	331.603	331.901	-87.573	0.0000000E+000	0.0000000E+000	0.0000000E+000	87.573	0.0000000E+000	0.0000000E+000	0.0000000E+000	-87.573	0.0000000E+000	0.0000000E+000	0.0000000E+000	-2.42701	0.0000000E+000	0.0000000E+000	0.0000000E+000	2.42701	23.5935	87.573	-1.43556e-05
79767.3	2.9374	0.214928	2.94525	-4.18485	865.57	0.439882	-0.0363695	9.2833	0.0494361	3	37	0.00513851	0.00174468	0	-0.000681368	1.25736	1.10867	24.8893	3.28306e-05	2.5489e-05	1.60448e-05	2.14313e-05	1.35153e-05	3.48164e-05	0.448764	0.285467	10.0766	1.72809e-06	2.71392e-06	2.4378e-06	4.15116e-06	3.99742e-06	2.56822e-06	0.338625	0.024777	0.33953	4.18485	49.4362	675.638	677.444	-85.8151	0.0000000E+000	0.0000000E+000	0.0000000E+000	85.8151	0.0000000E+000	0.0000000E+000	0.0000000E+000	-85.8151	0.0000000E+000	0.0000000E+000	0.0000000E+000	-4.18485	0.0000000E+000	0.0000000E+000	0.0000000E+000	4.18485	13.6669	85.8151	-9.87812e-06
39971.8	2.98633	0.374787	3.00976	-7.15327	869.014	0.439864	-0.0385098	10.6238	0.164736	3	37	0.00517173	0.00171832	0	-0.000710655	1.57226	0.692987	24.7462	4.88622e-05	2.55688e-05	3.16053e-05	3.18525e-05	2.66463e-05	1.88718e-05	0.667341	0.412791	10.4019	2.41277e-06	6.16118e-06	2.47525e-06	2.74953e-06	5.32123e-06	5.42122e-06	0.329666	0.0413734	0.332253	7.15327	164.736	1312.63	1322.92	-82.8467	0.0000000E+000	0.0000000E+000	0.0000000E+000	82.8467	0.0000000E+000	0.0000000E+000	0.0000000E+000	-82.8467	0.0000000E+000	0.0000000E+000	0.0000000E+000	-7.15327	0.0000000E+000	0.0000000E+000	0.0000000E+000	7.15327	7.96807	82.8467	-9.26917e-06
20032.3	3.05654	0.657602	3.12648	-12.1419	872.458	0.439852	-0.0358298	12.0817	0.534493	3	37	0.00515689	0.00164942	0	-0.000744876	1.53412	0.602008	24.7121	1.52957e-05	3.33048e-05	3.97503e-05	1.47248e-05	2.64172e-05	4.43895e-05	0.53325	0.302214	10.9148	2.56194e-06	3.84844e-06	2.66474e-06	3.09742e-06	3.98574e-06	3.67729e-06	0.312694	0.0672749	0.319849	12.1419	534.494	2484.33	2541.17	-77.8581	0.0000000E+000	0.0000000E+000	0.0000000E+000	77.8581	0.0000000E+000	0.0000000E+000	0.0000000E+000	-77.8581	0.0000000E+000	0.0000000E+000	0.0000000E+000	-12.1419	0.0000000E+000	0.0000000E+000	0.0000000E+000	12.1419	4.648	77.8581	-1.38185e-05
10039.3	3.15797	1.15518	3.36262	-20.0924	875.902	0.439858	-0.0346759	13.7235	1.61961	3	37	0.00508463	0.00151211	0	-0.00078049	1.34971	0.656823	25.6579	2.24987e-05	3.20166e-05	1.52404e-05	3.3302e-05	3.10326e-05	2.29172e-05	0.632549	0.243522	11.9436	3.28286e-06	3.47695e-06	3.61115e-06	2.74203e-06	4.91972e-06	3.65079e-06	0.279288	0.102163	0.297387	20.0924	1619.61	4427.59	4714.52	-69.9076	0.0000000E+000	0.0000000E+000	0.0000000E+000	69.9076	0.0000000E+000	0.0000000E+000	0.0000000E+000	-69.9076	0.0000000E+000	0.0000000E+000	0.0000000E+000	-20.0924	0.0000000E+000	0.0000000E+000	0.0000000E+000	20.0924	2.73375	69.9076	-1.29069e-05
5028.39	3.30892	2.12951	3.93494	-32.764	879.474	0.439743	-0.0325356	14.8631	4.35306	3	37	0.00507249	0.00128909	0	-0.000813157	1.19421	0.927116	25.3349	1.898e-05	2.40008e-05	2.35099e-05	1.08758e-05	2.40301e-05	2.57934e-05	0.777732	0.378167	13.8378	1.8434e-06	2.56869e-06	4.15024e-06	4.89506e-06	5.75041e-06	2.54215e-06	0.213702	0.137532	0.254133	32.764	4353.06	6763.95	8043.64	-57.236	0.0000000E+000	0.0000000E+000	0.0000000E+000	57.236	0.0000000E+000	0.0000000E+000	0.0000000E+000	-57.236	0.0000000E+000	0.0000000E+000	0.0000000E+000	-32.764	0.0000000E+000	0.0000000E+000	0.0000000E+000	32.764	1.55384	57.236	-1.05322e-05
2519.19	3.5108	3.97192	5.30112	-48.5263	883.269	0.439787	-0.00320467	15.9059	8.92944	3	38	0.00495276	0.000934285	0	-0.000820039	1.39059	0.544299	25.0667	1.75955e-05	2.01727e-05	2.64977e-05	3.54246e-05	2.87594e-05	2.88418e-05	0.329657	0.114159	3.24131	2.30299e-06	8.82306e-07	6.10872e-07	1.30427e-06	8.20193e-07	4.96614e-07	0.124931	0.14134	0.188639	48.5263	8929.44	7892.79	11917.7	-41.4737	0.0000000E+000	0.0000000E+000	0.0000000E+000	41.4737	0.0000000E+000	0.0000000E+000	0.0000000E+000	-41.4737	0.0000000E+000	0.0000000E+000	0.0000000E+000	-48.5263	0.0000000E+000	0.0000000E+000	0.0000000E+000	48.5263	0.883907	41.4737	-1.56674e-06
1262.98	3.94108	7.51842	8.48875	-62.3369	886.586	0.439741	-0.00378188	16.7609	13.1481	3	38	0.00460657	0.000542668	0	-0.000823476	1.18781	1.30413	26.4571	2.87006e-05	2.04947e-05	2.10092e-05	2.8442e-05	1.59114e-05	7.71553e-06	0.484236	0.284628	5.37985	1.88443e-06	1.15086e-06	5.37174e-07	5.16245e-07	5.87398e-07	8.53915e-07	0.0546926	0.104337	0.117803	62.3369	13148.1	6892.12	14845	-27.6631	0.0000000E+000	0.0000000E+000	0.0000000E+000	27.6631	0.0000000E+000	0.0000000E+000	0.0000000E+000	-27.6631	0.0000000E+000	0.0000000E+000	0.0000000E+000	-62.3369	0.0000000E+000	0.0000000E+000	0.0000000E+000	62.3369	0.52419	27.6631	-1.54925e-06
632.773	4.73299	14.2491	15.0146	-71.6255	890.129	0.439764	-0.000990851	17.6517	15.8977	3	38	0.00486151	0.000323787	0	-0.000826276	1.85955	0.815891	25.0365	2.0229e-05	6.87264e-05	2.78347e-05	2.29382e-05	2.61423e-05	2.12616e-05	0.887466	0.257276	9.30336	2.03396e-06	1.3558e-06	3.83517e-07	1.07257e-06	5.26343e-07	4.97769e-07	0.0209947	0.0632064	0.066602	71.6255	15897.7	5280.59	16751.7	-18.3745	0.0000000E+000	0.0000000E+000	0.0000000E+000	18.3745	0.0000000E+000	0.0000000E+000	0.0000000E+000	-18.3745	0.0000000E+000	0.0000000E+000	0.0000000E+000	-71.6255	0.0000000E+000	0.0000000E+000	0.0000000E+000	71.6255	0.332161	18.3745	-4.89695e-07
316.927	6.42	27.2278	27.9745	-76.7327	893.7	0.439741	-0.000144097	18.4437	17.4723	3	39	0.00498415	0.000178168	0	-0.000827044	1.2598	0.551545	25.1945	2.14607e-05	3.04263e-05	2.09069e-05	2.79801e-05	2.20174e-05	1.7427e-05	1.00015	0.187254	7.01206	1.37231e-06	5.41231e-07	2.8855e-07	8.40041e-07	2.0938e-07	2.07509e-07	0.00820373	0.0347928	0.0357469	76.7327	17472.3	4119.76	17951.4	-13.2673	0.0000000E+000	0.0000000E+000	0.0000000E+000	13.2673	0.0000000E+000	0.0000000E+000	0.0000000E+000	-13.2673	0.0000000E+000	0.0000000E+000	0.0000000E+000	-76.7327	0.0000000E+000	0.0000000E+000	0.0000000E+000	76.7327	0.235788	13.2673	-3.47738e-07
158.831	9.91839	52.0197	52.9568	-79.2052	897.02	0.439762	-0.000545561	19.2627	18.587	3	39	0.00482472	9.11067e-05	0	-0.000827549	1.51067	0.665676	26.6862	2.78635e-05	3.56075e-05	2.43566e-05	2.84853e-05	1.5129e-05	3.11812e-05	1.06466	0.397555	13.7988	5.72243e-07	2.61096e-07	2.79566e-07	4.2382e-07	1.22206e-07	3.96681e-07	0.0035367	0.0185492	0.0188833	79.2052	18587	3543.92	18921.9	-10.7948	0.0000000E+000	0.0000000E+000	0.0000000E+000	10.7948	0.0000000E+000	0.0000000E+000	0.0000000E+000	-10.7948	0.0000000E+000	0.0000000E+000	0.0000000E+000	-79.2052	0.0000000E+000	0.0000000E+000	0.0000000E+000	79.2052	0.190666	10.7948	1.36115e-08
79.6177	19.3394	98.1373	100.025	-78.8518	900.308	0.439718	-0.000513504	20.3693	19.6079	3	39	0.00475849	4.75732e-05	0	-0.000828094	1.29921	0.59925	26.5174	3.58782e-05	2.24991e-05	1.62009e-05	2.44746e-05	1.6617e-05	1.52889e-05	1.76684	0.479085	25.9053	3.71571e-07	3.89624e-07	2.52739e-07	3.77702e-07	3.44505e-07	1.67364e-07	0.00193299	0.00980888	0.00999753	78.8518	19607.9	3864.03	19985	-11.1482	0.0000000E+000	0.0000000E+000	0.0000000E+000	11.1482	0.0000000E+000	0.0000000E+000	0.0000000E+000	-11.1482	0.0000000E+000	0.0000000E+000	0.0000000E+000	-78.8518	0.0000000E+000	0.0000000E+000	0.0000000E+000	78.8518	0.197065	11.1482	-1.96044e-07
39.8851	45.9978	184.358	190.009	-75.9906	903.777	0.439755	-0.000294195	21.6445	20.3761	3	40	0.00480804	2.53042e-05	0	-0.000828474	2.42195	1.94641	39.3534	3.52663e-05	1.99426e-05	3.03522e-05	4.43833e-05	6.98092e-05	4.52018e-05	0.858523	0.368791	9.01502	1.58856e-07	4.69374e-08	3.42252e-08	9.16731e-08	7.43467e-08	3.27589e-08	0.00127405	0.00510636	0.0052629	75.9906	20376.1	5083.89	21000.7	-14.0094	0.0000000E+000	0.0000000E+000	0.0000000E+000	14.0094	0.0000000E+000	0.0000000E+000	0.0000000E+000	-14.0094	0.0000000E+000	0.0000000E+000	0.0000000E+000	-75.9906	0.0000000E+000	0.0000000E+000	0.0000000E+000	75.9906	0.249503	14.0094	-1.92016e-07
25.1691	85.1337	275.159	288.029	-72.808	905.884	0.439771	-0.000330815	22.981	20.9733	3	40	0.0047912	1.66345e-05	0	-0.000828696	2.06627	0.884894	37.6132	2.45371e-05	3.67354e-05	5.3941e-05	3.45153e-05	3.18458e-05	3.78141e-05	1.23696	0.344938	13.0464	1.24754e-07	7.97308e-08	6.4804e-08	1.06219e-07	3.44651e-08	3.97442e-08	0.0010262	0.00331675	0.00347188	72.808	20973.2	6489.08	21954.2	-17.192	0.0000000E+000	0.0000000E+000	0.0000000E+000	17.192	0.0000000E+000	0.0000000E+000	0.0000000E+000	-17.192	0.0000000E+000	0.0000000E+000	0.0000000E+000	-72.808	0.0000000E+000	0.0000000E+000	0.0000000E+000	72.808	0.309398	17.192	-1.26244e-07