File: Python/Data/GoldElectrode/240322/Carbon/240322-CVEIS-Activation-5mM_Fe2Fe3-1M_H2SO4-0000RPM-Ag_AgCl_BLF8-GC_RDE_04_PEIS_C15.mpt
EC-Lab ASCII FILE
Nb header lines : 66

Potentio Electrochemical Impedance Spectroscopy

Run on channel : 15 (SN 19485)
User :
Electrode connection : standard
Potential control : Ewe
Ewe ctrl range : min = -2.50 V, max = 2.50 V
Ewe,I filtering : 50 kHz
Safety Limits :
	Do not start on E overload
Channel : Floating
Acquisition started on : 03/22/2024 12:39:19.547
Loaded Setting File :  C:\Data\mathias\GoldElectrode\240322-CVEIS-Activation-5mM_Fe2Fe3-1M_H2SO4-0000RPM-Ag_AgCl_BLF8-Au_RDE.mps
Saved on :
	File : 240322-CVEIS-Activation-5mM_Fe2Fe3-1M_H2SO4-0000RPM-Ag_AgCl_BLF8-GC_RDE_04_PEIS_C15.mpr
	Directory : C:\Data\mathias\GoldElectrode\
	Host : 192.168.0.1
Device : VMP-300 (SN 0826)
Address : USB
EC-Lab for windows v11.52 (software)
Internet server v11.52 (firmware)
Command interpretor v11.52 (firmware)
Electrode material :
Initial state :
Electrolyte :
Comments :
Cable : special
Electrode surface area : 0.001 cm²
Characteristic mass : 0.001 g
Equivalent Weight : 0.000 g/eq.
Density : 0.000 g/cm3
Volume (V) : 0.001 cm³
Record EIS quality indicators
Cycle Definition : Charge/Discharge alternance
Mode                Single sine
E (V)               0.0000
vs.                 Eoc
tE (h:m:s)          0:00:0.0000
record              0
dI                  0.000
unit dI             mA
dt (s)              0.000
fi                  100.000
unit fi             kHz
ff                  100.000
unit ff             Hz
Nd                  10
Points              per decade
spacing             Logarithmic
Va (mV)             5.0
pw                  0.10
Na                  2
corr                0
E range min (V)     -2.500
E range max (V)     2.500
I Range             Auto
Bandwidth           8
nc cycles           0
goto Ns'            0
nr cycles           0
inc. cycle          0

freq/Hz	Re(Z)/Ohm	-Im(Z)/Ohm	|Z|/Ohm	Phase(Z)/deg	time/s	<Ewe>/V	<I>/mA	Cs/µF	Cp/µF	cycle number	I Range	|Ewe|/V	|I|/A	Ns	(Q-Qo)/mA.h	THD Ewe/%	NSD Ewe/%	NSR Ewe/%	|Ewe h2|/V	|Ewe h3|/V	|Ewe h4|/V	|Ewe h5|/V	|Ewe h6|/V	|Ewe h7|/V	THD I/%	NSD I/%	NSR I/%	|I h2|/A	|I h3|/A	|I h4|/A	|I h5|/A	|I h6|/A	|I h7|/A	Re(Y)/Ohm-1	Im(Y)/Ohm-1	|Y|/Ohm-1	Phase(Y)/deg	Re(C)/nF	Im(C)/nF	|C|/nF	Phase(C)/deg	Re(M)	Im(M)	|M|	Phase(M)/deg	Re(Permittivity)	Im(Permittivity)	|Permittivity|	Phase(Permittivity)/deg	Re(Resistivity)/Ohm.cm	Im(Resistivity)/Ohm.cm	|Resistivity|/Ohm.cm	Phase(Resistivity)/deg	Re(Conductivity)/mS/cm	Im(Conductivity)/mS/cm	|Conductivity|/mS/cm	Phase(Conductivity)/deg	Tan(Delta)	Loss Angle(Delta)/deg	dq/mA.h
100004	2.96711	0.242139	2.97697	-4.66543	390.392	0.441185	-0.16449	6.57264	0.0434828	1	37	0.00484039	0.00162594	0	-3.92894e-05	1.0594	0.763487	27.2762	3.00764e-05	1.64468e-05	2.0858e-05	2.20125e-05	1.71115e-05	9.54888e-06	0.549272	0.25879	10.8897	1.71486e-06	3.12312e-06	5.98071e-06	3.49151e-06	1.4522e-06	3.26599e-06	0.334799	0.0273221	0.335912	4.66543	43.4828	532.829	534.6	-85.3346	0.0000000E+000	0.0000000E+000	0.0000000E+000	85.3346	0.0000000E+000	0.0000000E+000	0.0000000E+000	-85.3346	0.0000000E+000	0.0000000E+000	0.0000000E+000	-4.66543	0.0000000E+000	0.0000000E+000	0.0000000E+000	4.66543	12.2538	85.3346	-3.92894e-05
79433.3	2.97046	0.274971	2.98316	-5.28869	391.207	0.441188	-0.0707631	7.28671	0.0619084	1	37	0.00512342	0.00171744	0	-5.43736e-05	1.10364	0.475434	24.9515	2.09687e-05	2.39063e-05	2.7676e-05	5.76662e-06	2.06607e-05	1.87946e-05	0.547885	0.477047	10.3341	3.4067e-06	5.51516e-06	4.41971e-06	3.82809e-06	1.83474e-06	1.62789e-06	0.333787	0.0308981	0.335215	5.28869	61.9084	668.787	671.646	-84.7113	0.0000000E+000	0.0000000E+000	0.0000000E+000	84.7113	0.0000000E+000	0.0000000E+000	0.0000000E+000	-84.7113	0.0000000E+000	0.0000000E+000	0.0000000E+000	-5.28869	0.0000000E+000	0.0000000E+000	0.0000000E+000	5.28869	10.8028	84.7113	-1.50841e-05
63093.8	2.99949	0.320725	3.01659	-6.10326	392.022	0.44116	-0.071582	7.86502	0.0889068	1	37	0.00518423	0.00171858	0	-6.90254e-05	1.23849	0.433388	24.7453	3.9428e-05	1.70801e-05	3.23285e-05	2.00054e-05	2.0081e-05	1.8807e-05	0.551279	0.248631	10.3144	4.051e-06	1.88021e-06	3.07191e-06	4.75787e-06	3.31415e-06	3.98077e-06	0.329622	0.0352454	0.331501	6.10326	88.9068	831.475	836.214	-83.8967	0.0000000E+000	0.0000000E+000	0.0000000E+000	83.8967	0.0000000E+000	0.0000000E+000	0.0000000E+000	-83.8967	0.0000000E+000	0.0000000E+000	0.0000000E+000	-6.10326	0.0000000E+000	0.0000000E+000	0.0000000E+000	6.10326	9.3522	83.8967	-1.46518e-05
50122.5	2.93321	0.416384	2.96262	-8.07943	392.837	0.441212	-0.0684553	7.62595	0.150636	1	37	0.00511393	0.00172615	0	-8.32775e-05	1.33262	0.688448	25.2063	2.34677e-05	2.15757e-05	2.97678e-05	3.50842e-05	2.38612e-05	2.66089e-05	0.496974	0.269597	10.3076	3.48347e-06	2.20991e-06	2.63321e-06	4.38947e-06	4.31121e-06	1.7132e-06	0.334189	0.0474397	0.337539	8.07943	150.636	1061.16	1071.8	-81.9206	0.0000000E+000	0.0000000E+000	0.0000000E+000	81.9206	0.0000000E+000	0.0000000E+000	0.0000000E+000	-81.9206	0.0000000E+000	0.0000000E+000	0.0000000E+000	-8.07943	0.0000000E+000	0.0000000E+000	0.0000000E+000	8.07943	7.04449	81.9206	-1.42521e-05
39814.1	3.00815	0.470654	3.04474	-8.89238	393.652	0.441207	-0.0670223	8.49341	0.202947	1	37	0.00514548	0.00168995	0	-0.000101057	1.09102	0.674084	24.3933	3.98524e-05	1.10798e-05	1.71585e-05	1.84438e-05	1.67639e-05	1.73005e-05	0.58614	0.404196	10.5059	2.86459e-06	1.04217e-06	4.11534e-06	6.10263e-06	3.56718e-06	2.63437e-06	0.324487	0.0507692	0.328435	8.89238	202.947	1297.12	1312.9	-81.1076	0.0000000E+000	0.0000000E+000	0.0000000E+000	81.1076	0.0000000E+000	0.0000000E+000	0.0000000E+000	-81.1076	0.0000000E+000	0.0000000E+000	0.0000000E+000	-8.89238	0.0000000E+000	0.0000000E+000	0.0000000E+000	8.89238	6.39143	81.1076	-1.77791e-05
31621.1	3.05973	0.587411	3.11561	-10.8675	394.467	0.441214	-0.0658498	8.56841	0.304578	1	37	0.00518819	0.00166522	0	-0.000115886	1.04056	0.566009	24.368	1.02631e-05	2.78346e-05	2.5387e-05	2.63966e-05	2.27864e-05	1.0881e-05	0.424854	0.275513	10.731	2.48566e-06	3.68861e-06	1.85477e-06	2.42021e-06	3.1564e-06	2.99516e-06	0.315208	0.060514	0.320964	10.8675	304.578	1586.5	1615.47	-79.1325	0.0000000E+000	0.0000000E+000	0.0000000E+000	79.1325	0.0000000E+000	0.0000000E+000	0.0000000E+000	-79.1325	0.0000000E+000	0.0000000E+000	0.0000000E+000	-10.8675	0.0000000E+000	0.0000000E+000	0.0000000E+000	10.8675	5.20885	79.1325	-1.48294e-05
25116.9	3.07327	0.715959	3.15556	-13.1139	395.282	0.441186	-0.0609178	8.85046	0.455605	1	37	0.00518729	0.00164386	0	-0.000130622	0.950154	0.301318	24.3674	2.12943e-05	1.56136e-05	2.39704e-05	1.74567e-05	2.49716e-05	8.77139e-06	0.517725	0.31592	10.9458	2.20171e-06	4.58055e-06	3.59956e-06	3.13916e-06	4.25637e-06	2.09562e-06	0.308636	0.0719009	0.316901	13.1139	455.605	1955.69	2008.06	-76.8861	0.0000000E+000	0.0000000E+000	0.0000000E+000	76.8861	0.0000000E+000	0.0000000E+000	0.0000000E+000	-76.8861	0.0000000E+000	0.0000000E+000	0.0000000E+000	-13.1139	0.0000000E+000	0.0000000E+000	0.0000000E+000	13.1139	4.29252	76.8861	-1.47359e-05
19948.8	3.12084	0.840102	3.23194	-15.0663	396.097	0.441205	-0.059708	9.49668	0.641666	1	37	0.00511497	0.00158263	0	-0.000144599	1.17958	0.61887	24.7829	1.29227e-05	2.73074e-05	3.8349e-05	2.54429e-05	1.44996e-05	1.56249e-05	0.598071	0.258786	11.3726	3.79762e-06	5.32816e-06	1.59516e-06	3.30256e-06	2.64209e-06	4.04769e-06	0.298776	0.0804276	0.309412	15.0663	641.666	2383.69	2468.54	-74.9337	0.0000000E+000	0.0000000E+000	0.0000000E+000	74.9337	0.0000000E+000	0.0000000E+000	0.0000000E+000	-74.9337	0.0000000E+000	0.0000000E+000	0.0000000E+000	-15.0663	0.0000000E+000	0.0000000E+000	0.0000000E+000	15.0663	3.71484	74.9337	-1.3977e-05
15847.7	3.1614	1.02617	3.32377	-17.983	396.912	0.441165	-0.0624811	9.7867	0.932845	1	37	0.00515953	0.00155231	0	-0.00015768	1.85796	0.529794	24.3583	2.85612e-05	2.65539e-05	6.67592e-05	2.88833e-05	2.41624e-05	3.69025e-05	0.561628	0.278428	11.4071	5.65922e-06	5.93142e-07	1.66805e-06	3.00941e-06	3.17417e-06	4.61577e-06	0.286165	0.0928871	0.300863	17.983	932.845	2873.9	3021.5	-72.017	0.0000000E+000	0.0000000E+000	0.0000000E+000	72.017	0.0000000E+000	0.0000000E+000	0.0000000E+000	-72.017	0.0000000E+000	0.0000000E+000	0.0000000E+000	-17.983	0.0000000E+000	0.0000000E+000	0.0000000E+000	17.983	3.08079	72.017	-1.30815e-05
12590.9	3.19524	1.2111	3.41706	-20.7583	397.727	0.441186	-0.0603594	10.4372	1.3111	1	37	0.00511763	0.00149767	0	-0.000170189	1.57634	0.825294	25.3683	4.1263e-05	2.71067e-05	3.13187e-05	4.66289e-05	1.04303e-05	1.82775e-05	0.675054	0.297873	11.9323	4.40399e-06	2.35563e-06	4.8495e-06	4.28211e-06	3.05606e-06	4.41002e-06	0.273652	0.103723	0.292649	20.7583	1311.1	3459.08	3699.22	-69.2417	0.0000000E+000	0.0000000E+000	0.0000000E+000	69.2417	0.0000000E+000	0.0000000E+000	0.0000000E+000	-69.2417	0.0000000E+000	0.0000000E+000	0.0000000E+000	-20.7583	0.0000000E+000	0.0000000E+000	0.0000000E+000	20.7583	2.6383	69.2417	-1.25087e-05
10002.2	3.25779	1.50004	3.58655	-24.7236	398.542	0.441202	-0.0626486	10.6077	1.85555	1	37	0.00497027	0.00138581	0	-0.000182116	1.73494	1.13513	26.0316	4.8901e-05	2.05103e-05	2.23719e-05	5.82735e-05	1.92217e-05	1.32494e-05	0.4705	0.658614	12.9329	1.78726e-06	1.5865e-06	3.6824e-06	2.82665e-06	1.51048e-06	3.01897e-06	0.253262	0.116614	0.278819	24.7236	1855.55	4029.89	4436.56	-65.2764	0.0000000E+000	0.0000000E+000	0.0000000E+000	65.2764	0.0000000E+000	0.0000000E+000	0.0000000E+000	-65.2764	0.0000000E+000	0.0000000E+000	0.0000000E+000	-24.7236	0.0000000E+000	0.0000000E+000	0.0000000E+000	24.7236	2.1718	65.2764	-1.19272e-05
7944	3.30172	1.8036	3.76223	-28.646	399.392	0.441088	-0.0655706	11.1081	2.55288	1	37	0.00516595	0.00137311	0	-0.000197878	1.26256	0.523767	25.3139	1.94043e-05	3.06245e-05	1.8057e-05	2.47313e-05	2.47173e-05	2.91244e-05	0.640003	0.565868	12.8622	5.02527e-06	3.21041e-06	3.24019e-06	9.98687e-07	2.50975e-06	4.62821e-06	0.233266	0.127424	0.2658	28.646	2552.88	4673.39	5325.2	-61.354	0.0000000E+000	0.0000000E+000	0.0000000E+000	61.354	0.0000000E+000	0.0000000E+000	0.0000000E+000	-61.354	0.0000000E+000	0.0000000E+000	0.0000000E+000	-28.646	0.0000000E+000	0.0000000E+000	0.0000000E+000	28.646	1.83063	61.354	-1.57614e-05
6307.74	3.40353	2.24764	4.07871	-33.4402	400.325	0.441043	-0.00318791	11.2259	3.409	1	38	0.00492737	0.00120807	0	-0.000201469	1.98959	0.872135	24.9084	2.01749e-05	1.31742e-05	2.10579e-05	2.63784e-05	4.90817e-05	7.03589e-05	0.174068	0.080067	2.46961	7.45812e-07	3.98764e-07	1.14848e-06	7.85037e-07	4.56262e-07	9.25861e-07	0.204589	0.135108	0.245175	33.4402	3409	5162.14	6186.19	-56.5598	0.0000000E+000	0.0000000E+000	0.0000000E+000	56.5598	0.0000000E+000	0.0000000E+000	0.0000000E+000	-56.5598	0.0000000E+000	0.0000000E+000	0.0000000E+000	-33.4402	0.0000000E+000	0.0000000E+000	0.0000000E+000	33.4402	1.51427	56.5598	-3.59173e-06
5011.6	3.48912	2.74521	4.43961	-38.1954	401.303	0.441076	-0.00323446	11.5683	4.42313	1	38	0.0051309	0.00115571	0	-0.000204953	1.06412	0.458854	23.7678	2.71506e-05	2.37036e-05	2.13392e-05	1.18915e-05	2.55378e-05	1.3486e-05	0.174617	0.0828401	2.57922	1.33882e-06	4.8814e-07	7.10578e-07	5.78859e-07	4.09661e-07	7.72142e-07	0.177022	0.139279	0.225245	38.1954	4423.13	5621.72	7153.17	-51.8046	0.0000000E+000	0.0000000E+000	0.0000000E+000	51.8046	0.0000000E+000	0.0000000E+000	0.0000000E+000	-51.8046	0.0000000E+000	0.0000000E+000	0.0000000E+000	-38.1954	0.0000000E+000	0.0000000E+000	0.0000000E+000	38.1954	1.27098	51.8046	-3.48309e-06
3981.28	3.60203	3.36084	4.92644	-43.0162	402.268	0.441058	-0.0043088	11.8946	5.53578	1	38	0.00502605	0.00102022	0	-0.000208136	1.06543	0.46233	25.0633	1.37994e-05	1.41822e-05	3.61169e-05	2.80145e-05	1.11555e-05	1.06746e-05	0.188441	0.151033	2.93619	1.2173e-06	6.94523e-07	7.04615e-07	7.75949e-07	5.76693e-07	3.4035e-07	0.148416	0.138478	0.202986	43.0162	5535.78	5933.04	8114.54	-46.9838	0.0000000E+000	0.0000000E+000	0.0000000E+000	46.9838	0.0000000E+000	0.0000000E+000	0.0000000E+000	-46.9838	0.0000000E+000	0.0000000E+000	0.0000000E+000	-43.0162	0.0000000E+000	0.0000000E+000	0.0000000E+000	43.0162	1.07176	46.9838	-3.18345e-06
3163.04	3.69505	4.14763	5.55484	-48.3027	403.011	0.44107	-0.00397738	12.1315	6.76351	1	38	0.00508785	0.000915931	0	-0.000209481	1.28937	0.660438	24.1968	2.53281e-05	2.24923e-05	3.90418e-05	1.55296e-05	1.43079e-05	2.41821e-05	0.276395	0.113995	3.19134	2.0175e-06	6.864e-07	5.30656e-07	6.56011e-07	6.81704e-07	7.90896e-07	0.11975	0.134418	0.180023	48.3027	6763.51	6025.49	9058.24	-41.6973	0.0000000E+000	0.0000000E+000	0.0000000E+000	41.6973	0.0000000E+000	0.0000000E+000	0.0000000E+000	-41.6973	0.0000000E+000	0.0000000E+000	0.0000000E+000	-48.3027	0.0000000E+000	0.0000000E+000	0.0000000E+000	48.3027	0.890883	41.6973	-1.34526e-06
2512.41	3.8276	5.08102	6.36139	-53.0088	403.754	0.441051	-0.00427716	12.4675	7.95384	1	38	0.00495806	0.000779398	0	-0.000209819	1.26514	1.958	24.8781	2.92633e-05	1.74974e-05	2.04452e-05	2.62612e-05	9.92687e-06	3.64623e-05	0.345177	0.309905	3.84261	1.93156e-06	9.25982e-07	7.93745e-07	6.01032e-07	8.30326e-07	7.65894e-07	0.094585	0.125559	0.157198	53.0088	7953.84	5991.72	9958.13	-36.9912	0.0000000E+000	0.0000000E+000	0.0000000E+000	36.9912	0.0000000E+000	0.0000000E+000	0.0000000E+000	-36.9912	0.0000000E+000	0.0000000E+000	0.0000000E+000	-53.0088	0.0000000E+000	0.0000000E+000	0.0000000E+000	53.0088	0.753312	36.9912	-3.37811e-07
1995.64	3.97289	6.251	7.40668	-57.5615	404.497	0.441043	-0.00458996	12.7582	9.08742	1	38	0.00479209	0.000646995	0	-0.000211256	1.05351	0.414326	26.0911	1.97309e-05	1.13225e-05	2.59571e-05	2.3174e-05	1.44497e-05	2.36499e-05	0.318949	0.145382	4.57566	1.27352e-06	1.25859e-06	6.0016e-07	5.87747e-07	4.86564e-07	2.24582e-07	0.0724202	0.113947	0.135013	57.5615	9087.42	5775.61	10767.5	-32.4385	0.0000000E+000	0.0000000E+000	0.0000000E+000	32.4385	0.0000000E+000	0.0000000E+000	0.0000000E+000	-32.4385	0.0000000E+000	0.0000000E+000	0.0000000E+000	-57.5615	0.0000000E+000	0.0000000E+000	0.0000000E+000	57.5615	0.635561	32.4384	-1.43721e-06
1584.49	4.23896	7.77677	8.85703	-61.4061	405.241	0.441054	-0.00482829	12.9161	9.95757	1	38	0.0047035	0.000531047	0	-0.000212087	1.15263	0.705815	26.3776	1.6917e-05	2.71667e-05	3.08137e-05	1.89466e-05	7.2268e-06	1.90333e-05	0.417159	0.139511	5.52547	1.63895e-06	8.16902e-07	5.35534e-07	7.9738e-07	1.93645e-07	6.39908e-07	0.054036	0.0991342	0.112905	61.4061	9957.57	5427.66	11340.8	-28.5939	0.0000000E+000	0.0000000E+000	0.0000000E+000	28.5939	0.0000000E+000	0.0000000E+000	0.0000000E+000	-28.5939	0.0000000E+000	0.0000000E+000	0.0000000E+000	-61.4061	0.0000000E+000	0.0000000E+000	0.0000000E+000	61.4061	0.545079	28.5939	-8.30993e-07
1258.79	4.53191	9.50199	10.5274	-64.5015	405.984	0.441076	-0.00410959	13.3061	10.8403	1	38	0.00456948	0.000434056	0	-0.000212506	1.45511	0.860575	27.0897	2.85989e-05	2.69597e-05	2.27458e-05	2.56194e-05	2.44143e-05	2.65557e-05	0.599997	0.177012	6.85586	1.49937e-06	1.46449e-06	5.67345e-07	1.19333e-06	3.52553e-07	5.45204e-07	0.0408921	0.0857379	0.0949902	64.5015	10840.3	5170.18	12010.1	-25.4985	0.0000000E+000	0.0000000E+000	0.0000000E+000	25.4985	0.0000000E+000	0.0000000E+000	0.0000000E+000	-25.4985	0.0000000E+000	0.0000000E+000	0.0000000E+000	-64.5015	0.0000000E+000	0.0000000E+000	0.0000000E+000	64.5015	0.476943	25.4985	-4.18683e-07
999.682	4.77346	11.6439	12.5844	-67.7087	406.949	0.441068	-0.00422317	13.6729	11.7056	1	38	0.00492395	0.000391275	0	-0.000214172	1.77237	0.764671	25.3133	3.46902e-05	1.89926e-05	3.3663e-05	1.81077e-05	1.64856e-05	6.40561e-05	0.693725	0.207312	7.58627	2.00117e-06	1.06073e-06	6.6085e-07	8.91989e-07	2.29695e-07	6.94018e-07	0.0301418	0.0735251	0.0794636	67.7087	11705.6	4798.75	12651.1	-22.2913	0.0000000E+000	0.0000000E+000	0.0000000E+000	22.2913	0.0000000E+000	0.0000000E+000	0.0000000E+000	-22.2913	0.0000000E+000	0.0000000E+000	0.0000000E+000	-67.7087	0.0000000E+000	0.0000000E+000	0.0000000E+000	67.7087	0.409953	22.2913	-1.66588e-06
794.239	5.23219	14.4354	15.3544	-70.0767	407.692	0.441051	-0.00509828	13.8816	12.2697	1	38	0.0048914	0.000318567	0	-0.00021484	1.65274	1.34947	25.7226	3.43222e-05	3.48745e-05	2.81573e-05	4.02675e-05	2.65887e-05	1.51029e-05	0.670569	0.466868	9.21879	1.5787e-06	5.74153e-07	6.00178e-07	7.76264e-07	4.68834e-07	4.64484e-07	0.0221931	0.06123	0.065128	70.0767	12269.7	4447.21	13050.8	-19.9233	0.0000000E+000	0.0000000E+000	0.0000000E+000	19.9233	0.0000000E+000	0.0000000E+000	0.0000000E+000	-19.9233	0.0000000E+000	0.0000000E+000	0.0000000E+000	-70.0767	0.0000000E+000	0.0000000E+000	0.0000000E+000	70.0767	0.362455	19.9233	-6.67908e-07
631.01	5.58571	17.872	18.7245	-72.6439	408.434	0.441104	-0.000188359	14.1127	12.8569	1	38	0.0048404	0.000258506	0	-0.000214627	1.34104	0.739505	26.4732	2.8492e-05	1.65172e-05	2.16328e-05	1.77898e-05	3.26289e-05	2.27793e-05	0.967075	0.349467	11.4157	1.53632e-06	1.22041e-06	6.65802e-07	1.12067e-06	3.79543e-07	6.08892e-07	0.0159315	0.0509743	0.0534059	72.6439	12856.9	4018.29	13470.2	-17.3561	0.0000000E+000	0.0000000E+000	0.0000000E+000	17.3561	0.0000000E+000	0.0000000E+000	0.0000000E+000	-17.3561	0.0000000E+000	0.0000000E+000	0.0000000E+000	-72.6439	0.0000000E+000	0.0000000E+000	0.0000000E+000	72.6439	0.31254	17.3561	2.13099e-07
501.122	6.24521	21.9723	22.8426	-74.1332	409.177	0.441098	-0.00188831	14.4544	13.374	1	38	0.00480963	0.000210555	0	-0.000215092	1.13091	0.784839	25.7882	2.05159e-05	9.06756e-06	2.19023e-05	3.08968e-05	1.54456e-05	2.17047e-05	1.12869	0.517257	14.5268	1.25264e-06	1.35588e-06	4.74693e-07	9.95868e-07	4.84529e-07	6.87027e-07	0.011969	0.04211	0.0437779	74.1332	13374	3801.31	13903.7	-15.8668	0.0000000E+000	0.0000000E+000	0.0000000E+000	15.8668	0.0000000E+000	0.0000000E+000	0.0000000E+000	-15.8668	0.0000000E+000	0.0000000E+000	0.0000000E+000	-74.1332	0.0000000E+000	0.0000000E+000	0.0000000E+000	74.1332	0.284232	15.8668	-4.65117e-07
398.089	7.11247	27.1616	28.0774	-75.3261	409.922	0.441108	-0.000566335	14.7192	13.7747	1	38	0.00479003	0.000170601	0	-0.000215175	1.15494	0.579955	26.0743	1.7306e-05	2.30636e-05	1.11786e-05	1.97264e-05	1.6588e-05	3.34018e-05	1.02419	0.309073	17.8127	1.12032e-06	7.88519e-07	4.92292e-07	5.3733e-07	5.50986e-07	4.08071e-07	0.00902211	0.0344542	0.0356159	75.3261	13774.7	3607.01	14239.1	-14.6739	0.0000000E+000	0.0000000E+000	0.0000000E+000	14.6739	0.0000000E+000	0.0000000E+000	0.0000000E+000	-14.6739	0.0000000E+000	0.0000000E+000	0.0000000E+000	-75.3261	0.0000000E+000	0.0000000E+000	0.0000000E+000	75.3261	0.261858	14.6739	-8.2841e-08
316.316	7.87843	33.6278	34.5384	-76.8144	410.916	0.441048	0.00145541	14.9624	14.1838	1	39	0.00492156	0.000142495	0	-0.00021491	1.32938	0.758861	25.6018	1.57935e-05	2.2939e-05	2.14818e-05	3.14045e-05	3.03912e-05	2.16966e-05	0.946388	0.332793	8.81536	6.51312e-07	6.54853e-07	2.45535e-07	8.75245e-07	3.38604e-07	1.1226e-07	0.00660444	0.02819	0.0289533	76.8144	14183.8	3323.04	14567.9	-13.1856	0.0000000E+000	0.0000000E+000	0.0000000E+000	13.1856	0.0000000E+000	0.0000000E+000	0.0000000E+000	-13.1856	0.0000000E+000	0.0000000E+000	0.0000000E+000	-76.8144	0.0000000E+000	0.0000000E+000	0.0000000E+000	76.8144	0.234283	13.1856	2.64779e-07
251.206	9.13997	41.6257	42.6173	-77.6158	411.659	0.441066	0.0012366	15.2205	14.5204	1	39	0.00486764	0.000114217	0	-0.000214543	1.10246	0.710104	25.3359	2.28132e-05	9.58776e-06	3.28959e-05	2.05928e-05	1.56444e-05	1.38093e-05	0.898048	0.418466	11.0788	7.12562e-07	2.72923e-07	1.13183e-07	4.70566e-07	4.34151e-07	1.43835e-07	0.00503237	0.0229187	0.0234646	77.6158	14520.4	3188.32	14866.3	-12.3842	0.0000000E+000	0.0000000E+000	0.0000000E+000	12.3842	0.0000000E+000	0.0000000E+000	0.0000000E+000	-12.3842	0.0000000E+000	0.0000000E+000	0.0000000E+000	-77.6158	0.0000000E+000	0.0000000E+000	0.0000000E+000	77.6158	0.219575	12.3842	3.67276e-07
199.553	11.057	51.2408	52.4202	-77.8231	412.405	0.441078	0.00113614	15.5648	14.8723	1	39	0.00480732	9.17073e-05	0	-0.000214436	1.37079	0.80578	25.9375	3.45796e-05	3.22177e-05	9.64638e-06	1.61185e-05	1.79982e-05	2.99845e-05	1.02878	0.345096	13.9118	5.69505e-07	3.83504e-07	2.29903e-07	2.61139e-07	1.33521e-07	3.49507e-07	0.00402384	0.0186474	0.0190766	77.8231	14872.3	3209.24	15214.7	-12.1769	0.0000000E+000	0.0000000E+000	0.0000000E+000	12.1769	0.0000000E+000	0.0000000E+000	0.0000000E+000	-12.1769	0.0000000E+000	0.0000000E+000	0.0000000E+000	-77.8231	0.0000000E+000	0.0000000E+000	0.0000000E+000	77.8231	0.215786	12.1769	1.06646e-07
158.529	13.0949	63.831	65.1604	-78.4066	413.151	0.441069	0.00127648	15.7282	15.093	1	39	0.00481069	7.38284e-05	0	-0.000214289	1.392	0.864947	25.2515	9.45609e-06	1.74165e-05	9.12173e-06	2.62688e-05	4.11814e-05	3.52635e-05	1.37023	0.454045	16.6801	4.75861e-07	2.99179e-07	1.93161e-07	4.65978e-07	4.76145e-07	2.40276e-07	0.00308415	0.0150336	0.0153467	78.4066	15093	3096.33	15407.3	-11.5934	0.0000000E+000	0.0000000E+000	0.0000000E+000	11.5934	0.0000000E+000	0.0000000E+000	0.0000000E+000	-11.5934	0.0000000E+000	0.0000000E+000	0.0000000E+000	-78.4066	0.0000000E+000	0.0000000E+000	0.0000000E+000	78.4066	0.20515	11.5934	1.47311e-07
125.927	15.8166	78.5868	80.1626	-78.6205	413.893	0.441089	0.000593961	16.0825	15.4564	1	39	0.00478776	5.97256e-05	0	-0.000214068	1.09728	0.427936	25.7489	1.45344e-05	9.43288e-06	2.97812e-05	1.30729e-05	8.62161e-06	3.28966e-05	1.01685	0.395736	20.0134	2.72348e-07	1.39107e-07	2.31444e-07	1.61498e-07	1.83804e-07	3.64284e-07	0.00246133	0.0122294	0.0124746	78.6205	15456.4	3110.8	15766.3	-11.3795	0.0000000E+000	0.0000000E+000	0.0000000E+000	11.3795	0.0000000E+000	0.0000000E+000	0.0000000E+000	-11.3795	0.0000000E+000	0.0000000E+000	0.0000000E+000	-78.6205	0.0000000E+000	0.0000000E+000	0.0000000E+000	78.6205	0.201263	11.3795	2.20575e-07
99.9682	19.0378	96.2053	98.0709	-78.8065	414.624	0.441097	0.000747724	16.5485	15.9249	1	39	0.00474662	4.83999e-05	0	-0.000213861	2.67751	0.67293	26.2254	5.34308e-05	5.36962e-05	4.43169e-05	4.80235e-05	5.47611e-05	5.35129e-05	2.01836	0.835271	24.9086	4.0117e-07	2.71001e-07	2.2493e-07	5.05775e-07	5.34067e-07	3.38049e-07	0.00197942	0.0100027	0.0101967	78.8065	15924.9	3151.34	16233.7	-11.1935	0.0000000E+000	0.0000000E+000	0.0000000E+000	11.1935	0.0000000E+000	0.0000000E+000	0.0000000E+000	-11.1935	0.0000000E+000	0.0000000E+000	0.0000000E+000	-78.8065	0.0000000E+000	0.0000000E+000	0.0000000E+000	78.8065	0.197887	11.1935	2.0668e-07