File: Python/Data/GoldElectrode/240322/Carbon/240322-CVEIS-5mM_Fe2Fe3-1M_H2SO4-0000RPM-Ag_AgCl_BLF8-GC_RDE_02_PEIS_C15.mpt
EC-Lab ASCII FILE
Nb header lines : 65

Potentio Electrochemical Impedance Spectroscopy

Run on channel : 15 (SN 19485)
User :
Electrode connection : standard
Potential control : Ewe
Ewe ctrl range : min = -1.00 V, max = 1.00 V
Ewe,I filtering : <None>
Safety Limits :
	Do not start on E overload
Channel : Floating
Acquisition started on : 03/22/2024 12:30:07.620
Loaded Setting File :  C:\Data\mathias\GoldElectrode\240321-CVEIS-5mM_Fe2Fe3-1M_H2SO4-0000RPM-Ag_AgCl_BLF8-Au_RDE.mps
Saved on :
	File : 240321-CVEIS-5mM_Fe2Fe3-1M_H2SO4-0000RPM-Ag_AgCl_BLF8-GC_RDE_02_PEIS_C15.mpr
	Directory : C:\Data\mathias\GoldElectrode\
	Host : 192.168.0.1
Device : VMP-300 (SN 0826)
Address : USB
EC-Lab for windows v11.52 (software)
Internet server v11.52 (firmware)
Command interpretor v11.52 (firmware)
Electrode material :
Initial state :
Electrolyte :
Comments :
Cable : special
Electrode surface area : 0.001 cm²
Characteristic mass : 0.001 g
Equivalent Weight : 0.000 g/eq.
Density : 0.000 g/cm3
Volume (V) : 0.001 cm³
Cycle Definition : Charge/Discharge alternance
Mode                Multi sine
E (V)               0.0000
vs.                 Eoc
tE (h:m:s)          0:00:0.0000
record              0
dI                  0.000
unit dI             mA
dt (s)              0.000
fi                  400.000
unit fi             kHz
ff                  100.000
unit ff             mHz
Nd                  10
Points              per decade
spacing             Logarithmic
Va (mV)             5.0
pw                  0.10
Na                  3
corr                0
E range min (V)     -1.000
E range max (V)     1.000
I Range             Auto
Bandwidth           8
nc cycles           2
goto Ns'            0
nr cycles           0
inc. cycle          1

freq/Hz	Re(Z)/Ohm	-Im(Z)/Ohm	|Z|/Ohm	Phase(Z)/deg	time/s	<Ewe>/V	<I>/mA	Cs/µF	Cp/µF	cycle number	I Range	|Ewe|/V	|I|/A	Ns	(Q-Qo)/mA.h	Re(Y)/Ohm-1	Im(Y)/Ohm-1	|Y|/Ohm-1	Phase(Y)/deg	Re(C)/nF	Im(C)/nF	|C|/nF	Phase(C)/deg	Re(M)	Im(M)	|M|	Phase(M)/deg	Re(Permittivity)	Im(Permittivity)	|Permittivity|	Phase(Permittivity)/deg	Re(Resistivity)/Ohm.cm	Im(Resistivity)/Ohm.cm	|Resistivity|/Ohm.cm	Phase(Resistivity)/deg	Re(Conductivity)/mS/cm	Im(Conductivity)/mS/cm	|Conductivity|/mS/cm	Phase(Conductivity)/deg	Tan(Delta)	Loss Angle(Delta)/deg	dq/mA.h
399996	3.13037	1.24481	3.36879	-21.6855	142.782	0.441228	-0.015931	0.319641	0.0436433	1	38	0.00458292	0.0013604	0	-2.55239e-06	0.275834	0.109687	0.296842	21.6855	43.6433	109.752	118.111	-68.3145	0.0000000E+000	0.0000000E+000	0.0000000E+000	68.3145	0.0000000E+000	0.0000000E+000	0.0000000E+000	-68.3145	0.0000000E+000	0.0000000E+000	0.0000000E+000	-21.6855	0.0000000E+000	0.0000000E+000	0.0000000E+000	21.6855	2.51474	68.3145	-2.55239e-06
252347	3.15788	0.271419	3.16952	-4.91249	144.32	0.441244	-0.0775749	2.3237	0.0170402	1	37	0.00513836	0.00162118	0	-3.03477e-05	0.314346	0.027018	0.315505	4.91249	17.0402	198.257	198.988	-85.0875	0.0000000E+000	0.0000000E+000	0.0000000E+000	85.0875	0.0000000E+000	0.0000000E+000	0.0000000E+000	-85.0875	0.0000000E+000	0.0000000E+000	0.0000000E+000	-4.91249	0.0000000E+000	0.0000000E+000	0.0000000E+000	4.91249	11.6347	85.0875	-1.14303e-05
159201	3.05204	0.313278	3.06807	-5.86063	145.422	0.441204	-0.0793801	3.19114	0.0332716	1	37	0.00525165	0.00171171	0	-5.51559e-05	0.324234	0.0332812	0.325938	5.86063	33.2717	324.141	325.844	-84.1394	0.0000000E+000	0.0000000E+000	0.0000000E+000	84.1394	0.0000000E+000	0.0000000E+000	0.0000000E+000	-84.1394	0.0000000E+000	0.0000000E+000	0.0000000E+000	-5.86063	0.0000000E+000	0.0000000E+000	0.0000000E+000	5.86063	9.74226	84.1394	-8.90933e-06
100431	3.02596	0.435511	3.05714	-8.19004	146.525	0.441224	-0.0806457	3.63878	0.0738453	1	37	0.00519498	0.00169929	0	-8.05862e-05	0.323767	0.0465981	0.327103	8.19004	73.8452	513.082	518.369	-81.81	0.0000000E+000	0.0000000E+000	0.0000000E+000	81.81	0.0000000E+000	0.0000000E+000	0.0000000E+000	-81.81	0.0000000E+000	0.0000000E+000	0.0000000E+000	-8.19004	0.0000000E+000	0.0000000E+000	0.0000000E+000	8.19004	6.94807	81.81	-1.37388e-05
63362.9	3.03377	0.643469	3.10126	-11.9751	147.627	0.441227	-0.0739084	3.90353	0.168049	1	37	0.00521237	0.00168073	0	-0.000104214	0.315433	0.066904	0.32245	11.9751	168.049	792.304	809.929	-78.0249	0.0000000E+000	0.0000000E+000	0.0000000E+000	78.0249	0.0000000E+000	0.0000000E+000	0.0000000E+000	-78.0249	0.0000000E+000	0.0000000E+000	0.0000000E+000	-11.9751	0.0000000E+000	0.0000000E+000	0.0000000E+000	11.9751	4.71471	78.0249	-1.27496e-05
39971.8	3.11128	0.935828	3.24898	-16.7405	148.729	0.441248	-0.0795849	4.25472	0.352996	1	37	0.00518562	0.00159608	0	-0.000122806	0.294745	0.0886549	0.307789	16.7405	352.995	1173.58	1225.52	-73.2595	0.0000000E+000	0.0000000E+000	0.0000000E+000	73.2595	0.0000000E+000	0.0000000E+000	0.0000000E+000	-73.2595	0.0000000E+000	0.0000000E+000	0.0000000E+000	-16.7405	0.0000000E+000	0.0000000E+000	0.0000000E+000	16.7405	3.32463	73.2595	-9.86183e-06
25219	3.20733	1.39497	3.49756	-23.5057	149.831	0.441245	-0.0762907	4.52405	0.71966	1	37	0.00517404	0.00147933	0	-0.00014478	0.262188	0.114034	0.285913	23.5057	719.66	1654.65	1804.38	-66.4943	0.0000000E+000	0.0000000E+000	0.0000000E+000	66.4943	0.0000000E+000	0.0000000E+000	0.0000000E+000	-66.4943	0.0000000E+000	0.0000000E+000	0.0000000E+000	-23.5057	0.0000000E+000	0.0000000E+000	0.0000000E+000	23.5057	2.29921	66.4943	-9.71808e-06
15912.6	3.33552	2.04106	3.91045	-31.4632	150.934	0.441209	-0.0700559	4.9003	1.335	1	37	0.00515754	0.00131891	0	-0.000163588	0.218128	0.133476	0.255725	31.4632	1335	2181.67	2557.71	-58.5368	0.0000000E+000	0.0000000E+000	0.0000000E+000	58.5368	0.0000000E+000	0.0000000E+000	0.0000000E+000	-58.5368	0.0000000E+000	0.0000000E+000	0.0000000E+000	-31.4632	0.0000000E+000	0.0000000E+000	0.0000000E+000	31.4632	1.63421	58.5368	-9.45845e-06
10039.3	3.52987	3.09756	4.69626	-41.2678	152.337	0.441226	-0.00596034	5.11794	2.22654	1	38	0.00498147	0.00106073	0	-0.000182408	0.16005	0.140448	0.212935	41.2678	2226.54	2537.29	3375.69	-48.7322	0.0000000E+000	0.0000000E+000	0.0000000E+000	48.7322	0.0000000E+000	0.0000000E+000	0.0000000E+000	-48.7322	0.0000000E+000	0.0000000E+000	0.0000000E+000	-41.2678	0.0000000E+000	0.0000000E+000	0.0000000E+000	41.2678	1.13957	48.7322	-9.19665e-06
6332.63	3.76511	4.65053	5.9836	-51.0061	153.726	0.441117	-0.006383	5.40423	3.26447	1	38	0.00524689	0.000876878	0	-0.000184278	0.10516	0.12989	0.167123	51.0061	3264.47	2642.95	4200.23	-38.9939	0.0000000E+000	0.0000000E+000	0.0000000E+000	38.9939	0.0000000E+000	0.0000000E+000	0.0000000E+000	-38.9939	0.0000000E+000	0.0000000E+000	0.0000000E+000	-51.0061	0.0000000E+000	0.0000000E+000	0.0000000E+000	51.0061	0.809609	38.9939	-4.98237e-07
3993.72	4.1539	7.03992	8.17407	-59.4573	155.091	0.441186	-0.00651893	5.66076	4.19888	1	38	0.00521599	0.000638114	0	-0.000186403	0.0621698	0.105364	0.122338	59.4573	4198.88	2477.55	4875.33	-30.5427	0.0000000E+000	0.0000000E+000	0.0000000E+000	30.5427	0.0000000E+000	0.0000000E+000	0.0000000E+000	-30.5427	0.0000000E+000	0.0000000E+000	0.0000000E+000	-59.4573	0.0000000E+000	0.0000000E+000	0.0000000E+000	59.4573	0.59005	30.5427	-9.78686e-07
2519.19	4.66966	10.5908	11.5745	-66.2064	156.458	0.441137	-0.00531798	5.96529	4.99435	1	38	0.00473174	0.000408806	0	-0.000188534	0.034856	0.0790532	0.0863965	66.2064	4994.35	2202.1	5458.27	-23.7936	0.0000000E+000	0.0000000E+000	0.0000000E+000	23.7936	0.0000000E+000	0.0000000E+000	0.0000000E+000	-23.7936	0.0000000E+000	0.0000000E+000	0.0000000E+000	-66.2064	0.0000000E+000	0.0000000E+000	0.0000000E+000	66.2064	0.440919	23.7936	-9.23956e-07
1589.49	5.57711	16.0389	16.9809	-70.8262	157.825	0.44105	-0.00535337	6.2429	5.56948	1	38	0.00449373	0.000264634	0	-0.000190462	0.0193413	0.0556228	0.0588896	70.8262	5569.48	1936.64	5896.58	-19.1738	0.0000000E+000	0.0000000E+000	0.0000000E+000	19.1738	0.0000000E+000	0.0000000E+000	0.0000000E+000	-19.1738	0.0000000E+000	0.0000000E+000	0.0000000E+000	-70.8262	0.0000000E+000	0.0000000E+000	0.0000000E+000	70.8262	0.347723	19.1738	-9.51299e-07
1002.75	6.80571	24.4516	25.3811	-74.4463	159.417	0.441111	-0.00514856	6.49112	6.02441	1	38	0.00485476	0.000191275	0	-0.000192898	0.0105646	0.0379566	0.0393995	74.4463	6024.41	1676.8	6253.41	-15.5537	0.0000000E+000	0.0000000E+000	0.0000000E+000	15.5537	0.0000000E+000	0.0000000E+000	0.0000000E+000	-15.5537	0.0000000E+000	0.0000000E+000	0.0000000E+000	-74.4463	0.0000000E+000	0.0000000E+000	0.0000000E+000	74.4463	0.278334	15.5537	-8.60551e-07
632.773	8.72751	37.119	38.1312	-76.7688	161.038	0.441148	-3.45079e-05	6.77605	6.42107	1	39	0.0050849	0.000133353	0	-0.000194249	0.00600246	0.0255291	0.0262252	76.7688	6421.07	1509.74	6596.17	-13.2312	0.0000000E+000	0.0000000E+000	0.0000000E+000	13.2312	0.0000000E+000	0.0000000E+000	0.0000000E+000	-13.2312	0.0000000E+000	0.0000000E+000	0.0000000E+000	-76.7688	0.0000000E+000	0.0000000E+000	0.0000000E+000	76.7688	0.235122	13.2312	-1.93354e-07
399.106	12.0331	56.4526	57.7208	-77.9672	162.411	0.441148	0.00036602	7.06395	6.75695	1	39	0.0048879	8.46817e-05	0	-0.000194117	0.00361172	0.0169441	0.0173248	77.9672	6756.95	1440.27	6908.75	-12.0328	0.0000000E+000	0.0000000E+000	0.0000000E+000	12.0328	0.0000000E+000	0.0000000E+000	0.0000000E+000	-12.0328	0.0000000E+000	0.0000000E+000	0.0000000E+000	-77.9672	0.0000000E+000	0.0000000E+000	0.0000000E+000	77.9672	0.213155	12.0328	8.77129e-08
251.853	16.6979	86.1063	87.7104	-79.0253	163.769	0.441158	-0.000211943	7.33901	7.07302	1	39	0.0048149	5.48955e-05	0	-0.000194163	0.0021705	0.0111926	0.0114012	79.0253	7073.02	1371.61	7204.79	-10.9747	0.0000000E+000	0.0000000E+000	0.0000000E+000	10.9747	0.0000000E+000	0.0000000E+000	0.0000000E+000	-10.9747	0.0000000E+000	0.0000000E+000	0.0000000E+000	-79.0253	0.0000000E+000	0.0000000E+000	0.0000000E+000	79.0253	0.193922	10.9747	-1.04988e-08
158.831	24.6752	129.906	132.229	-79.245	165.141	0.441121	4.6294e-06	7.71359	7.44498	1	39	0.0047662	3.60451e-05	0	-0.00019418	0.00141127	0.00742982	0.00756266	79.245	7444.98	1414.15	7578.1	-10.755	0.0000000E+000	0.0000000E+000	0.0000000E+000	10.755	0.0000000E+000	0.0000000E+000	0.0000000E+000	-10.755	0.0000000E+000	0.0000000E+000	0.0000000E+000	-79.245	0.0000000E+000	0.0000000E+000	0.0000000E+000	79.245	0.189947	10.755	-3.06258e-08
100.224	36.7558	195.582	199.005	-79.3565	166.501	0.441133	2.0285e-05	8.11929	7.84232	1	39	0.00476159	2.39269e-05	0	-0.000194156	0.000928102	0.00493853	0.00502499	79.3565	7842.32	1473.81	7979.61	-10.6435	0.0000000E+000	0.0000000E+000	0.0000000E+000	10.6435	0.0000000E+000	0.0000000E+000	0.0000000E+000	-10.6435	0.0000000E+000	0.0000000E+000	0.0000000E+000	-79.3565	0.0000000E+000	0.0000000E+000	0.0000000E+000	79.3565	0.187931	10.6435	7.86006e-09
63.2394	56.2803	297.298	302.578	-79.2804	168.142	0.44113	0.000263474	8.46527	8.17239	1	40	0.00478903	1.58274e-05	0	-0.000194027	0.000614725	0.00324726	0.00330493	79.2804	8172.39	1547.08	8317.54	-10.7196	0.0000000E+000	0.0000000E+000	0.0000000E+000	10.7196	0.0000000E+000	0.0000000E+000	0.0000000E+000	-10.7196	0.0000000E+000	0.0000000E+000	0.0000000E+000	-79.2804	0.0000000E+000	0.0000000E+000	0.0000000E+000	79.2804	0.189306	10.7196	5.59688e-08
39.8851	89.6988	450.517	459.36	-78.7395	169.507	0.441173	0.000188445	8.85724	8.51951	1	40	0.00477322	1.0391e-05	0	-0.000193946	0.00042509	0.00213504	0.00217694	78.7395	8519.51	1696.25	8686.73	-11.2605	0.0000000E+000	0.0000000E+000	0.0000000E+000	11.2605	0.0000000E+000	0.0000000E+000	0.0000000E+000	-11.2605	0.0000000E+000	0.0000000E+000	0.0000000E+000	-78.7395	0.0000000E+000	0.0000000E+000	0.0000000E+000	78.7395	0.199102	11.2605	3.17963e-08
25.1691	150.431	677.318	693.822	-77.478	170.839	0.441162	0.000159871	9.33597	8.8971	1	40	0.00478021	6.88967e-06	0	-0.000193861	0.000312493	0.00140701	0.00144129	77.478	8897.1	1976.03	9113.9	-12.522	0.0000000E+000	0.0000000E+000	0.0000000E+000	12.522	0.0000000E+000	0.0000000E+000	0.0000000E+000	-12.522	0.0000000E+000	0.0000000E+000	0.0000000E+000	-77.478	0.0000000E+000	0.0000000E+000	0.0000000E+000	77.478	0.222098	12.522	3.95206e-08
15.879	246.594	1004.92	1034.73	-76.2128	172.173	0.441125	0.000181888	9.97388	9.40742	1	40	0.00477596	4.61564e-06	0	-0.000193785	0.000230317	0.000938588	0.000966433	76.2128	9407.42	2308.46	9686.51	-13.7872	0.0000000E+000	0.0000000E+000	0.0000000E+000	13.7872	0.0000000E+000	0.0000000E+000	0.0000000E+000	-13.7872	0.0000000E+000	0.0000000E+000	0.0000000E+000	-76.2128	0.0000000E+000	0.0000000E+000	0.0000000E+000	76.2128	0.245387	13.7872	1.89054e-08
10.016	442.44	1487.96	1552.34	-73.4403	173.905	0.441092	0.000213933	10.6791	9.81158	1	41	0.00477945	3.07886e-06	0	-0.000193658	0.000183603	0.000617469	0.000644187	73.4403	9811.58	2917.45	10236.1	-16.5597	0.0000000E+000	0.0000000E+000	0.0000000E+000	16.5597	0.0000000E+000	0.0000000E+000	0.0000000E+000	-16.5597	0.0000000E+000	0.0000000E+000	0.0000000E+000	-73.4403	0.0000000E+000	0.0000000E+000	0.0000000E+000	73.4403	0.297347	16.5597	8.66947e-08
6.30621	781.532	2128.65	2267.59	-69.8394	205.122	0.441098	4.82276e-05	11.8562	10.4479	1	41	0.00500834	2.20866e-06	0	-0.000192992	0.000151991	0.000413977	0.000440997	69.8394	10447.9	3835.92	11129.8	-20.1606	0.0000000E+000	0.0000000E+000	0.0000000E+000	20.1606	0.0000000E+000	0.0000000E+000	0.0000000E+000	-20.1606	0.0000000E+000	0.0000000E+000	0.0000000E+000	-69.8394	0.0000000E+000	0.0000000E+000	0.0000000E+000	69.8394	0.367149	20.1606	0.000000000000000E+000
4.00395	1343.68	2987.48	3275.75	-65.7831	205.123	0.441098	4.82276e-05	13.3054	11.0666	1	41	0.00501237	1.53015e-06	0	-0.000192992	0.000125221	0.00027841	0.000305274	65.7831	11066.6	4977.47	12134.5	-24.2169	0.0000000E+000	0.0000000E+000	0.0000000E+000	24.2169	0.0000000E+000	0.0000000E+000	0.0000000E+000	-24.2169	0.0000000E+000	0.0000000E+000	0.0000000E+000	-65.7831	0.0000000E+000	0.0000000E+000	0.0000000E+000	65.7831	0.449772	24.2169	0.000000000000000E+000
2.50247	2364.43	4031.06	4673.33	-59.606	205.124	0.441098	4.82276e-05	15.7773	11.7387	1	41	0.0050033	1.07061e-06	0	-0.000192992	0.000108262	0.000184572	0.00021398	59.606	11738.7	6885.37	13609	-30.394	0.0000000E+000	0.0000000E+000	0.0000000E+000	30.394	0.0000000E+000	0.0000000E+000	0.0000000E+000	-30.394	0.0000000E+000	0.0000000E+000	0.0000000E+000	-59.606	0.0000000E+000	0.0000000E+000	0.0000000E+000	59.606	0.586555	30.394	0.000000000000000E+000
1.60158	3854.36	5007.38	6319.02	-52.4132	205.126	0.441098	4.82276e-05	19.8455	12.4619	1	41	0.00500538	7.92114e-07	0	-0.000192992	9.65281e-05	0.000125404	0.000158253	52.4132	12461.9	9592.37	15726.2	-37.5868	0.0000000E+000	0.0000000E+000	0.0000000E+000	37.5868	0.0000000E+000	0.0000000E+000	0.0000000E+000	-37.5868	0.0000000E+000	0.0000000E+000	0.0000000E+000	-52.4132	0.0000000E+000	0.0000000E+000	0.0000000E+000	52.4132	0.769737	37.5868	0.000000000000000E+000
1.00099	5596.11	5864.24	8105.91	-46.3402	205.127	0.441098	4.82276e-05	27.1132	14.1906	1	41	0.00500448	6.17387e-07	0	-0.000192992	8.51693e-05	8.925e-05	0.000123367	46.3402	14190.6	13541.8	19615.1	-43.6598	0.0000000E+000	0.0000000E+000	0.0000000E+000	43.6598	0.0000000E+000	0.0000000E+000	0.0000000E+000	-43.6598	0.0000000E+000	0.0000000E+000	0.0000000E+000	-46.3402	0.0000000E+000	0.0000000E+000	0.0000000E+000	46.3402	0.954278	43.6598	0.000000000000000E+000
0.600592	8456.01	5952.38	10340.9	-35.1426	205.129	0.441098	4.82276e-05	44.5195	14.7507	1	41	0.00500748	4.84238e-07	0	-0.000192992	7.90762e-05	5.56635e-05	9.6703e-05	35.1426	14750.7	20954.9	25626	-54.8574	0.0000000E+000	0.0000000E+000	0.0000000E+000	54.8574	0.0000000E+000	0.0000000E+000	0.0000000E+000	-54.8574	0.0000000E+000	0.0000000E+000	0.0000000E+000	-35.1426	0.0000000E+000	0.0000000E+000	0.0000000E+000	35.1426	1.42061	54.8574	0.000000000000000E+000
0.400395	10341.8	6067.95	11990.5	-30.4019	205.13	0.441098	4.82276e-05	65.5073	16.7764	1	41	0.00499916	4.16926e-07	0	-0.000192992	7.19316e-05	4.22052e-05	8.33992e-05	30.4019	16776.4	28592.5	33150.8	-59.5981	0.0000000E+000	0.0000000E+000	0.0000000E+000	59.5981	0.0000000E+000	0.0000000E+000	0.0000000E+000	-59.5981	0.0000000E+000	0.0000000E+000	0.0000000E+000	-30.4019	0.0000000E+000	0.0000000E+000	0.0000000E+000	30.4019	1.70433	59.5981	0.000000000000000E+000
0.200197	12753.5	4987.22	13693.9	-21.3579	205.132	0.441098	4.82276e-05	159.406	21.1429	1	41	0.00500406	3.65422e-07	0	-0.000192992	6.80099e-05	2.65951e-05	7.3025e-05	21.3579	21142.9	54067.3	58054.2	-68.6422	0.0000000E+000	0.0000000E+000	0.0000000E+000	68.6422	0.0000000E+000	0.0000000E+000	0.0000000E+000	-68.6422	0.0000000E+000	0.0000000E+000	0.0000000E+000	-21.3579	0.0000000E+000	0.0000000E+000	0.0000000E+000	21.3579	2.55723	68.6422	3.75646e-11
399996	3.15168	1.2363	3.38549	-21.4184	207.562	0.44122	-0.0135161	0.32184	0.0429186	2	38	0.0046411	0.00137088	0	-0.000196304	0.274979	0.107865	0.295379	21.4184	42.9186	109.412	117.528	-68.5816	0.0000000E+000	0.0000000E+000	0.0000000E+000	68.5816	0.0000000E+000	0.0000000E+000	0.0000000E+000	-68.5816	0.0000000E+000	0.0000000E+000	0.0000000E+000	-21.4184	0.0000000E+000	0.0000000E+000	0.0000000E+000	21.4184	2.54928	68.5816	-3.3122e-06
252347	3.15675	0.267984	3.16811	-4.85233	209.101	0.441236	-0.0473129	2.35349	0.0168395	2	37	0.00513965	0.00162231	0	-0.000210089	0.314515	0.0266998	0.315646	4.85233	16.8395	198.364	199.077	-85.1477	0.0000000E+000	0.0000000E+000	0.0000000E+000	85.1477	0.0000000E+000	0.0000000E+000	0.0000000E+000	-85.1477	0.0000000E+000	0.0000000E+000	0.0000000E+000	-4.85233	0.0000000E+000	0.0000000E+000	0.0000000E+000	4.85233	11.7796	85.1477	-6.55981e-06
159201	3.03345	0.320388	3.05032	-6.02914	210.203	0.441243	-0.0390123	3.12032	0.0344239	2	37	0.00519348	0.0017026	0	-0.000215003	0.326021	0.0344338	0.327834	6.02914	34.4239	325.927	327.74	-83.9709	0.0000000E+000	0.0000000E+000	0.0000000E+000	83.9709	0.0000000E+000	0.0000000E+000	0.0000000E+000	-83.9709	0.0000000E+000	0.0000000E+000	0.0000000E+000	-6.02914	0.0000000E+000	0.0000000E+000	0.0000000E+000	6.02914	9.46805	83.9709	-2.03923e-06
100431	3.0243	0.449002	3.05745	-8.44472	211.306	0.441255	-0.0393845	3.52944	0.0761175	2	37	0.00517999	0.00169422	0	-0.000222104	0.323524	0.0480319	0.32707	8.44472	76.1175	512.697	518.317	-81.5553	0.0000000E+000	0.0000000E+000	0.0000000E+000	81.5553	0.0000000E+000	0.0000000E+000	0.0000000E+000	-81.5553	0.0000000E+000	0.0000000E+000	0.0000000E+000	-8.44472	0.0000000E+000	0.0000000E+000	0.0000000E+000	8.44472	6.73561	81.5553	-3.4522e-06
63362.9	3.05005	0.644101	3.11732	-11.9244	212.409	0.441235	-0.0423437	3.8997	0.166485	2	37	0.00518883	0.00166452	0	-0.000232563	0.313866	0.0662813	0.320788	11.9244	166.485	788.369	805.756	-78.0757	0.0000000E+000	0.0000000E+000	0.0000000E+000	78.0757	0.0000000E+000	0.0000000E+000	0.0000000E+000	-78.0757	0.0000000E+000	0.0000000E+000	0.0000000E+000	-11.9244	0.0000000E+000	0.0000000E+000	0.0000000E+000	11.9244	4.73536	78.0757	-3.49207e-06
39971.8	3.13167	0.952997	3.27346	-16.9255	213.512	0.441237	-0.0343409	4.17806	0.354114	2	37	0.00523552	0.00159938	0	-0.00024716	0.292254	0.0889358	0.305487	16.9255	354.114	1163.66	1216.35	-73.0745	0.0000000E+000	0.0000000E+000	0.0000000E+000	73.0745	0.0000000E+000	0.0000000E+000	0.0000000E+000	-73.0745	0.0000000E+000	0.0000000E+000	0.0000000E+000	-16.9255	0.0000000E+000	0.0000000E+000	0.0000000E+000	16.9255	3.28613	73.0745	-8.26823e-06
25219	3.21533	1.40734	3.50984	-23.6389	214.614	0.441222	-0.0359228	4.48428	0.720972	2	37	0.00521056	0.00148456	0	-0.000257413	0.261006	0.114242	0.284913	23.6389	720.972	1647.19	1798.06	-66.3611	0.0000000E+000	0.0000000E+000	0.0000000E+000	66.3611	0.0000000E+000	0.0000000E+000	0.0000000E+000	-66.3611	0.0000000E+000	0.0000000E+000	0.0000000E+000	-23.6389	0.0000000E+000	0.0000000E+000	0.0000000E+000	23.6389	2.28468	66.3611	-5.79599e-06
15912.6	3.33645	2.09119	3.93763	-32.0783	215.716	0.441255	-0.0359786	4.78282	1.34897	2	37	0.00508103	0.00129038	0	-0.000268405	0.215186	0.134872	0.25396	32.0783	1348.97	2152.25	2540.05	-57.9217	0.0000000E+000	0.0000000E+000	0.0000000E+000	57.9217	0.0000000E+000	0.0000000E+000	0.0000000E+000	-57.9217	0.0000000E+000	0.0000000E+000	0.0000000E+000	-32.0783	0.0000000E+000	0.0000000E+000	0.0000000E+000	32.0783	1.59548	57.9217	-5.03195e-06
10039.3	3.53872	3.15318	4.73974	-41.7027	217.119	0.441254	-0.00325867	5.02766	2.22513	2	38	0.00482725	0.00101846	0	-0.000276257	0.157521	0.140359	0.210982	41.7027	2225.13	2497.2	3344.72	-48.2973	0.0000000E+000	0.0000000E+000	0.0000000E+000	48.2973	0.0000000E+000	0.0000000E+000	0.0000000E+000	-48.2973	0.0000000E+000	0.0000000E+000	0.0000000E+000	-41.7027	0.0000000E+000	0.0000000E+000	0.0000000E+000	41.7027	1.12227	48.2973	-1.17624e-06
6332.63	3.79726	4.75755	6.08715	-51.4047	218.507	0.44112	-0.00396621	5.28267	3.22694	2	38	0.00512983	0.000842731	0	-0.000279093	0.102481	0.128397	0.16428	51.4047	3226.94	2575.6	4128.78	-38.5953	0.0000000E+000	0.0000000E+000	0.0000000E+000	38.5953	0.0000000E+000	0.0000000E+000	0.0000000E+000	-38.5953	0.0000000E+000	0.0000000E+000	0.0000000E+000	-51.4047	0.0000000E+000	0.0000000E+000	0.0000000E+000	51.4047	0.798155	38.5953	-1.69825e-06
3993.72	4.12238	7.14592	8.24974	-60.02	219.874	0.441135	-0.0040109	5.57679	4.18428	2	38	0.00500589	0.000606794	0	-0.000281469	0.0605714	0.104997	0.121216	60.02	4184.28	2413.85	4830.62	-29.98	0.0000000E+000	0.0000000E+000	0.0000000E+000	29.98	0.0000000E+000	0.0000000E+000	0.0000000E+000	-29.98	0.0000000E+000	0.0000000E+000	0.0000000E+000	-60.02	0.0000000E+000	0.0000000E+000	0.0000000E+000	60.02	0.576885	29.98	-9.0981e-07
2519.19	4.61612	10.8518	11.7928	-66.9562	221.241	0.441138	-0.00308925	5.8218	4.92977	2	38	0.00457714	0.00038813	0	-0.000282612	0.0331927	0.0780311	0.0847975	66.9562	4929.77	2097.02	5357.25	-23.0438	0.0000000E+000	0.0000000E+000	0.0000000E+000	23.0438	0.0000000E+000	0.0000000E+000	0.0000000E+000	-23.0438	0.0000000E+000	0.0000000E+000	0.0000000E+000	-66.9562	0.0000000E+000	0.0000000E+000	0.0000000E+000	66.9562	0.425378	23.0438	-5.68694e-07
1589.49	5.44844	16.4353	17.3148	-71.6592	222.829	0.441109	-0.00214525	6.09235	5.48911	2	38	0.00481776	0.000278244	0	-0.000284495	0.0181734	0.0548201	0.0577539	71.6592	5489.11	1819.69	5782.87	-18.3408	0.0000000E+000	0.0000000E+000	0.0000000E+000	18.3408	0.0000000E+000	0.0000000E+000	0.0000000E+000	-18.3408	0.0000000E+000	0.0000000E+000	0.0000000E+000	-71.6592	0.0000000E+000	0.0000000E+000	0.0000000E+000	71.6592	0.331509	18.3408	-8.27883e-07
1002.75	6.83332	24.7555	25.6813	-74.5688	224.199	0.441124	-0.00283976	6.41142	5.9575	2	38	0.00468613	0.000182472	0	-0.000285945	0.0103609	0.0375351	0.0389388	74.5688	5957.5	1644.46	6180.3	-15.4312	0.0000000E+000	0.0000000E+000	0.0000000E+000	15.4312	0.0000000E+000	0.0000000E+000	0.0000000E+000	-15.4312	0.0000000E+000	0.0000000E+000	0.0000000E+000	-74.5688	0.0000000E+000	0.0000000E+000	0.0000000E+000	74.5688	0.276032	15.4312	-7.31073e-07
632.773	8.6777	37.8856	38.8667	-77.0989	225.819	0.441151	-0.000111483	6.63893	6.30799	2	39	0.00491728	0.000126517	0	-0.000286245	0.00574445	0.0250795	0.0257289	77.0989	6307.99	1444.84	6471.34	-12.9011	0.0000000E+000	0.0000000E+000	0.0000000E+000	12.9011	0.0000000E+000	0.0000000E+000	0.0000000E+000	-12.9011	0.0000000E+000	0.0000000E+000	0.0000000E+000	-77.0989	0.0000000E+000	0.0000000E+000	0.0000000E+000	77.0989	0.22905	12.9011	-1.45635e-07
399.106	11.859	57.6814	58.8879	-78.3822	227.191	0.441132	-0.000355268	6.91346	6.63309	2	39	0.0047406	8.05022e-05	0	-0.00028619	0.00341976	0.0166335	0.0169814	78.3822	6633.09	1363.73	6771.83	-11.6178	0.0000000E+000	0.0000000E+000	0.0000000E+000	11.6178	0.0000000E+000	0.0000000E+000	0.0000000E+000	-11.6178	0.0000000E+000	0.0000000E+000	0.0000000E+000	-78.3822	0.0000000E+000	0.0000000E+000	0.0000000E+000	78.3822	0.205595	11.6178	3.04304e-08
251.853	16.1402	87.2674	88.7474	-79.5215	228.549	0.44113	5.5325e-05	7.24136	7.00185	2	39	0.00465144	5.24121e-05	0	-0.000286354	0.00204927	0.01108	0.0112679	79.5215	7001.85	1295	7120.6	-10.4785	0.0000000E+000	0.0000000E+000	0.0000000E+000	10.4785	0.0000000E+000	0.0000000E+000	0.0000000E+000	-10.4785	0.0000000E+000	0.0000000E+000	0.0000000E+000	-79.5215	0.0000000E+000	0.0000000E+000	0.0000000E+000	79.5215	0.184951	10.4785	-9.70852e-08
158.831	24.2622	132.87	135.067	-79.6517	229.921	0.44111	-0.00010608	7.54152	7.29818	2	39	0.00461099	3.41385e-05	0	-0.000286498	0.00132994	0.00728331	0.00740374	79.6517	7298.18	1332.66	7418.85	-10.3483	0.0000000E+000	0.0000000E+000	0.0000000E+000	10.3483	0.0000000E+000	0.0000000E+000	0.0000000E+000	-10.3483	0.0000000E+000	0.0000000E+000	0.0000000E+000	-79.6517	0.0000000E+000	0.0000000E+000	0.0000000E+000	79.6517	0.182602	10.3483	-1.14003e-07
100.224	36.4371	200.398	203.684	-79.6949	231.283	0.44113	-0.000184546	7.92414	7.67056	2	39	0.00459613	2.2565e-05	0	-0.000286527	0.000878275	0.00483037	0.00490957	79.6949	7670.56	1394.69	7796.32	-10.3051	0.0000000E+000	0.0000000E+000	0.0000000E+000	10.3051	0.0000000E+000	0.0000000E+000	0.0000000E+000	-10.3051	0.0000000E+000	0.0000000E+000	0.0000000E+000	-79.6949	0.0000000E+000	0.0000000E+000	0.0000000E+000	79.6949	0.181823	10.3051	-2.97003e-08
63.2394	58.7598	303.746	309.377	-79.0514	232.924	0.441122	2.25358e-05	8.28556	7.98667	2	40	0.00463412	1.49789e-05	0	-0.000286517	0.000613907	0.00317346	0.0032323	79.0514	7986.67	1545.02	8134.74	-10.9486	0.0000000E+000	0.0000000E+000	0.0000000E+000	10.9486	0.0000000E+000	0.0000000E+000	0.0000000E+000	-10.9486	0.0000000E+000	0.0000000E+000	0.0000000E+000	-79.0514	0.0000000E+000	0.0000000E+000	0.0000000E+000	79.0514	0.19345	10.9486	3.05138e-09
39.8851	92.2907	455.306	464.566	-78.5414	234.288	0.441113	-1.47436e-06	8.76406	8.41818	2	40	0.00457701	9.85223e-06	0	-0.000286515	0.000427625	0.00210964	0.00215255	78.5414	8418.18	1706.37	8589.38	-11.4586	0.0000000E+000	0.0000000E+000	0.0000000E+000	11.4586	0.0000000E+000	0.0000000E+000	0.0000000E+000	-11.4586	0.0000000E+000	0.0000000E+000	0.0000000E+000	-78.5414	0.0000000E+000	0.0000000E+000	0.0000000E+000	78.5414	0.2027	11.4586	-1.034e-08
25.1691	148.476	688.985	704.801	-77.8388	235.621	0.441141	-5.24479e-07	9.17789	8.77058	2	40	0.00460728	6.53698e-06	0	-0.000286516	0.000298898	0.001387	0.00141884	77.8388	8770.58	1890.06	8971.92	-12.1612	0.0000000E+000	0.0000000E+000	0.0000000E+000	12.1612	0.0000000E+000	0.0000000E+000	0.0000000E+000	-12.1612	0.0000000E+000	0.0000000E+000	0.0000000E+000	-77.8388	0.0000000E+000	0.0000000E+000	0.0000000E+000	77.8388	0.2155	12.1613	-2.14552e-09
15.879	258.79	1023.42	1055.63	-75.8092	236.954	0.441133	-2.73286e-05	9.79362	9.20503	2	40	0.00459526	4.3531e-06	0	-0.000286509	0.000232234	0.000918395	0.000947302	75.8092	9205.03	2327.66	9494.77	-14.1908	0.0000000E+000	0.0000000E+000	0.0000000E+000	14.1908	0.0000000E+000	0.0000000E+000	0.0000000E+000	-14.1908	0.0000000E+000	0.0000000E+000	0.0000000E+000	-75.8092	0.0000000E+000	0.0000000E+000	0.0000000E+000	75.8092	0.252869	14.1908	-1.07726e-08
10.016	447.263	1499.89	1565.15	-73.3956	238.724	0.441082	1.08437e-05	10.5941	9.72901	2	41	0.00457999	2.92622e-06	0	-0.000286463	0.000182578	0.000612272	0.000638914	73.3956	9729.01	2901.16	10152.4	-16.6044	0.0000000E+000	0.0000000E+000	0.0000000E+000	16.6044	0.0000000E+000	0.0000000E+000	0.0000000E+000	-16.6044	0.0000000E+000	0.0000000E+000	0.0000000E+000	-73.3956	0.0000000E+000	0.0000000E+000	0.0000000E+000	73.3956	0.298197	16.6044	1.52652e-08
6.30621	796.117	2161.38	2303.33	-69.7793	269.941	0.441096	1.26999e-05	11.6767	10.2818	2	41	0.0050113	2.17567e-06	0	-0.000286538	0.000150059	0.000407396	0.000434153	69.7793	10281.8	3787.17	10957.1	-20.2207	0.0000000E+000	0.0000000E+000	0.0000000E+000	20.2207	0.0000000E+000	0.0000000E+000	0.0000000E+000	-20.2207	0.0000000E+000	0.0000000E+000	0.0000000E+000	-69.7793	0.0000000E+000	0.0000000E+000	0.0000000E+000	69.7793	0.368338	20.2207	0.000000000000000E+000
4.00395	1371.66	3025.59	3322	-65.6126	269.942	0.441096	1.26999e-05	13.1378	10.8979	2	41	0.00501359	1.50921e-06	0	-0.000286538	0.000124294	0.000274165	0.000301024	65.6126	10897.9	4940.62	11965.5	-24.3874	0.0000000E+000	0.0000000E+000	0.0000000E+000	24.3874	0.0000000E+000	0.0000000E+000	0.0000000E+000	-24.3874	0.0000000E+000	0.0000000E+000	0.0000000E+000	-65.6126	0.0000000E+000	0.0000000E+000	0.0000000E+000	65.6126	0.453354	24.3874	0.000000000000000E+000
2.50247	2412.42	4075.49	4735.96	-59.3773	269.943	0.441096	1.26999e-05	15.6053	11.5562	2	41	0.00500437	1.05667e-06	0	-0.000286538	0.000107556	0.000181703	0.00021115	59.3773	11556.2	6840.49	13429	-30.6227	0.0000000E+000	0.0000000E+000	0.0000000E+000	30.6227	0.0000000E+000	0.0000000E+000	0.0000000E+000	-30.6227	0.0000000E+000	0.0000000E+000	0.0000000E+000	-59.3773	0.0000000E+000	0.0000000E+000	0.0000000E+000	59.3773	0.591933	30.6227	0.000000000000000E+000
1.60158	3911.69	5060.82	6396.34	-52.2982	269.944	0.441096	1.26999e-05	19.6359	12.2922	2	41	0.00500765	7.82893e-07	0	-0.000286538	9.56095e-05	0.000123696	0.000156339	52.2982	12292.2	9501.08	15536	-37.7018	0.0000000E+000	0.0000000E+000	0.0000000E+000	37.7018	0.0000000E+000	0.0000000E+000	0.0000000E+000	-37.7018	0.0000000E+000	0.0000000E+000	0.0000000E+000	-52.2982	0.0000000E+000	0.0000000E+000	0.0000000E+000	52.2982	0.772937	37.7018	0.000000000000000E+000
1.00099	5708.14	5884.41	8198.12	-45.8711	269.946	0.441096	1.26999e-05	27.0202	13.9209	2	41	0.00500589	6.10614e-07	0	-0.000286538	8.49311e-05	8.75537e-05	0.000121979	45.8711	13920.9	13503.9	19394.5	-44.1289	0.0000000E+000	0.0000000E+000	0.0000000E+000	44.1289	0.0000000E+000	0.0000000E+000	0.0000000E+000	-44.1289	0.0000000E+000	0.0000000E+000	0.0000000E+000	-45.8711	0.0000000E+000	0.0000000E+000	0.0000000E+000	45.8711	0.970045	44.1289	0.000000000000000E+000
0.600592	8493.37	5966.69	10379.7	-35.0885	269.947	0.441096	1.26999e-05	44.4127	14.6758	2	41	0.00500892	4.82568e-07	0	-0.000286538	7.8833e-05	5.53811e-05	9.63416e-05	35.0885	14675.8	20890.5	25530.2	-54.9115	0.0000000E+000	0.0000000E+000	0.0000000E+000	54.9115	0.0000000E+000	0.0000000E+000	0.0000000E+000	-54.9115	0.0000000E+000	0.0000000E+000	0.0000000E+000	-35.0885	0.0000000E+000	0.0000000E+000	0.0000000E+000	35.0885	1.42346	54.9115	0.000000000000000E+000
0.400395	10487.7	5948.68	12057.3	-29.5622	269.948	0.441096	1.26999e-05	66.8208	16.2649	2	41	0.00500012	4.14697e-07	0	-0.000286538	7.21407e-05	4.09186e-05	8.29374e-05	29.5622	16264.9	28675.6	32967.2	-60.4378	0.0000000E+000	0.0000000E+000	0.0000000E+000	60.4378	0.0000000E+000	0.0000000E+000	0.0000000E+000	-60.4378	0.0000000E+000	0.0000000E+000	0.0000000E+000	-29.5622	0.0000000E+000	0.0000000E+000	0.0000000E+000	29.5622	1.76303	60.4378	0.000000000000000E+000
0.200197	13124	4811.84	13978.3	-20.1351	269.95	0.441096	1.26999e-05	165.215	19.5777	2	41	0.00500575	3.58107e-07	0	-0.000286538	6.7167e-05	2.46263e-05	7.15392e-05	20.1351	19577.7	53397.1	56873	-69.8649	0.0000000E+000	0.0000000E+000	0.0000000E+000	69.8649	0.0000000E+000	0.0000000E+000	0.0000000E+000	-69.8649	0.0000000E+000	0.0000000E+000	0.0000000E+000	-20.1351	0.0000000E+000	0.0000000E+000	0.0000000E+000	20.1351	2.72744	69.8649	3.46618e-11
399996	3.14488	1.26717	3.39058	-21.946	272.227	0.441271	-0.0115313	0.314	0.0438583	3	38	0.00466963	0.00137724	0	-0.000288826	0.273563	0.110227	0.294935	21.946	43.8583	108.848	117.352	-68.054	0.0000000E+000	0.0000000E+000	0.0000000E+000	68.054	0.0000000E+000	0.0000000E+000	0.0000000E+000	-68.054	0.0000000E+000	0.0000000E+000	0.0000000E+000	-21.946	0.0000000E+000	0.0000000E+000	0.0000000E+000	21.946	2.48182	68.054	-2.28789e-06
252347	3.15178	0.267019	3.16307	-4.84254	273.765	0.441276	-0.0304883	2.362	0.0168324	3	37	0.00513594	0.00162372	0	-0.000301757	0.31502	0.0266886	0.316149	4.84254	16.8324	198.683	199.394	-85.1575	0.0000000E+000	0.0000000E+000	0.0000000E+000	85.1575	0.0000000E+000	0.0000000E+000	0.0000000E+000	-85.1575	0.0000000E+000	0.0000000E+000	0.0000000E+000	-4.84254	0.0000000E+000	0.0000000E+000	0.0000000E+000	4.84254	11.8036	85.1575	-5.91464e-06
159201	3.05385	0.332364	3.07188	-6.21131	274.868	0.441274	-0.0335592	3.00789	0.0352112	3	37	0.00521441	0.00169746	0	-0.000311772	0.323622	0.0352213	0.325533	6.21131	35.2112	323.53	325.44	-83.7887	0.0000000E+000	0.0000000E+000	0.0000000E+000	83.7887	0.0000000E+000	0.0000000E+000	0.0000000E+000	-83.7887	0.0000000E+000	0.0000000E+000	0.0000000E+000	-6.21131	0.0000000E+000	0.0000000E+000	0.0000000E+000	6.21131	9.18826	83.7887	-4.78212e-06
100431	3.01686	0.445956	3.04964	-8.40864	275.971	0.441254	-0.0288505	3.55355	0.0759887	3	37	0.00517942	0.00169837	0	-0.000318543	0.324383	0.0479507	0.327908	8.40864	75.9888	514.058	519.644	-81.5914	0.0000000E+000	0.0000000E+000	0.0000000E+000	81.5914	0.0000000E+000	0.0000000E+000	0.0000000E+000	-81.5914	0.0000000E+000	0.0000000E+000	0.0000000E+000	-8.40864	0.0000000E+000	0.0000000E+000	0.0000000E+000	8.40864	6.76492	81.5914	-3.45788e-06
63362.9	3.05111	0.668781	3.12355	-12.3633	277.074	0.441271	-0.0293717	3.75579	0.172176	3	37	0.00517375	0.00165637	0	-0.000327359	0.312725	0.0685469	0.320149	12.3633	172.176	785.501	804.15	-77.6367	0.0000000E+000	0.0000000E+000	0.0000000E+000	77.6367	0.0000000E+000	0.0000000E+000	0.0000000E+000	-77.6367	0.0000000E+000	0.0000000E+000	0.0000000E+000	-12.3633	0.0000000E+000	0.0000000E+000	0.0000000E+000	12.3633	4.5622	77.6367	-4.62746e-06
39971.8	3.12418	0.945203	3.26403	-16.8329	278.176	0.441217	-0.02792	4.21251	0.353251	3	37	0.00521545	0.00159786	0	-0.000331848	0.293243	0.0887191	0.30637	16.8329	353.251	1167.6	1219.87	-73.1671	0.0000000E+000	0.0000000E+000	0.0000000E+000	73.1671	0.0000000E+000	0.0000000E+000	0.0000000E+000	-73.1671	0.0000000E+000	0.0000000E+000	0.0000000E+000	-16.8329	0.0000000E+000	0.0000000E+000	0.0000000E+000	16.8329	3.3053	73.1671	-2.18015e-06
25219	3.19336	1.40763	3.48984	-23.7878	279.278	0.441249	-0.028013	4.48337	0.729407	3	37	0.00512454	0.00146842	0	-0.000339257	0.262203	0.115579	0.286546	23.7878	729.407	1654.74	1808.37	-66.2122	0.0000000E+000	0.0000000E+000	0.0000000E+000	66.2122	0.0000000E+000	0.0000000E+000	0.0000000E+000	-66.2122	0.0000000E+000	0.0000000E+000	0.0000000E+000	-23.7878	0.0000000E+000	0.0000000E+000	0.0000000E+000	23.7878	2.26861	66.2122	-4.06549e-06
15912.6	3.32812	2.09352	3.93182	-32.1716	280.38	0.441242	-0.0304139	4.77749	1.35447	3	37	0.00519312	0.00132079	0	-0.000348312	0.215284	0.135422	0.254335	32.1716	1354.47	2153.23	2543.81	-57.8284	0.0000000E+000	0.0000000E+000	0.0000000E+000	57.8284	0.0000000E+000	0.0000000E+000	0.0000000E+000	-57.8284	0.0000000E+000	0.0000000E+000	0.0000000E+000	-32.1716	0.0000000E+000	0.0000000E+000	0.0000000E+000	32.1716	1.58972	57.8284	-6.75925e-06
10039.3	3.52565	3.16846	4.74019	-41.9456	281.648	0.441237	-0.00238542	5.00341	2.23549	3	38	0.00494305	0.0010428	0	-0.000349918	0.156909	0.141012	0.210962	41.9456	2235.49	2487.5	3344.41	-48.0544	0.0000000E+000	0.0000000E+000	0.0000000E+000	48.0544	0.0000000E+000	0.0000000E+000	0.0000000E+000	-48.0544	0.0000000E+000	0.0000000E+000	0.0000000E+000	-41.9456	0.0000000E+000	0.0000000E+000	0.0000000E+000	41.9456	1.11273	48.0544	9.12754e-07
6332.63	3.79095	4.75787	6.08347	-51.453	283.036	0.441148	-0.00313578	5.28231	3.23106	3	38	0.00511806	0.000841305	0	-0.000352197	0.102434	0.128561	0.16438	51.453	3231.06	2574.43	4131.28	-38.547	0.0000000E+000	0.0000000E+000	0.0000000E+000	38.547	0.0000000E+000	0.0000000E+000	0.0000000E+000	-38.547	0.0000000E+000	0.0000000E+000	0.0000000E+000	-51.453	0.0000000E+000	0.0000000E+000	0.0000000E+000	51.453	0.796776	38.547	3.66717e-07
3993.72	4.15724	7.20809	8.321	-60.026	284.401	0.441112	-0.00338715	5.5287	4.14869	3	38	0.00502729	0.000604169	0	-0.000354279	0.0600417	0.104104	0.120178	60.026	4148.69	2392.74	4789.24	-29.974	0.0000000E+000	0.0000000E+000	0.0000000E+000	29.974	0.0000000E+000	0.0000000E+000	0.0000000E+000	-29.974	0.0000000E+000	0.0000000E+000	0.0000000E+000	-60.026	0.0000000E+000	0.0000000E+000	0.0000000E+000	60.026	0.576746	29.974	-8.80248e-07
2519.19	4.73033	10.8646	11.8497	-66.4721	285.769	0.441099	-0.0024264	5.81496	4.88831	3	38	0.00457371	0.000385978	0	-0.000354588	0.0336883	0.0773748	0.0843905	66.4721	4888.31	2128.33	5331.54	-23.5279	0.0000000E+000	0.0000000E+000	0.0000000E+000	23.5279	0.0000000E+000	0.0000000E+000	0.0000000E+000	-23.5279	0.0000000E+000	0.0000000E+000	0.0000000E+000	-66.4721	0.0000000E+000	0.0000000E+000	0.0000000E+000	66.4721	0.435391	23.5279	-1.86668e-07
1589.49	5.47636	16.423	17.312	-71.5587	287.357	0.441088	-0.00265542	6.09691	5.48681	3	38	0.00479332	0.000276879	0	-0.000355622	0.0182725	0.0547972	0.0577635	71.5587	5486.81	1829.62	5783.82	-18.4413	0.0000000E+000	0.0000000E+000	0.0000000E+000	18.4413	0.0000000E+000	0.0000000E+000	0.0000000E+000	-18.4413	0.0000000E+000	0.0000000E+000	0.0000000E+000	-71.5587	0.0000000E+000	0.0000000E+000	0.0000000E+000	71.5587	0.333457	18.4413	-6.70069e-07
1002.75	6.81477	24.9972	25.9095	-74.7505	288.727	0.441144	-0.00137628	6.34944	5.91018	3	38	0.00469185	0.000181086	0	-0.000356478	0.0101516	0.0372369	0.0385959	74.7505	5910.18	1611.24	6125.88	-15.2495	0.0000000E+000	0.0000000E+000	0.0000000E+000	15.2495	0.0000000E+000	0.0000000E+000	0.0000000E+000	-15.2495	0.0000000E+000	0.0000000E+000	0.0000000E+000	-74.7505	0.0000000E+000	0.0000000E+000	0.0000000E+000	74.7505	0.272621	15.2495	-4.18216e-07
632.773	8.74203	38.1621	39.1506	-77.0975	290.346	0.441123	-9.17265e-05	6.59084	6.26222	3	39	0.00491714	0.000125596	0	-0.00035677	0.00570343	0.0248975	0.0255424	77.0975	6262.22	1434.53	6424.43	-12.9025	0.0000000E+000	0.0000000E+000	0.0000000E+000	12.9025	0.0000000E+000	0.0000000E+000	0.0000000E+000	-12.9025	0.0000000E+000	0.0000000E+000	0.0000000E+000	-77.0975	0.0000000E+000	0.0000000E+000	0.0000000E+000	77.0975	0.229076	12.9025	-1.33667e-07
399.106	12.0416	57.9305	59.1687	-78.2575	291.718	0.441142	-0.00017914	6.88375	6.59864	3	39	0.00472201	7.98058e-05	0	-0.000356687	0.00343955	0.0165471	0.0169008	78.2575	6598.64	1371.62	6739.69	-11.7425	0.0000000E+000	0.0000000E+000	0.0000000E+000	11.7425	0.0000000E+000	0.0000000E+000	0.0000000E+000	-11.7425	0.0000000E+000	0.0000000E+000	0.0000000E+000	-78.2575	0.0000000E+000	0.0000000E+000	0.0000000E+000	78.2575	0.207864	11.7425	4.09546e-08
251.853	16.5657	87.9148	89.462	-79.329	293.08	0.441137	5.2902e-05	7.18803	6.94157	3	39	0.00465296	5.20105e-05	0	-0.000356623	0.00206982	0.0109846	0.0111779	79.329	6941.57	1307.99	7063.73	-10.671	0.0000000E+000	0.0000000E+000	0.0000000E+000	10.671	0.0000000E+000	0.0000000E+000	0.0000000E+000	-10.671	0.0000000E+000	0.0000000E+000	0.0000000E+000	-79.329	0.0000000E+000	0.0000000E+000	0.0000000E+000	79.329	0.188429	10.6711	9.27419e-10
158.831	24.1377	133.757	135.918	-79.7706	294.452	0.441157	-0.000154166	7.49149	7.25522	3	39	0.00461433	3.39494e-05	0	-0.000356575	0.0013066	0.00724044	0.00735739	79.7706	7255.22	1309.27	7372.41	-10.2294	0.0000000E+000	0.0000000E+000	0.0000000E+000	10.2294	0.0000000E+000	0.0000000E+000	0.0000000E+000	-10.2294	0.0000000E+000	0.0000000E+000	0.0000000E+000	-79.7706	0.0000000E+000	0.0000000E+000	0.0000000E+000	79.7706	0.180459	10.2294	-2.3254e-08
100.224	36.3098	203.315	206.532	-79.8743	295.811	0.44115	-0.000195356	7.81048	7.56907	3	39	0.00460957	2.2319e-05	0	-0.000356596	0.000851238	0.00476646	0.00484188	79.8743	7569.07	1351.75	7688.83	-10.1257	0.0000000E+000	0.0000000E+000	0.0000000E+000	10.1257	0.0000000E+000	0.0000000E+000	0.0000000E+000	-10.1257	0.0000000E+000	0.0000000E+000	0.0000000E+000	-79.8743	0.0000000E+000	0.0000000E+000	0.0000000E+000	79.8743	0.178589	10.1257	-1.00699e-08
63.2394	58.3985	306.4	311.915	-79.2091	297.452	0.441138	4.97062e-06	8.2138	7.92587	3	40	0.00463739	1.48675e-05	0	-0.00035662	0.000600244	0.00314931	0.003206	79.2091	7925.88	1510.64	8068.55	-10.7909	0.0000000E+000	0.0000000E+000	0.0000000E+000	10.7909	0.0000000E+000	0.0000000E+000	0.0000000E+000	-10.7909	0.0000000E+000	0.0000000E+000	0.0000000E+000	-79.2091	0.0000000E+000	0.0000000E+000	0.0000000E+000	79.2091	0.190596	10.7909	-7.28978e-09
39.8851	89.0216	465.031	473.475	-79.1629	298.817	0.441137	4.82151e-06	8.5808	8.27746	3	40	0.00464393	9.80818e-06	0	-0.000356609	0.000397102	0.00207438	0.00211205	79.1629	8277.46	1584.57	8427.77	-10.8371	0.0000000E+000	0.0000000E+000	0.0000000E+000	10.8371	0.0000000E+000	0.0000000E+000	0.0000000E+000	-10.8371	0.0000000E+000	0.0000000E+000	0.0000000E+000	-79.1629	0.0000000E+000	0.0000000E+000	0.0000000E+000	79.1629	0.191432	10.8371	-1.79743e-10
25.1691	152.848	696.963	713.526	-77.6306	300.149	0.441164	-2.54286e-05	9.07283	8.6565	3	40	0.00461498	6.46785e-06	0	-0.000356635	0.00030022	0.00136896	0.00140149	77.6306	8656.5	1898.42	8862.22	-12.3694	0.0000000E+000	0.0000000E+000	0.0000000E+000	12.3694	0.0000000E+000	0.0000000E+000	0.0000000E+000	-12.3694	0.0000000E+000	0.0000000E+000	0.0000000E+000	-77.6306	0.0000000E+000	0.0000000E+000	0.0000000E+000	77.6306	0.219305	12.3694	-7.84876e-09
15.879	259.201	1034.53	1066.5	-75.934	301.483	0.441118	1.94621e-05	9.68846	9.11618	3	40	0.00460602	4.31881e-06	0	-0.00035663	0.000227884	0.000909531	0.000937644	75.934	9116.18	2284.07	9397.96	-14.066	0.0000000E+000	0.0000000E+000	0.0000000E+000	14.066	0.0000000E+000	0.0000000E+000	0.0000000E+000	-14.066	0.0000000E+000	0.0000000E+000	0.0000000E+000	-75.934	0.0000000E+000	0.0000000E+000	0.0000000E+000	75.934	0.250551	14.0659	6.95125e-09
10.016	444.026	1531.86	1594.91	-73.8352	303.253	0.44114	-5.96883e-06	10.373	9.56905	3	41	0.00462198	2.89795e-06	0	-0.000356647	0.000174556	0.000602205	0.000626994	73.8352	9569.05	2773.7	9962.94	-16.1648	0.0000000E+000	0.0000000E+000	0.0000000E+000	16.1648	0.0000000E+000	0.0000000E+000	0.0000000E+000	-16.1648	0.0000000E+000	0.0000000E+000	0.0000000E+000	-73.8352	0.0000000E+000	0.0000000E+000	0.0000000E+000	73.8352	0.289861	16.1648	6.19509e-09
6.30621	806.01	2173.73	2318.35	-69.6554	334.47	0.44112	7.41094e-06	11.6104	10.207	3	41	0.00500743	2.15991e-06	0	-0.000356777	0.000149962	0.000404433	0.000431341	69.6554	10207	3784.71	10886.1	-20.3446	0.0000000E+000	0.0000000E+000	0.0000000E+000	20.3446	0.0000000E+000	0.0000000E+000	0.0000000E+000	-20.3446	0.0000000E+000	0.0000000E+000	0.0000000E+000	-69.6554	0.0000000E+000	0.0000000E+000	0.0000000E+000	69.6554	0.370795	20.3445	0.000000000000000E+000
4.00395	1388.6	3043.57	3345.37	-65.4757	334.471	0.44112	7.41094e-06	13.0602	10.81	3	41	0.00501483	1.49904e-06	0	-0.000356777	0.000124076	0.000271954	0.000298921	65.4757	10810	4931.96	11882	-24.5243	0.0000000E+000	0.0000000E+000	0.0000000E+000	24.5243	0.0000000E+000	0.0000000E+000	0.0000000E+000	-24.5243	0.0000000E+000	0.0000000E+000	0.0000000E+000	-65.4757	0.0000000E+000	0.0000000E+000	0.0000000E+000	65.4757	0.456239	24.5243	0.000000000000000E+000
2.50247	2442.93	4084.63	4759.42	-59.1172	334.472	0.44112	7.41094e-06	15.5704	11.4682	3	41	0.00500161	1.05089e-06	0	-0.000356777	0.000107846	0.00018032	0.00021011	59.1172	11468.2	6858.91	13362.8	-30.8828	0.0000000E+000	0.0000000E+000	0.0000000E+000	30.8828	0.0000000E+000	0.0000000E+000	0.0000000E+000	-30.8828	0.0000000E+000	0.0000000E+000	0.0000000E+000	-59.1172	0.0000000E+000	0.0000000E+000	0.0000000E+000	59.1172	0.59808	30.8828	0.000000000000000E+000
1.60158	3948.62	5059.9	6418.27	-52.0325	334.474	0.44112	7.41094e-06	19.6395	12.2061	3	41	0.00500705	7.80124e-07	0	-0.000356777	9.58537e-05	0.00012283	0.000155805	52.0325	12206.1	9525.34	15483	-37.9675	0.0000000E+000	0.0000000E+000	0.0000000E+000	37.9675	0.0000000E+000	0.0000000E+000	0.0000000E+000	-37.9675	0.0000000E+000	0.0000000E+000	0.0000000E+000	-52.0325	0.0000000E+000	0.0000000E+000	0.0000000E+000	52.0325	0.780374	37.9675	0.000000000000000E+000
1.00099	5752.34	5859.89	8211.44	-45.5307	334.475	0.44112	7.41094e-06	27.1333	13.8179	3	41	0.005005	6.09516e-07	0	-0.000356777	8.53111e-05	8.69063e-05	0.000121781	45.5307	13817.9	13564.3	19363	-44.4693	0.0000000E+000	0.0000000E+000	0.0000000E+000	44.4693	0.0000000E+000	0.0000000E+000	0.0000000E+000	-44.4693	0.0000000E+000	0.0000000E+000	0.0000000E+000	-45.5307	0.0000000E+000	0.0000000E+000	0.0000000E+000	45.5307	0.981645	44.4693	0.000000000000000E+000
0.600592	8513.77	5910.11	10364.1	-34.7677	334.477	0.44112	7.41094e-06	44.8379	14.5806	3	41	0.00500678	4.83091e-07	0	-0.000356777	7.92615e-05	5.5022e-05	9.64874e-05	34.7677	14580.6	21004.1	25568.8	-55.2323	0.0000000E+000	0.0000000E+000	0.0000000E+000	55.2323	0.0000000E+000	0.0000000E+000	0.0000000E+000	-55.2323	0.0000000E+000	0.0000000E+000	0.0000000E+000	-34.7677	0.0000000E+000	0.0000000E+000	0.0000000E+000	34.7677	1.44054	55.2323	0.000000000000000E+000
0.400395	10504.5	5888.66	12042.5	-29.2742	334.478	0.44112	7.41094e-06	67.5018	16.1405	3	41	0.0050017	4.15338e-07	0	-0.000356777	7.24343e-05	4.06055e-05	8.30394e-05	29.2742	16140.5	28792.3	33007.8	-60.7258	0.0000000E+000	0.0000000E+000	0.0000000E+000	60.7258	0.0000000E+000	0.0000000E+000	0.0000000E+000	-60.7258	0.0000000E+000	0.0000000E+000	0.0000000E+000	-29.2742	0.0000000E+000	0.0000000E+000	0.0000000E+000	29.2742	1.78386	60.7258	0.000000000000000E+000
0.200197	13062.7	4751.18	13899.9	-19.9875	334.48	0.44112	7.41094e-06	167.325	19.5497	3	41	0.00500254	3.59898e-07	0	-0.000356777	6.76097e-05	2.45912e-05	7.1943e-05	19.9875	19549.7	53749.1	57194	-70.0125	0.0000000E+000	0.0000000E+000	0.0000000E+000	70.0125	0.0000000E+000	0.0000000E+000	0.0000000E+000	-70.0125	0.0000000E+000	0.0000000E+000	0.0000000E+000	-19.9875	0.0000000E+000	0.0000000E+000	0.0000000E+000	19.9875	2.74935	70.0125	4.09653e-11
0.100099	15477.7	3783.82	15933.5	-13.7376	334.48	0.44112	7.41094e-06	420.205	23.6972	3	41	0.00500313	3.14e-07	0	-0.000356777	6.09653e-05	1.49041e-05	6.27607e-05	13.7376	23697.2	96933.7	99788.3	-76.2624	0.0000000E+000	0.0000000E+000	0.0000000E+000	76.2624	0.0000000E+000	0.0000000E+000	0.0000000E+000	-76.2624	0.0000000E+000	0.0000000E+000	0.0000000E+000	-13.7376	0.0000000E+000	0.0000000E+000	0.0000000E+000	13.7376	4.09051	76.2624	0.000000000000000E+000