File: Python/Data/GoldElectrode/240322/Carbon/240322-CVEIS-Activation-5mM_Fe2Fe3-1M_H2SO4-0000RPM-Ag_AgCl_BLF8-GC_RDE_02_PEIS_C15.mpt
EC-Lab ASCII FILE
Nb header lines : 66

Potentio Electrochemical Impedance Spectroscopy

Run on channel : 15 (SN 19485)
User :
Electrode connection : standard
Potential control : Ewe
Ewe ctrl range : min = -2.50 V, max = 2.50 V
Ewe,I filtering : 50 kHz
Safety Limits :
	Do not start on E overload
Channel : Floating
Acquisition started on : 03/22/2024 12:39:19.547
Loaded Setting File :  C:\Data\mathias\GoldElectrode\240322-CVEIS-Activation-5mM_Fe2Fe3-1M_H2SO4-0000RPM-Ag_AgCl_BLF8-Au_RDE.mps
Saved on :
	File : 240322-CVEIS-Activation-5mM_Fe2Fe3-1M_H2SO4-0000RPM-Ag_AgCl_BLF8-GC_RDE_02_PEIS_C15.mpr
	Directory : C:\Data\mathias\GoldElectrode\
	Host : 192.168.0.1
Device : VMP-300 (SN 0826)
Address : USB
EC-Lab for windows v11.52 (software)
Internet server v11.52 (firmware)
Command interpretor v11.52 (firmware)
Electrode material :
Initial state :
Electrolyte :
Comments :
Cable : special
Electrode surface area : 0.001 cm²
Characteristic mass : 0.001 g
Equivalent Weight : 0.000 g/eq.
Density : 0.000 g/cm3
Volume (V) : 0.001 cm³
Record EIS quality indicators
Cycle Definition : Charge/Discharge alternance
Mode                Single sine
E (V)               0.0000
vs.                 Eoc
tE (h:m:s)          0:00:0.0000
record              0
dI                  0.000
unit dI             mA
dt (s)              0.000
fi                  100.000
unit fi             kHz
ff                  100.000
unit ff             Hz
Nd                  10
Points              per decade
spacing             Logarithmic
Va (mV)             5.0
pw                  0.10
Na                  2
corr                0
E range min (V)     -2.500
E range max (V)     2.500
I Range             Auto
Bandwidth           8
nc cycles           0
goto Ns'            0
nr cycles           0
inc. cycle          0

freq/Hz	Re(Z)/Ohm	-Im(Z)/Ohm	|Z|/Ohm	Phase(Z)/deg	time/s	<Ewe>/V	<I>/mA	Cs/µF	Cp/µF	cycle number	I Range	|Ewe|/V	|I|/A	Ns	(Q-Qo)/mA.h	THD Ewe/%	NSD Ewe/%	NSR Ewe/%	|Ewe h2|/V	|Ewe h3|/V	|Ewe h4|/V	|Ewe h5|/V	|Ewe h6|/V	|Ewe h7|/V	THD I/%	NSD I/%	NSR I/%	|I h2|/A	|I h3|/A	|I h4|/A	|I h5|/A	|I h6|/A	|I h7|/A	Re(Y)/Ohm-1	Im(Y)/Ohm-1	|Y|/Ohm-1	Phase(Y)/deg	Re(C)/nF	Im(C)/nF	|C|/nF	Phase(C)/deg	Re(M)	Im(M)	|M|	Phase(M)/deg	Re(Permittivity)	Im(Permittivity)	|Permittivity|	Phase(Permittivity)/deg	Re(Resistivity)/Ohm.cm	Im(Resistivity)/Ohm.cm	|Resistivity|/Ohm.cm	Phase(Resistivity)/deg	Re(Conductivity)/mS/cm	Im(Conductivity)/mS/cm	|Conductivity|/mS/cm	Phase(Conductivity)/deg	Tan(Delta)	Loss Angle(Delta)/deg	dq/mA.h
100004	3.00358	0.332756	3.02196	-6.32182	20.7515	0.441182	-0.203853	4.78275	0.0579901	1	37	0.00482106	0.00159535	0	-5.63432e-05	0.712984	0.56346	26.9543	1.82973e-05	8.15076e-06	1.20878e-05	1.27935e-05	1.11598e-05	1.72113e-05	0.5424	0.518726	11.1333	4.99808e-06	2.47224e-06	1.76972e-06	3.71595e-06	2.84806e-06	3.69918e-06	0.328899	0.0364376	0.330912	6.32182	57.9901	523.44	526.643	-83.6782	0.0000000E+000	0.0000000E+000	0.0000000E+000	83.6782	0.0000000E+000	0.0000000E+000	0.0000000E+000	-83.6782	0.0000000E+000	0.0000000E+000	0.0000000E+000	-6.32182	0.0000000E+000	0.0000000E+000	0.0000000E+000	6.32182	9.02636	83.6782	-5.63432e-05
79433.3	3.0061	0.403147	3.03302	-7.63833	21.5675	0.441189	-0.10752	4.96998	0.0878074	1	37	0.0050936	0.00167939	0	-8.20474e-05	1.25615	0.463173	25.2337	3.93465e-05	2.09648e-05	2.39113e-05	1.61378e-05	9.44625e-06	3.37432e-05	0.40859	0.395634	10.5853	2.36556e-06	1.34038e-06	3.51621e-06	2.47998e-06	2.65195e-06	3.08466e-06	0.326779	0.0438242	0.329705	7.63833	87.8074	654.745	660.607	-82.3617	0.0000000E+000	0.0000000E+000	0.0000000E+000	82.3617	0.0000000E+000	0.0000000E+000	0.0000000E+000	-82.3617	0.0000000E+000	0.0000000E+000	0.0000000E+000	-7.63833	0.0000000E+000	0.0000000E+000	0.0000000E+000	7.63833	7.4566	82.3617	-2.57042e-05
63093.8	3.00902	0.489273	3.04854	-9.23557	22.3825	0.441151	-0.106106	5.15563	0.132801	1	37	0.00513503	0.00168442	0	-0.000105981	1.50135	0.948261	25.2248	1.78628e-05	1.51199e-05	4.08035e-05	5.16143e-05	2.02837e-05	2.07154e-05	0.529374	0.363065	10.4725	6.66003e-07	2.89291e-06	3.15459e-06	5.44e-06	3.095e-06	3.35047e-06	0.323773	0.0526462	0.328026	9.23557	132.801	816.722	827.449	-80.7644	0.0000000E+000	0.0000000E+000	0.0000000E+000	80.7644	0.0000000E+000	0.0000000E+000	0.0000000E+000	-80.7644	0.0000000E+000	0.0000000E+000	0.0000000E+000	-9.23557	0.0000000E+000	0.0000000E+000	0.0000000E+000	9.23557	6.14999	80.7644	-2.39336e-05
50122.5	3.05299	0.602129	3.1118	-11.157	23.1975	0.441176	-0.10646	5.27349	0.197449	1	37	0.00520979	0.0016742	0	-0.000130278	1.12042	1.19245	24.3365	2.35988e-05	1.98928e-05	1.68708e-05	2.90388e-05	2.5505e-05	1.77121e-05	0.512194	0.276628	10.55	2.81171e-06	5.0266e-06	2.68719e-06	3.69272e-06	2.72277e-06	2.78333e-06	0.315284	0.0621823	0.321358	11.157	197.449	1001.13	1020.41	-78.843	0.0000000E+000	0.0000000E+000	0.0000000E+000	78.843	0.0000000E+000	0.0000000E+000	0.0000000E+000	-78.843	0.0000000E+000	0.0000000E+000	0.0000000E+000	-11.157	0.0000000E+000	0.0000000E+000	0.0000000E+000	11.157	5.07032	78.843	-2.42973e-05
39814.1	3.07396	0.692717	3.15104	-12.6995	24.0125	0.441175	-0.102086	5.77069	0.278889	1	37	0.00518196	0.00164452	0	-0.000154367	0.885237	0.379107	24.8648	8.70962e-06	1.61345e-05	1.5358e-05	1.72975e-05	2.00105e-05	2.09966e-05	0.421921	0.463752	10.7498	3.45381e-06	6.15735e-07	2.61537e-06	2.45177e-06	3.17934e-06	2.90832e-06	0.309592	0.0697666	0.317355	12.6995	278.889	1237.58	1268.61	-77.3005	0.0000000E+000	0.0000000E+000	0.0000000E+000	77.3005	0.0000000E+000	0.0000000E+000	0.0000000E+000	-77.3005	0.0000000E+000	0.0000000E+000	0.0000000E+000	-12.6995	0.0000000E+000	0.0000000E+000	0.0000000E+000	12.6995	4.43753	77.3005	-2.40885e-05
31621.1	3.12753	0.833622	3.23672	-14.9248	24.8275	0.441163	-0.100541	6.03773	0.400498	1	37	0.0051623	0.00159491	0	-0.000177866	0.869335	0.764997	24.6313	1.9553e-05	1.50034e-05	2.08249e-05	1.85914e-05	1.28398e-05	1.36455e-05	0.635331	0.327414	11.2218	2.52269e-06	7.89435e-06	8.13391e-07	2.59598e-06	2.95911e-06	3.51379e-06	0.298532	0.0795716	0.308955	14.9248	400.498	1502.56	1555.02	-75.0752	0.0000000E+000	0.0000000E+000	0.0000000E+000	75.0752	0.0000000E+000	0.0000000E+000	0.0000000E+000	-75.0752	0.0000000E+000	0.0000000E+000	0.0000000E+000	-14.9248	0.0000000E+000	0.0000000E+000	0.0000000E+000	14.9248	3.75174	75.0752	-2.34992e-05
25116.9	3.15351	0.981235	3.30264	-17.2839	25.6425	0.441159	-0.097917	6.45775	0.570038	1	37	0.00522135	0.00158096	0	-0.000202851	1.07142	1.18571	24.6726	3.01429e-05	3.28182e-05	1.00732e-05	9.66065e-06	1.59997e-05	1.90677e-05	0.704721	0.191687	11.2859	2.67248e-06	3.13058e-06	5.20804e-06	4.265e-06	5.45407e-06	3.86994e-06	0.289115	0.08996	0.302788	17.2839	570.038	1832	1918.63	-72.7161	0.0000000E+000	0.0000000E+000	0.0000000E+000	72.7161	0.0000000E+000	0.0000000E+000	0.0000000E+000	-72.7161	0.0000000E+000	0.0000000E+000	0.0000000E+000	-17.2839	0.0000000E+000	0.0000000E+000	0.0000000E+000	17.2839	3.21382	72.7161	-2.49854e-05
19948.8	3.20749	1.20832	3.42754	-20.6424	26.4575	0.44116	-0.099592	6.60268	0.820582	1	37	0.00516499	0.00150691	0	-0.000224993	1.18124	0.502811	24.6981	1.50984e-05	2.79104e-05	3.2128e-05	1.90946e-05	1.35653e-05	2.82273e-05	0.622813	0.385899	11.7491	2.16457e-06	1.11698e-06	3.54243e-06	4.12891e-06	1.896e-06	6.83382e-06	0.273024	0.102853	0.291754	20.6424	820.582	2178.23	2327.67	-69.3576	0.0000000E+000	0.0000000E+000	0.0000000E+000	69.3576	0.0000000E+000	0.0000000E+000	0.0000000E+000	-69.3576	0.0000000E+000	0.0000000E+000	0.0000000E+000	-20.6424	0.0000000E+000	0.0000000E+000	0.0000000E+000	20.6424	2.65449	69.3576	-2.2142e-05
15847.7	3.25435	1.45182	3.56351	-24.0424	27.2725	0.441195	-0.0980659	6.91739	1.14818	1	37	0.00506781	0.00142214	0	-0.000249907	1.1759	0.491581	25.6353	3.17125e-05	1.15651e-05	3.60114e-05	1.48781e-05	2.41335e-05	8.60089e-06	0.788983	0.446637	12.6187	5.21307e-06	6.43349e-06	3.49412e-06	3.19364e-06	4.45568e-06	2.52149e-06	0.256277	0.114329	0.280623	24.0424	1148.18	2573.73	2818.23	-65.9576	0.0000000E+000	0.0000000E+000	0.0000000E+000	65.9576	0.0000000E+000	0.0000000E+000	0.0000000E+000	-65.9576	0.0000000E+000	0.0000000E+000	0.0000000E+000	-24.0424	0.0000000E+000	0.0000000E+000	0.0000000E+000	24.0424	2.24157	65.9576	-2.49131e-05
12590.9	3.3195	1.76947	3.76166	-28.06	28.0885	0.441148	-0.0958139	7.14365	1.58069	1	37	0.00510759	0.0013578	0	-0.000271759	1.43386	0.806329	25.4453	2.48345e-05	1.94643e-05	1.62306e-05	3.79603e-05	2.55554e-05	3.24116e-05	0.706889	0.439349	13.0435	1.98152e-06	4.07318e-06	3.78699e-06	2.78489e-06	2.93424e-06	5.63373e-06	0.234592	0.12505	0.26584	28.06	1580.69	2965.35	3360.34	-61.94	0.0000000E+000	0.0000000E+000	0.0000000E+000	61.94	0.0000000E+000	0.0000000E+000	0.0000000E+000	-61.94	0.0000000E+000	0.0000000E+000	0.0000000E+000	-28.06	0.0000000E+000	0.0000000E+000	0.0000000E+000	28.06	1.87599	61.94	-2.18521e-05
10002.2	3.41752	2.14541	4.03512	-32.1192	28.9035	0.441194	-0.0938225	7.41676	2.09662	1	37	0.00510988	0.00126635	0	-0.000293785	1.07981	0.436409	25.0999	2.37731e-05	2.43655e-05	2.20896e-05	2.96914e-05	9.97746e-06	1.65519e-05	0.937548	0.31813	14.4015	5.63524e-06	3.05878e-06	7.37438e-06	4.16759e-06	1.13004e-06	3.76081e-06	0.209893	0.131764	0.247824	32.1192	2096.62	3339.81	3943.36	-57.8808	0.0000000E+000	0.0000000E+000	0.0000000E+000	57.8808	0.0000000E+000	0.0000000E+000	0.0000000E+000	-57.8808	0.0000000E+000	0.0000000E+000	0.0000000E+000	-32.1192	0.0000000E+000	0.0000000E+000	0.0000000E+000	32.1192	1.59295	57.8808	-2.20267e-05
7944	3.49874	2.65868	4.39428	-37.2311	30.092	0.441046	-0.00907721	7.53556	2.75849	1	38	0.00492755	0.00112136	0	-0.000305254	1.079	0.624789	25.8085	1.54548e-05	2.12151e-05	1.17401e-05	1.42761e-05	2.28005e-05	3.34884e-05	0.177714	0.0964631	2.65864	8.16156e-07	4.39806e-07	1.0038e-06	8.0419e-07	5.37362e-07	8.41028e-07	0.18119	0.137686	0.227568	37.2311	2758.49	3630.08	4559.25	-52.7689	0.0000000E+000	0.0000000E+000	0.0000000E+000	52.7689	0.0000000E+000	0.0000000E+000	0.0000000E+000	-52.7689	0.0000000E+000	0.0000000E+000	0.0000000E+000	-37.2311	0.0000000E+000	0.0000000E+000	0.0000000E+000	37.2311	1.31597	52.7689	-1.14686e-05
6307.74	3.60858	3.22756	4.84138	-41.8099	30.9916	0.441036	-0.00844043	7.81759	3.47442	1	38	0.00508909	0.00105116	0	-0.000306783	1.51002	0.422874	24.8444	2.53544e-05	3.99842e-05	2.02246e-05	2.02727e-05	1.85186e-05	4.16417e-05	0.155789	0.118935	2.84572	5.45671e-07	6.5639e-07	3.75445e-07	8.44934e-07	5.57093e-07	5.9074e-07	0.153956	0.137701	0.206553	41.8099	3474.42	3884.58	5211.68	-48.1901	0.0000000E+000	0.0000000E+000	0.0000000E+000	48.1901	0.0000000E+000	0.0000000E+000	0.0000000E+000	-48.1901	0.0000000E+000	0.0000000E+000	0.0000000E+000	-41.8099	0.0000000E+000	0.0000000E+000	0.0000000E+000	41.8099	1.11805	48.1901	-1.52912e-06
5011.6	3.74226	3.9909	5.47099	-46.8416	31.9697	0.441055	-0.00788558	7.95743	4.2343	1	38	0.00514313	0.000940072	0	-0.000307798	0.946965	0.872552	23.8662	1.47793e-05	1.54409e-05	2.79025e-05	1.64723e-05	2.13989e-05	1.82989e-05	0.155831	0.100923	3.17446	6.07922e-07	4.7623e-07	8.46038e-07	5.07292e-07	2.77896e-07	4.57431e-07	0.125026	0.133333	0.182782	46.8416	4234.3	3970.5	5804.67	-43.1584	0.0000000E+000	0.0000000E+000	0.0000000E+000	43.1584	0.0000000E+000	0.0000000E+000	0.0000000E+000	-43.1584	0.0000000E+000	0.0000000E+000	0.0000000E+000	-46.8416	0.0000000E+000	0.0000000E+000	0.0000000E+000	46.8416	0.937697	43.1584	-1.01515e-06
3981.28	3.88783	4.85831	6.22241	-51.3317	32.7127	0.441021	-0.00851119	8.22835	5.01609	1	38	0.00519998	0.000835686	0	-0.000308763	1.03107	0.48135	23.5677	1.54271e-05	3.87705e-05	1.10995e-05	1.56316e-05	1.42126e-05	2.20639e-05	0.208739	0.109609	3.595	1.04161e-06	6.77497e-07	7.05188e-07	5.90615e-07	2.99819e-07	6.25165e-07	0.100413	0.125478	0.160709	51.3317	5016.09	4014.1	6424.5	-38.6683	0.0000000E+000	0.0000000E+000	0.0000000E+000	38.6683	0.0000000E+000	0.0000000E+000	0.0000000E+000	-38.6683	0.0000000E+000	0.0000000E+000	0.0000000E+000	-51.3317	0.0000000E+000	0.0000000E+000	0.0000000E+000	51.3317	0.800244	38.6683	-9.649e-07
3163.04	4.05266	5.97348	7.21849	-55.8454	33.4556	0.441071	-0.00869739	8.42341	5.76834	1	38	0.00505305	0.000700016	0	-0.000309983	1.26541	0.606955	24.4537	1.98117e-05	1.9864e-05	3.14982e-05	1.47608e-05	3.23604e-05	2.89547e-05	0.287948	0.137706	4.23596	1.36041e-06	9.88337e-07	3.01824e-07	7.83492e-07	2.18138e-07	4.76498e-07	0.0777764	0.11464	0.138533	55.8454	5768.34	3913.48	6970.59	-34.1546	0.0000000E+000	0.0000000E+000	0.0000000E+000	34.1546	0.0000000E+000	0.0000000E+000	0.0000000E+000	-34.1546	0.0000000E+000	0.0000000E+000	0.0000000E+000	-55.8454	0.0000000E+000	0.0000000E+000	0.0000000E+000	55.8454	0.678441	34.1546	-1.21935e-06
2512.41	4.28735	7.30009	8.46597	-59.5742	34.1986	0.441062	-0.0083641	8.67764	6.45215	1	38	0.00484566	0.000572369	0	-0.000311966	1.33136	1.1285	25.8373	2.21784e-05	1.50502e-05	1.41214e-05	3.72935e-05	3.41962e-05	2.02373e-05	0.387772	0.210287	5.22884	6.56865e-07	1.81857e-06	3.28389e-07	5.8627e-07	5.91057e-07	5.71437e-07	0.0598185	0.101853	0.11812	59.5742	6452.15	3789.35	7482.61	-30.4258	0.0000000E+000	0.0000000E+000	0.0000000E+000	30.4258	0.0000000E+000	0.0000000E+000	0.0000000E+000	-30.4258	0.0000000E+000	0.0000000E+000	0.0000000E+000	-59.5742	0.0000000E+000	0.0000000E+000	0.0000000E+000	59.5742	0.587301	30.4258	-1.98369e-06
1995.64	4.53688	9.04312	10.1174	-63.3574	34.9417	0.441051	-0.00772733	8.81902	7.04565	1	38	0.00469639	0.000464191	0	-0.000313621	1.34755	0.890893	26.8421	2.13528e-05	1.4313e-05	3.11066e-05	2.45194e-05	2.03555e-05	3.02619e-05	0.419034	0.178898	6.3991	8.48804e-07	1.34268e-06	2.1358e-07	6.09778e-07	4.73139e-07	6.92599e-07	0.0443222	0.0883451	0.0988399	63.3574	7045.65	3534.76	7882.62	-26.6426	0.0000000E+000	0.0000000E+000	0.0000000E+000	26.6426	0.0000000E+000	0.0000000E+000	0.0000000E+000	-26.6426	0.0000000E+000	0.0000000E+000	0.0000000E+000	-63.3574	0.0000000E+000	0.0000000E+000	0.0000000E+000	63.3574	0.501694	26.6426	-1.65456e-06
1584.49	4.87531	11.1635	12.1816	-66.4082	35.6848	0.441064	-0.00765658	8.99766	7.55647	1	38	0.00458844	0.000376668	0	-0.000315517	1.29484	0.867359	27.1092	2.26305e-05	1.73843e-05	1.0977e-05	3.23064e-05	3.17358e-05	2.01292e-05	0.414185	0.157574	7.87554	7.46335e-07	6.32578e-07	3.96133e-07	2.54356e-07	4.60005e-07	7.99564e-07	0.0328542	0.0752296	0.0820908	66.4082	7556.47	3300.05	8245.64	-23.5918	0.0000000E+000	0.0000000E+000	0.0000000E+000	23.5918	0.0000000E+000	0.0000000E+000	0.0000000E+000	-23.5918	0.0000000E+000	0.0000000E+000	0.0000000E+000	-66.4082	0.0000000E+000	0.0000000E+000	0.0000000E+000	66.4082	0.436719	23.5918	-1.89624e-06
1258.79	5.29555	13.7598	14.7437	-68.9505	36.649	0.441088	-0.00716317	9.18869	8.0033	1	38	0.00497993	0.000337767	0	-0.000317533	0.981352	0.633291	24.5362	1.59747e-05	2.39481e-05	1.95022e-05	1.22922e-05	1.58066e-05	2.32159e-05	0.651471	0.318138	8.7293	9.52569e-07	9.96137e-07	8.96159e-07	9.89651e-07	4.80193e-07	7.17088e-07	0.0243613	0.0632998	0.0678258	68.9505	8003.3	3080.11	8575.54	-21.0495	0.0000000E+000	0.0000000E+000	0.0000000E+000	21.0495	0.0000000E+000	0.0000000E+000	0.0000000E+000	-21.0495	0.0000000E+000	0.0000000E+000	0.0000000E+000	-68.9505	0.0000000E+000	0.0000000E+000	0.0000000E+000	68.9505	0.384856	21.0495	-2.01614e-06
999.682	5.83713	16.9726	17.9483	-71.0211	37.3928	0.441027	-0.0074797	9.38017	8.38805	1	38	0.00492684	0.000274502	0	-0.000319042	1.00404	1.31613	25.4037	1.49926e-05	1.60491e-05	1.46687e-05	1.43217e-05	1.04143e-05	3.48754e-05	0.807946	0.29121	10.8923	6.61968e-07	1.34932e-06	7.31762e-07	8.62644e-07	6.14975e-07	9.14877e-07	0.0181198	0.0526869	0.0557157	71.0211	8388.05	2884.78	8870.25	-18.9789	0.0000000E+000	0.0000000E+000	0.0000000E+000	18.9789	0.0000000E+000	0.0000000E+000	0.0000000E+000	-18.9789	0.0000000E+000	0.0000000E+000	0.0000000E+000	-71.0211	0.0000000E+000	0.0000000E+000	0.0000000E+000	71.0211	0.343916	18.9789	-1.50913e-06
794.239	6.50668	20.6611	21.6614	-72.5195	38.1359	0.441042	-0.0075039	9.69874	8.82364	1	38	0.00484689	0.000223757	0	-0.000320342	1.35072	1.06727	25.8324	1.12167e-05	2.69889e-05	1.01956e-05	3.22808e-05	6.04229e-06	4.64019e-05	0.951699	0.325673	13.1331	8.25132e-07	8.52089e-07	4.83418e-07	1.34231e-06	7.46044e-07	4.4948e-07	0.0138671	0.0440331	0.046165	72.5195	8823.64	2778.78	9250.85	-17.4805	0.0000000E+000	0.0000000E+000	0.0000000E+000	17.4805	0.0000000E+000	0.0000000E+000	0.0000000E+000	-17.4805	0.0000000E+000	0.0000000E+000	0.0000000E+000	-72.5195	0.0000000E+000	0.0000000E+000	0.0000000E+000	72.5195	0.314924	17.4805	-1.29998e-06
631.01	7.05823	25.6223	26.5767	-74.5986	38.8774	0.44108	-0.00568107	9.84387	9.14956	1	38	0.00481549	0.000181192	0	-0.000321275	2.15786	0.563587	25.9329	3.08744e-05	2.87476e-05	2.20231e-05	7.64922e-05	3.01826e-05	2.19183e-05	1.30191	0.427647	16.4205	1.1411e-06	1.00956e-06	2.78285e-07	1.29431e-06	6.55299e-07	6.07216e-07	0.00999294	0.0362757	0.0376269	74.5986	9149.55	2520.45	9490.36	-15.4014	0.0000000E+000	0.0000000E+000	0.0000000E+000	15.4014	0.0000000E+000	0.0000000E+000	0.0000000E+000	-15.4014	0.0000000E+000	0.0000000E+000	0.0000000E+000	-74.5986	0.0000000E+000	0.0000000E+000	0.0000000E+000	74.5986	0.275472	15.4014	-9.3263e-07
501.122	8.10413	31.2862	32.3188	-75.4778	39.8723	0.441075	0.000241334	10.1513	9.51303	1	39	0.00503187	0.000155695	0	-0.000321508	1.26836	0.532948	24.1681	7.07376e-06	3.34761e-05	2.87305e-05	1.31309e-05	1.9151e-05	3.6021e-05	0.673189	0.288885	7.68958	5.0566e-07	3.29732e-07	3.32658e-07	5.99292e-07	4.19232e-07	2.35308e-07	0.00775882	0.0299532	0.0309417	75.4778	9513.04	2464.18	9827	-14.5222	0.0000000E+000	0.0000000E+000	0.0000000E+000	14.5222	0.0000000E+000	0.0000000E+000	0.0000000E+000	-14.5222	0.0000000E+000	0.0000000E+000	0.0000000E+000	-75.4778	0.0000000E+000	0.0000000E+000	0.0000000E+000	75.4778	0.259032	14.5222	-2.33267e-07
398.089	9.24231	38.9845	40.0651	-76.6627	40.6177	0.441066	-0.000224242	10.2553	9.70957	1	39	0.00496431	0.000123906	0	-0.000321589	1.31908	0.489596	25.9256	1.84111e-05	2.85136e-05	1.7755e-05	3.65826e-05	1.68347e-05	3.13569e-05	0.800088	0.228932	10.0965	3.32325e-07	3.86597e-07	2.13467e-07	7.22678e-07	2.1105e-07	2.32569e-07	0.0057577	0.0242862	0.0249594	76.6627	9709.57	2301.91	9978.71	-13.3373	0.0000000E+000	0.0000000E+000	0.0000000E+000	13.3373	0.0000000E+000	0.0000000E+000	0.0000000E+000	-13.3373	0.0000000E+000	0.0000000E+000	0.0000000E+000	-76.6627	0.0000000E+000	0.0000000E+000	0.0000000E+000	76.6627	0.237077	13.3373	-8.06223e-08
316.316	10.6043	47.9342	49.0932	-77.5255	41.3599	0.441084	-0.000105705	10.4967	10.007	1	39	0.00487967	9.9396e-05	0	-0.000321684	1.31906	0.68457	25.3714	4.12045e-05	2.06507e-05	8.85902e-06	2.20705e-05	1.29312e-05	3.23109e-05	0.846471	0.336919	12.1625	1.82619e-07	4.22059e-07	2.09515e-07	5.63668e-07	1.5877e-07	2.48398e-07	0.00439988	0.0198886	0.0203694	77.5255	10007	2213.81	10248.9	-12.4745	0.0000000E+000	0.0000000E+000	0.0000000E+000	12.4745	0.0000000E+000	0.0000000E+000	0.0000000E+000	-12.4745	0.0000000E+000	0.0000000E+000	0.0000000E+000	-77.5255	0.0000000E+000	0.0000000E+000	0.0000000E+000	77.5255	0.221227	12.4745	-9.50354e-08
251.206	12.6523	59.449	60.7805	-77.9852	42.1028	0.441079	-0.000216415	10.6573	10.1955	1	39	0.00485627	7.98985e-05	0	-0.000321705	1.39208	0.664012	25.2838	2.00035e-05	1.55406e-05	2.13127e-05	2.07596e-05	3.72546e-05	3.17166e-05	1.03079	0.345576	15.4121	3.53734e-07	4.90279e-07	2.63552e-07	3.46453e-07	2.29907e-07	2.20586e-07	0.00342486	0.0160922	0.0164527	77.9852	10195.5	2169.87	10423.8	-12.0148	0.0000000E+000	0.0000000E+000	0.0000000E+000	12.0148	0.0000000E+000	0.0000000E+000	0.0000000E+000	-12.0148	0.0000000E+000	0.0000000E+000	0.0000000E+000	-77.9852	0.0000000E+000	0.0000000E+000	0.0000000E+000	77.9852	0.212827	12.0148	-2.13252e-08
199.553	14.6607	72.4833	73.9511	-78.5654	42.8482	0.441079	0.000176285	11.0033	10.5708	1	39	0.00478395	6.46907e-05	0	-0.000321807	1.64613	0.753434	26.1542	2.44172e-05	3.85819e-05	3.92106e-05	2.91893e-05	9.23467e-06	2.73992e-05	1.09706	0.549735	18.8105	1.96578e-07	3.94443e-07	3.17289e-07	3.23271e-07	1.45378e-07	1.55047e-07	0.0026808	0.013254	0.0135224	78.5654	10570.8	2138.09	10784.9	-11.4346	0.0000000E+000	0.0000000E+000	0.0000000E+000	11.4346	0.0000000E+000	0.0000000E+000	0.0000000E+000	-11.4346	0.0000000E+000	0.0000000E+000	0.0000000E+000	-78.5654	0.0000000E+000	0.0000000E+000	0.0000000E+000	78.5654	0.202263	11.4346	-1.02244e-07
158.529	17.4362	89.4408	91.1245	-78.9687	43.5956	0.441081	-0.000192746	11.2247	10.8138	1	39	0.00477996	5.24553e-05	0	-0.000321799	1.12288	0.584948	26.2016	1.81089e-05	2.19933e-05	1.78402e-05	9.95698e-06	1.86681e-05	2.7251e-05	1.37958	0.658672	23.6499	2.76916e-07	2.40565e-07	2.3466e-07	2.66461e-07	3.49392e-07	2.25079e-07	0.00209981	0.0107712	0.010974	78.9687	10813.8	2108.11	11017.3	-11.0313	0.0000000E+000	0.0000000E+000	0.0000000E+000	11.0313	0.0000000E+000	0.0000000E+000	0.0000000E+000	-11.0313	0.0000000E+000	0.0000000E+000	0.0000000E+000	-78.9687	0.0000000E+000	0.0000000E+000	0.0000000E+000	78.9687	0.194947	11.0312	8.44091e-09
125.927	21.3085	110.247	112.287	-79.0608	44.3363	0.441085	-0.000186036	11.464	11.0511	1	39	0.0047697	4.24776e-05	0	-0.000321789	1.17779	0.946075	26.4462	1.86816e-05	2.4313e-05	2.12327e-05	2.02869e-05	2.87947e-05	1.33173e-05	1.88619	0.79459	29.5331	3.65113e-07	4.09621e-07	3.17859e-07	2.70861e-07	2.71883e-07	2.06364e-07	0.00169001	0.0087439	0.00890572	79.0608	11051.1	2135.96	11255.7	-10.9392	0.0000000E+000	0.0000000E+000	0.0000000E+000	10.9392	0.0000000E+000	0.0000000E+000	0.0000000E+000	-10.9392	0.0000000E+000	0.0000000E+000	0.0000000E+000	-79.0608	0.0000000E+000	0.0000000E+000	0.0000000E+000	79.0608	0.193279	10.9392	1.00951e-08
99.9682	26.1259	137.173	139.639	-79.2167	45.0678	0.441016	0.000191568	11.6062	11.1999	1	39	0.00480444	3.44061e-05	0	-0.000321723	1.86478	2.11008	25.3674	2.40858e-05	1.85687e-05	3.60453e-05	2.96446e-05	2.11574e-05	6.46374e-05	1.58704	1.62368	36.0686	2.48774e-07	1.05192e-07	1.26326e-07	3.15794e-07	1.66098e-07	2.5831e-07	0.00133985	0.00703485	0.00716131	79.2167	11199.9	2133.11	11401.2	-10.7833	0.0000000E+000	0.0000000E+000	0.0000000E+000	10.7833	0.0000000E+000	0.0000000E+000	0.0000000E+000	-10.7833	0.0000000E+000	0.0000000E+000	0.0000000E+000	-79.2167	0.0000000E+000	0.0000000E+000	0.0000000E+000	79.2167	0.190459	10.7833	6.55679e-08