File: Python/Data/GoldElectrode/240322/Carbon/240322-CVEIS-Activation-5mM_Fe2Fe3-1M_H2SO4-0000RPM-Ag_AgCl_BLF8-GC_RDE_06_PEIS_C15.mpt
EC-Lab ASCII FILE
Nb header lines : 66

Potentio Electrochemical Impedance Spectroscopy

Run on channel : 15 (SN 19485)
User :
Electrode connection : standard
Potential control : Ewe
Ewe ctrl range : min = -2.50 V, max = 2.50 V
Ewe,I filtering : 50 kHz
Safety Limits :
	Do not start on E overload
Channel : Floating
Acquisition started on : 03/22/2024 12:39:19.547
Loaded Setting File :  C:\Data\mathias\GoldElectrode\240322-CVEIS-Activation-5mM_Fe2Fe3-1M_H2SO4-0000RPM-Ag_AgCl_BLF8-Au_RDE.mps
Saved on :
	File : 240322-CVEIS-Activation-5mM_Fe2Fe3-1M_H2SO4-0000RPM-Ag_AgCl_BLF8-GC_RDE_06_PEIS_C15.mpr
	Directory : C:\Data\mathias\GoldElectrode\
	Host : 192.168.0.1
Device : VMP-300 (SN 0826)
Address : USB
EC-Lab for windows v11.52 (software)
Internet server v11.52 (firmware)
Command interpretor v11.52 (firmware)
Electrode material :
Initial state :
Electrolyte :
Comments :
Cable : special
Electrode surface area : 0.001 cm²
Characteristic mass : 0.001 g
Equivalent Weight : 0.000 g/eq.
Density : 0.000 g/cm3
Volume (V) : 0.001 cm³
Record EIS quality indicators
Cycle Definition : Charge/Discharge alternance
Mode                Single sine
E (V)               0.0000
vs.                 Eoc
tE (h:m:s)          0:00:0.0000
record              0
dI                  0.000
unit dI             mA
dt (s)              0.000
fi                  100.000
unit fi             kHz
ff                  100.000
unit ff             Hz
Nd                  10
Points              per decade
spacing             Logarithmic
Va (mV)             5.0
pw                  0.10
Na                  2
corr                0
E range min (V)     -2.500
E range max (V)     2.500
I Range             Auto
Bandwidth           8
nc cycles           0
goto Ns'            0
nr cycles           0
inc. cycle          0

freq/Hz	Re(Z)/Ohm	-Im(Z)/Ohm	|Z|/Ohm	Phase(Z)/deg	time/s	<Ewe>/V	<I>/mA	Cs/µF	Cp/µF	cycle number	I Range	|Ewe|/V	|I|/A	Ns	(Q-Qo)/mA.h	THD Ewe/%	NSD Ewe/%	NSR Ewe/%	|Ewe h2|/V	|Ewe h3|/V	|Ewe h4|/V	|Ewe h5|/V	|Ewe h6|/V	|Ewe h7|/V	THD I/%	NSD I/%	NSR I/%	|I h2|/A	|I h3|/A	|I h4|/A	|I h5|/A	|I h6|/A	|I h7|/A	Re(Y)/Ohm-1	Im(Y)/Ohm-1	|Y|/Ohm-1	Phase(Y)/deg	Re(C)/nF	Im(C)/nF	|C|/nF	Phase(C)/deg	Re(M)	Im(M)	|M|	Phase(M)/deg	Re(Permittivity)	Im(Permittivity)	|Permittivity|	Phase(Permittivity)/deg	Re(Resistivity)/Ohm.cm	Im(Resistivity)/Ohm.cm	|Resistivity|/Ohm.cm	Phase(Resistivity)/deg	Re(Conductivity)/mS/cm	Im(Conductivity)/mS/cm	|Conductivity|/mS/cm	Phase(Conductivity)/deg	Tan(Delta)	Loss Angle(Delta)/deg	dq/mA.h
100004	2.95867	0.185635	2.96449	-3.59018	777.949	0.441179	-0.170948	8.57323	0.0336174	1	37	0.00489577	0.00165147	0	-4.3267e-05	0.949866	0.471037	26.0977	6.17647e-06	1.18224e-05	2.21462e-05	1.38785e-05	2.9755e-05	1.79252e-05	0.479165	0.30981	10.7053	1.69925e-06	3.97897e-06	2.0268e-06	4.07224e-06	3.68016e-06	1.89023e-06	0.336664	0.0211232	0.337326	3.59018	33.6174	535.798	536.852	-86.4098	0.0000000E+000	0.0000000E+000	0.0000000E+000	86.4098	0.0000000E+000	0.0000000E+000	0.0000000E+000	-86.4098	0.0000000E+000	0.0000000E+000	0.0000000E+000	-3.59018	0.0000000E+000	0.0000000E+000	0.0000000E+000	3.59018	15.9381	86.4098	-4.3267e-05
79433.3	2.95312	0.234313	2.9624	-4.53657	778.764	0.441175	-0.0761232	8.5511	0.0534965	1	37	0.00512529	0.00173011	0	-6.17285e-05	1.34574	0.653896	25.2094	3.5963e-05	1.8063e-05	1.32342e-05	2.45564e-05	2.75653e-05	3.92356e-05	0.476089	0.166988	10.203	2.24314e-06	3.87264e-06	3.29219e-06	3.58593e-06	1.78614e-06	3.89383e-06	0.336506	0.0266998	0.337564	4.53657	53.4965	674.234	676.353	-85.4634	0.0000000E+000	0.0000000E+000	0.0000000E+000	85.4634	0.0000000E+000	0.0000000E+000	0.0000000E+000	-85.4634	0.0000000E+000	0.0000000E+000	0.0000000E+000	-4.53657	0.0000000E+000	0.0000000E+000	0.0000000E+000	4.53657	12.6033	85.4634	-1.84615e-05
63093.8	2.956	0.264888	2.96784	-5.12063	779.579	0.441159	-0.0720473	9.52293	0.0758603	1	37	0.00518498	0.00174705	0	-7.89705e-05	1.62243	1.63455	24.786	3.65407e-05	4.28468e-05	2.45947e-05	7.18419e-06	3.98335e-05	2.71913e-05	0.454342	0.237422	10.1633	4.27538e-06	3.1108e-06	3.07738e-06	2.3066e-06	2.56446e-06	3.1571e-06	0.335601	0.0300733	0.336945	5.12063	75.8604	846.556	849.948	-84.8794	0.0000000E+000	0.0000000E+000	0.0000000E+000	84.8794	0.0000000E+000	0.0000000E+000	0.0000000E+000	-84.8794	0.0000000E+000	0.0000000E+000	0.0000000E+000	-5.12063	0.0000000E+000	0.0000000E+000	0.0000000E+000	5.12063	11.1594	84.8794	-1.7242e-05
50122.5	2.97296	0.34499	2.99291	-6.61915	780.394	0.441194	-0.0751368	9.20408	0.122294	1	37	0.00515979	0.001724	0	-9.52399e-05	1.47773	2.15538	25.2136	4.15778e-05	2.22711e-05	3.2764e-05	1.43679e-05	3.50832e-05	2.54681e-05	0.579398	0.21065	10.1661	4.87952e-06	4.31517e-06	1.58213e-06	4.75388e-06	3.85664e-06	3.78682e-06	0.331896	0.038514	0.334123	6.61915	122.294	1053.87	1060.95	-83.3809	0.0000000E+000	0.0000000E+000	0.0000000E+000	83.3809	0.0000000E+000	0.0000000E+000	0.0000000E+000	-83.3809	0.0000000E+000	0.0000000E+000	0.0000000E+000	-6.61915	0.0000000E+000	0.0000000E+000	0.0000000E+000	6.61915	8.61752	83.3809	-1.62694e-05
39814.1	2.98294	0.400719	3.00974	-7.65113	781.209	0.44116	-0.065887	9.9757	0.176834	1	37	0.00517665	0.00171997	0	-0.000112969	1.51316	0.573169	25.3706	5.10864e-05	1.47174e-05	3.24743e-05	8.99118e-06	2.75459e-05	3.44365e-05	0.565591	0.25996	10.4205	1.79325e-06	6.01021e-06	3.53615e-06	2.45729e-06	3.41189e-06	4.37532e-06	0.329297	0.0442366	0.332255	7.65113	176.834	1316.35	1328.17	-82.3489	0.0000000E+000	0.0000000E+000	0.0000000E+000	82.3489	0.0000000E+000	0.0000000E+000	0.0000000E+000	-82.3489	0.0000000E+000	0.0000000E+000	0.0000000E+000	-7.65113	0.0000000E+000	0.0000000E+000	0.0000000E+000	7.65113	7.44398	82.3489	-1.77295e-05
31621.1	3.0026	0.500088	3.04396	-9.45589	782.024	0.441188	-0.0664825	10.0646	0.27165	1	37	0.00516792	0.00169776	0	-0.000127265	0.845603	0.943024	24.8179	1.17237e-05	1.75739e-05	7.30244e-06	2.22853e-05	2.60569e-05	9.29851e-06	0.625592	0.408716	10.3951	4.34157e-06	6.74084e-06	1.9258e-06	3.55798e-06	4.0016e-06	3.07862e-06	0.324055	0.0539718	0.328519	9.45589	271.65	1631.03	1653.5	-80.5441	0.0000000E+000	0.0000000E+000	0.0000000E+000	80.5441	0.0000000E+000	0.0000000E+000	0.0000000E+000	-80.5441	0.0000000E+000	0.0000000E+000	0.0000000E+000	-9.45589	0.0000000E+000	0.0000000E+000	0.0000000E+000	9.45589	6.00415	80.5441	-1.42955e-05
25116.9	3.03454	0.601217	3.09352	-11.2066	782.839	0.441181	-0.0684553	10.5396	0.398088	1	37	0.00513784	0.00166084	0	-0.000140556	1.32481	1.37587	24.8585	5.47559e-05	2.61601e-05	1.62039e-05	1.42003e-05	1.28648e-05	1.08468e-05	0.581722	0.353425	10.581	4.02812e-06	2.5147e-06	4.92228e-06	2.76994e-06	4.28459e-06	2.3642e-06	0.317093	0.0628239	0.323256	11.2066	398.087	2009.28	2048.33	-78.7934	0.0000000E+000	0.0000000E+000	0.0000000E+000	78.7934	0.0000000E+000	0.0000000E+000	0.0000000E+000	-78.7934	0.0000000E+000	0.0000000E+000	0.0000000E+000	-11.2066	0.0000000E+000	0.0000000E+000	0.0000000E+000	11.2066	5.04733	78.7934	-1.32912e-05
19948.8	3.06253	0.697548	3.14096	-12.8313	783.654	0.44116	-0.0706515	11.4375	0.564095	1	37	0.00511455	0.00162834	0	-0.000158123	1.41267	0.97087	24.9673	3.6713e-05	3.10879e-05	3.92245e-05	1.27515e-05	1.96704e-05	2.18297e-05	0.562648	0.278019	10.9116	3.71525e-06	2.37293e-06	2.91155e-06	4.52518e-06	3.2239e-06	4.34621e-06	0.310423	0.0707047	0.318374	12.8313	564.095	2476.61	2540.04	-77.1687	0.0000000E+000	0.0000000E+000	0.0000000E+000	77.1687	0.0000000E+000	0.0000000E+000	0.0000000E+000	-77.1687	0.0000000E+000	0.0000000E+000	0.0000000E+000	-12.8313	0.0000000E+000	0.0000000E+000	0.0000000E+000	12.8313	4.39042	77.1687	-1.75674e-05
15847.7	3.0867	0.864359	3.20544	-15.6436	784.469	0.441181	-0.06062	11.6188	0.844836	1	37	0.00506459	0.00158	0	-0.000173953	1.37768	0.515064	25.2948	1.35088e-05	2.02672e-05	2.33322e-05	2.42167e-05	3.20768e-05	4.35838e-05	0.632277	0.341838	11.3364	4.65804e-06	5.34309e-06	3.5011e-06	3.23543e-06	2.73949e-06	3.88513e-06	0.300413	0.0841237	0.311969	15.6436	844.836	3016.99	3133.04	-74.3564	0.0000000E+000	0.0000000E+000	0.0000000E+000	74.3564	0.0000000E+000	0.0000000E+000	0.0000000E+000	-74.3564	0.0000000E+000	0.0000000E+000	0.0000000E+000	-15.6436	0.0000000E+000	0.0000000E+000	0.0000000E+000	15.6436	3.57109	74.3564	-1.58296e-05
12590.9	3.15498	1.02756	3.31809	-18.0401	785.284	0.441166	-0.0675062	12.3015	1.17975	1	37	0.00518072	0.00156135	0	-0.000188415	1.39152	0.827609	25.0587	2.92649e-05	2.60407e-05	8.96206e-06	3.37809e-05	2.86176e-05	2.96908e-05	0.587087	0.519211	11.3158	2.97007e-06	3.62898e-06	2.5493e-06	3.30941e-06	3.0372e-06	5.19703e-06	0.286562	0.0933315	0.301378	18.0401	1179.75	3622.27	3809.55	-71.9599	0.0000000E+000	0.0000000E+000	0.0000000E+000	71.9599	0.0000000E+000	0.0000000E+000	0.0000000E+000	-71.9599	0.0000000E+000	0.0000000E+000	0.0000000E+000	-18.0401	0.0000000E+000	0.0000000E+000	0.0000000E+000	18.0401	3.07037	71.9599	-1.44618e-05
10002.2	3.19001	1.24475	3.42426	-21.3158	786.099	0.441154	-0.0659614	12.7833	1.68916	1	37	0.00502886	0.0014686	0	-0.000206133	2.4467	0.551939	25.8284	2.08385e-05	3.32818e-05	3.19944e-05	0.000104639	2.87268e-05	1.37225e-05	0.720706	0.380307	12.387	4.55735e-06	2.879e-06	3.07823e-06	4.36574e-06	5.56776e-06	2.12568e-06	0.272056	0.106157	0.292034	21.3158	1689.16	4328.94	4646.83	-68.6842	0.0000000E+000	0.0000000E+000	0.0000000E+000	68.6842	0.0000000E+000	0.0000000E+000	0.0000000E+000	-68.6842	0.0000000E+000	0.0000000E+000	0.0000000E+000	-21.3158	0.0000000E+000	0.0000000E+000	0.0000000E+000	21.3158	2.56278	68.6842	-1.77179e-05
7944	3.23371	1.52604	3.5757	-25.2634	786.949	0.44107	-0.0635606	13.1285	2.39125	1	37	0.00517583	0.0014475	0	-0.000221378	1.45302	0.560028	25.2571	2.44517e-05	2.9404e-05	2.4831e-05	2.48486e-05	2.39471e-05	3.93889e-05	0.782259	0.783796	12.3165	6.43454e-06	3.28089e-06	2.53928e-06	5.18754e-06	4.69353e-06	3.88397e-06	0.252917	0.119356	0.279665	25.2634	2391.25	5067.09	5602.99	-64.7366	0.0000000E+000	0.0000000E+000	0.0000000E+000	64.7366	0.0000000E+000	0.0000000E+000	0.0000000E+000	-64.7366	0.0000000E+000	0.0000000E+000	0.0000000E+000	-25.2634	0.0000000E+000	0.0000000E+000	0.0000000E+000	25.2634	2.11902	64.7366	-1.52452e-05
6307.74	3.31317	1.87736	3.80809	-29.5375	787.851	0.441052	-0.0637095	13.44	3.26648	1	37	0.0049306	0.00129477	0	-0.000235362	1.73944	0.854106	25.915	2.21662e-05	6.04591e-05	1.53998e-05	3.21179e-05	2.33032e-05	3.11775e-05	0.651023	0.22439	13.8114	2.07183e-06	2.07743e-06	3.69636e-06	1.9147e-06	4.95936e-06	4.36985e-06	0.228469	0.129459	0.262598	29.5375	3266.48	5764.67	6625.81	-60.4625	0.0000000E+000	0.0000000E+000	0.0000000E+000	60.4625	0.0000000E+000	0.0000000E+000	0.0000000E+000	-60.4625	0.0000000E+000	0.0000000E+000	0.0000000E+000	-29.5375	0.0000000E+000	0.0000000E+000	0.0000000E+000	29.5375	1.7648	60.4625	-1.39838e-05
5011.6	3.37154	2.31842	4.09174	-34.5141	788.861	0.441064	-0.002836	13.6978	4.39763	1	38	0.00499915	0.00122177	0	-0.000241574	1.10374	0.462998	24.9543	2.28171e-05	1.93757e-05	2.11079e-05	2.36521e-05	2.0365e-05	2.20986e-05	0.191078	0.0606505	2.4065	1.82277e-06	5.52449e-07	9.17463e-07	4.93909e-07	5.56877e-07	5.04667e-07	0.201378	0.138476	0.244395	34.5141	4397.63	6395.22	7761.32	-55.4859	0.0000000E+000	0.0000000E+000	0.0000000E+000	55.4859	0.0000000E+000	0.0000000E+000	0.0000000E+000	-55.4859	0.0000000E+000	0.0000000E+000	0.0000000E+000	-34.5141	0.0000000E+000	0.0000000E+000	0.0000000E+000	34.5141	1.45424	55.4859	-6.21229e-06
3981.28	3.44683	2.8122	4.44849	-39.2103	789.604	0.441024	-0.00284345	14.2152	5.6809	1	38	0.00551927	0.00124071	0	-0.000241437	1.23108	0.520752	23.1746	2.91514e-05	2.55097e-05	1.7598e-05	2.73611e-05	1.96596e-05	3.41376e-05	0.179051	0.132545	2.44263	1.76621e-06	5.09455e-07	1.00612e-06	5.10609e-07	3.67803e-07	1.7402e-07	0.174178	0.142108	0.224795	39.2103	5680.9	6962.92	8986.38	-50.7897	0.0000000E+000	0.0000000E+000	0.0000000E+000	50.7897	0.0000000E+000	0.0000000E+000	0.0000000E+000	-50.7897	0.0000000E+000	0.0000000E+000	0.0000000E+000	-39.2103	0.0000000E+000	0.0000000E+000	0.0000000E+000	39.2103	1.22567	50.7897	1.37563e-07
3163.04	3.5476	3.46948	4.96213	-44.3622	790.569	0.441057	-0.00260513	14.5028	7.08996	1	38	0.00519928	0.00104779	0	-0.000242631	1.45153	0.617989	23.8302	1.99049e-05	2.74427e-05	2.07469e-05	2.70902e-05	3.16987e-05	3.89292e-05	0.259117	0.0928705	2.83364	2.04311e-06	2.56191e-07	8.30671e-07	9.71519e-07	6.87005e-07	8.86388e-07	0.144078	0.140906	0.201526	44.3622	7089.96	7249.58	10140.2	-45.6378	0.0000000E+000	0.0000000E+000	0.0000000E+000	45.6378	0.0000000E+000	0.0000000E+000	0.0000000E+000	-45.6378	0.0000000E+000	0.0000000E+000	0.0000000E+000	-44.3622	0.0000000E+000	0.0000000E+000	0.0000000E+000	44.3622	1.02251	45.6378	-1.19438e-06
2512.41	3.63195	4.25716	5.59594	-49.5312	791.312	0.441036	-0.00226626	14.8802	8.612	1	38	0.00513065	0.000916853	0	-0.000243757	1.27105	0.801167	24.2053	3.2659e-05	6.59029e-06	4.13605e-05	2.49758e-05	1.61032e-05	9.40695e-06	0.334771	0.102758	3.24137	2.19962e-06	9.62738e-07	6.48332e-07	1.56487e-06	5.5341e-07	6.31639e-07	0.115983	0.135949	0.178701	49.5312	8612	7347.24	11320.3	-40.4688	0.0000000E+000	0.0000000E+000	0.0000000E+000	40.4688	0.0000000E+000	0.0000000E+000	0.0000000E+000	-40.4688	0.0000000E+000	0.0000000E+000	0.0000000E+000	-49.5312	0.0000000E+000	0.0000000E+000	0.0000000E+000	49.5312	0.853139	40.4688	-1.1258e-06
1995.64	3.77163	5.27878	6.48774	-54.4546	792.055	0.441085	-0.00384891	15.1079	10.002	1	38	0.00501248	0.000772608	0	-0.000244375	1.1376	0.617896	25.2321	1.62276e-05	1.12188e-05	2.19616e-05	2.79524e-05	2.71973e-05	2.26685e-05	0.425171	0.103128	3.85073	2.57149e-06	1.06277e-06	7.86452e-07	8.10676e-07	1.02978e-06	7.59971e-07	0.0896071	0.125414	0.154137	54.4546	10002	7146.29	12292.6	-35.5454	0.0000000E+000	0.0000000E+000	0.0000000E+000	35.5454	0.0000000E+000	0.0000000E+000	0.0000000E+000	-35.5454	0.0000000E+000	0.0000000E+000	0.0000000E+000	-54.4546	0.0000000E+000	0.0000000E+000	0.0000000E+000	54.4546	0.714488	35.5454	-6.1818e-07
1584.49	3.93316	6.47908	7.57946	-58.7399	792.799	0.441078	-0.00270754	15.503	11.3284	1	38	0.00485138	0.00064007	0	-0.000245568	1.31546	0.761437	25.5155	1.29329e-05	2.12153e-05	4.06839e-05	2.96347e-05	1.76375e-05	1.67447e-05	0.564862	0.121454	4.64784	3.00672e-06	1.35563e-06	4.56164e-07	6.98051e-07	8.97333e-07	5.06603e-07	0.0684645	0.112781	0.131936	58.7399	11328.4	6876.94	13252.3	-31.2601	0.0000000E+000	0.0000000E+000	0.0000000E+000	31.2601	0.0000000E+000	0.0000000E+000	0.0000000E+000	-31.2601	0.0000000E+000	0.0000000E+000	0.0000000E+000	-58.7399	0.0000000E+000	0.0000000E+000	0.0000000E+000	58.7399	0.607055	31.2601	-1.19296e-06
1258.79	4.12992	8.06132	9.05765	-62.8733	793.542	0.441058	-0.00324937	15.6841	12.4234	1	38	0.00475473	0.000524941	0	-0.000246507	1.1994	0.720439	25.6407	3.15869e-05	2.7431e-05	1.69808e-05	1.04688e-05	2.05969e-05	2.36848e-05	0.48824	0.142952	5.7001	1.63577e-06	1.28542e-06	3.44101e-07	8.67424e-07	9.86814e-08	9.01534e-07	0.0503397	0.0982595	0.110404	62.8733	12423.4	6364.69	13958.9	-27.1267	0.0000000E+000	0.0000000E+000	0.0000000E+000	27.1267	0.0000000E+000	0.0000000E+000	0.0000000E+000	-27.1267	0.0000000E+000	0.0000000E+000	0.0000000E+000	-62.8733	0.0000000E+000	0.0000000E+000	0.0000000E+000	62.8733	0.512313	27.1267	-9.38845e-07
999.682	4.41233	9.9848	10.9163	-66.1591	794.286	0.44107	-0.00325682	15.9448	13.3398	1	38	0.00467845	0.000428576	0	-0.000247014	1.60531	0.8099	26.7133	1.08061e-05	2.84665e-05	4.13765e-05	2.67942e-05	1.5812e-05	4.02602e-05	0.585481	0.24776	6.91083	1.78264e-06	1.33947e-06	3.94898e-07	5.58063e-07	5.03631e-07	3.52391e-07	0.0370271	0.0837898	0.0916064	66.1591	13339.8	5894.92	14584.3	-23.8409	0.0000000E+000	0.0000000E+000	0.0000000E+000	23.8409	0.0000000E+000	0.0000000E+000	0.0000000E+000	-23.8409	0.0000000E+000	0.0000000E+000	0.0000000E+000	-66.1591	0.0000000E+000	0.0000000E+000	0.0000000E+000	66.1591	0.441905	23.8409	-5.0764e-07
794.239	4.72192	12.3042	13.1791	-69.0049	795.029	0.441055	-0.00289933	16.286	14.1954	1	38	0.00459809	0.000348892	0	-0.000247657	1.77612	1.0258	26.7537	6.32075e-05	7.03995e-06	3.17079e-05	1.30685e-05	2.77938e-05	2.39421e-05	0.693691	0.389998	8.57957	1.02972e-06	1.15921e-06	1.15818e-06	8.41707e-07	3.02652e-07	9.24149e-07	0.027186	0.0708401	0.0758775	69.0049	14195.4	5447.71	15204.8	-20.9951	0.0000000E+000	0.0000000E+000	0.0000000E+000	20.9951	0.0000000E+000	0.0000000E+000	0.0000000E+000	-20.9951	0.0000000E+000	0.0000000E+000	0.0000000E+000	-69.0049	0.0000000E+000	0.0000000E+000	0.0000000E+000	69.0049	0.383765	20.9951	-6.42812e-07
631.01	5.05678	15.2722	16.0876	-71.6797	795.774	0.441101	0.00130119	16.5152	14.8834	1	38	0.00456237	0.000283596	0	-0.000247219	1.64606	0.646911	27.6258	3.13993e-05	2.39049e-05	2.33871e-05	5.06858e-05	2.70905e-05	1.08431e-05	0.773749	0.243708	10.7666	1.15396e-06	1.1323e-06	6.3125e-07	1.07484e-06	2.76828e-07	4.40911e-07	0.0195386	0.0590092	0.0621598	71.6797	14883.4	4928.07	15678.1	-18.3203	0.0000000E+000	0.0000000E+000	0.0000000E+000	18.3203	0.0000000E+000	0.0000000E+000	0.0000000E+000	-18.3203	0.0000000E+000	0.0000000E+000	0.0000000E+000	-71.6797	0.0000000E+000	0.0000000E+000	0.0000000E+000	71.6797	0.331111	18.3203	4.38043e-07
501.122	5.57845	18.5839	19.4031	-73.2914	796.517	0.441075	-0.00164067	17.0899	15.6773	1	38	0.0044892	0.000231365	0	-0.000247363	1.56878	0.67474	28.0771	3.06113e-05	2.08737e-05	1.84489e-05	4.21828e-05	1.97807e-05	2.88573e-05	0.771535	0.46904	13.1111	1.19308e-06	5.99093e-07	3.39001e-07	5.93662e-07	7.34573e-07	4.50176e-07	0.0148174	0.0493623	0.0515382	73.2914	15677.3	4705.97	16368.4	-16.7086	0.0000000E+000	0.0000000E+000	0.0000000E+000	16.7086	0.0000000E+000	0.0000000E+000	0.0000000E+000	-16.7086	0.0000000E+000	0.0000000E+000	0.0000000E+000	-73.2914	0.0000000E+000	0.0000000E+000	0.0000000E+000	73.2914	0.300177	16.7086	-1.43805e-07
398.089	6.07973	23.1424	23.9276	-75.2804	797.484	0.441079	0.000679301	17.2756	16.1602	1	38	0.00492627	0.000205882	0	-0.000247236	1.12715	0.665476	24.7564	1.55017e-05	2.16207e-05	2.68103e-05	1.61393e-05	1.52708e-05	3.20628e-05	1.32627	0.331385	14.5022	1.53918e-06	5.40734e-07	9.20308e-07	1.70704e-06	8.22127e-07	5.19963e-07	0.010619	0.0404211	0.0417927	75.2804	16160.2	4245.46	16708.6	-14.7196	0.0000000E+000	0.0000000E+000	0.0000000E+000	14.7196	0.0000000E+000	0.0000000E+000	0.0000000E+000	-14.7196	0.0000000E+000	0.0000000E+000	0.0000000E+000	-75.2804	0.0000000E+000	0.0000000E+000	0.0000000E+000	75.2804	0.26271	14.7196	1.26719e-07
316.316	6.96555	28.8818	29.7098	-76.4407	798.478	0.441069	0.00166453	17.4211	16.4635	1	39	0.00513461	0.000172825	0	-0.000246645	1.14626	0.634472	24.9855	3.8899e-05	2.18504e-05	2.57864e-05	6.57632e-06	1.75161e-05	1.99756e-05	0.879411	0.178285	7.45541	1.01469e-06	5.00433e-07	2.38223e-07	8.81479e-07	3.16194e-07	2.29315e-07	0.00789141	0.0327207	0.0336589	76.4407	16463.5	3970.58	16935.5	-13.5593	0.0000000E+000	0.0000000E+000	0.0000000E+000	13.5593	0.0000000E+000	0.0000000E+000	0.0000000E+000	-13.5593	0.0000000E+000	0.0000000E+000	0.0000000E+000	-76.4407	0.0000000E+000	0.0000000E+000	0.0000000E+000	76.4407	0.241175	13.5594	5.90879e-07
251.206	7.92309	35.7906	36.6571	-77.5176	799.221	0.441086	0.00142764	17.7019	16.875	1	39	0.0050509	0.000137788	0	-0.000246127	1.26522	0.300695	24.1785	2.36459e-05	2.32273e-05	1.67521e-05	3.72742e-05	1.70379e-05	2.44446e-05	0.969944	0.132699	8.91344	8.09122e-07	4.35979e-07	7.30691e-08	8.44901e-07	2.74852e-07	2.92536e-07	0.00589627	0.026635	0.0272798	77.5176	16875	3735.66	17283.5	-12.4824	0.0000000E+000	0.0000000E+000	0.0000000E+000	12.4824	0.0000000E+000	0.0000000E+000	0.0000000E+000	-12.4824	0.0000000E+000	0.0000000E+000	0.0000000E+000	-77.5176	0.0000000E+000	0.0000000E+000	0.0000000E+000	77.5176	0.221373	12.4825	5.18625e-07
199.553	9.05297	44.4185	45.3317	-78.4803	799.966	0.441076	0.00150536	17.9555	17.2394	1	39	0.00500987	0.000110516	0	-0.000245803	1.26396	0.880592	24.8414	1.95655e-05	2.33938e-05	4.61517e-05	1.18689e-05	2.41932e-05	1.32019e-05	1.10481	0.383264	11.0646	2.78964e-07	6.26958e-07	1.90924e-07	8.61687e-07	2.80426e-07	2.38456e-07	0.00440542	0.0216153	0.0220596	78.4803	17239.4	3513.57	17593.8	-11.5197	0.0000000E+000	0.0000000E+000	0.0000000E+000	11.5197	0.0000000E+000	0.0000000E+000	0.0000000E+000	-11.5197	0.0000000E+000	0.0000000E+000	0.0000000E+000	-78.4803	0.0000000E+000	0.0000000E+000	0.0000000E+000	78.4803	0.203811	11.5197	3.23746e-07
158.529	10.8146	54.8141	55.8708	-78.8391	800.714	0.441067	0.0015499	18.3155	17.6293	1	39	0.00497555	8.90547e-05	0	-0.000245629	1.26995	0.539306	25.2172	2.97373e-05	1.95411e-05	1.92366e-05	2.72494e-05	3.20982e-05	1.26238e-05	1.00834	0.380205	13.6907	4.05356e-07	3.67893e-07	2.09317e-07	4.89263e-07	2.9693e-07	2.38001e-07	0.00346452	0.0175599	0.0178984	78.8391	17629.3	3478.2	17969.1	-11.1609	0.0000000E+000	0.0000000E+000	0.0000000E+000	11.1609	0.0000000E+000	0.0000000E+000	0.0000000E+000	-11.1609	0.0000000E+000	0.0000000E+000	0.0000000E+000	-78.8391	0.0000000E+000	0.0000000E+000	0.0000000E+000	78.8391	0.197297	11.1609	1.73689e-07
125.927	12.8478	67.7348	68.9425	-79.2599	801.454	0.441078	0.00115813	18.6591	18.0111	1	39	0.00494479	7.17233e-05	0	-0.000245317	1.27524	0.664389	24.7749	2.7588e-05	1.10294e-05	1.93733e-05	3.49135e-05	2.91743e-05	2.11048e-05	0.912975	0.233975	17.5381	3.63444e-07	1.41513e-07	3.48826e-07	2.32491e-07	1.99307e-07	1.95402e-07	0.00270304	0.0142507	0.0145048	79.2599	18011.1	3416.29	18332.2	-10.7401	0.0000000E+000	0.0000000E+000	0.0000000E+000	10.7401	0.0000000E+000	0.0000000E+000	0.0000000E+000	-10.7401	0.0000000E+000	0.0000000E+000	0.0000000E+000	-79.2599	0.0000000E+000	0.0000000E+000	0.0000000E+000	79.2599	0.189677	10.7401	3.12676e-07
99.9682	16.4065	83.3446	84.944	-78.8636	802.186	0.441079	0.00111713	19.1021	18.3895	1	39	0.00491679	5.78827e-05	0	-0.00024512	1.33085	0.781878	25.0819	1.805e-05	1.72966e-05	3.12752e-05	2.68014e-05	2.25166e-05	3.1799e-05	0.985698	0.503875	21.13	2.90575e-07	1.84485e-07	1.34937e-07	2.45057e-07	2.67265e-07	1.90424e-07	0.00227379	0.0115508	0.0117725	78.8636	18389.5	3620	18742.4	-11.1364	0.0000000E+000	0.0000000E+000	0.0000000E+000	11.1364	0.0000000E+000	0.0000000E+000	0.0000000E+000	-11.1364	0.0000000E+000	0.0000000E+000	0.0000000E+000	-78.8636	0.0000000E+000	0.0000000E+000	0.0000000E+000	78.8636	0.196852	11.1364	1.96738e-07