File: Python/Data/GoldElectrode/240322/Carbon/240322-CVEIS-5mM_Fe2Fe3-1M_H2SO4-0000RPM-Ag_AgCl_BLF8-GC_RDE_01_CV_C15.mpt
EC-Lab ASCII FILE
Nb header lines : 59

Cyclic Voltammetry

Run on channel : 15 (SN 19485)
User :
Electrode connection : standard
Potential control : Ewe
Ewe ctrl range : min = -1.00 V, max = 1.00 V
Ewe,I filtering : <None>
Safety Limits :
	Do not start on E overload
Channel : Floating
Acquisition started on : 03/22/2024 12:30:07.620
Loaded Setting File :  C:\Data\mathias\GoldElectrode\240321-CVEIS-5mM_Fe2Fe3-1M_H2SO4-0000RPM-Ag_AgCl_BLF8-Au_RDE.mps
Saved on :
	File : 240321-CVEIS-5mM_Fe2Fe3-1M_H2SO4-0000RPM-Ag_AgCl_BLF8-GC_RDE_01_CV_C15.mpr
	Directory : C:\Data\mathias\GoldElectrode\
	Host : 192.168.0.1
Device : VMP-300 (SN 0826)
Address : USB
EC-Lab for windows v11.52 (software)
Internet server v11.52 (firmware)
Command interpretor v11.52 (firmware)
Electrode material :
Initial state :
Electrolyte :
Comments :
Cable : special
Electrode surface area : 0.001 cm²
Characteristic mass : 0.001 g
Equivalent Weight : 0.000 g/eq.
Density : 0.000 g/cm3
Volume (V) : 0.001 cm³
Cycle Definition : Charge/Discharge alternance
Ei (V)              0.000
vs.                 Eoc
dE/dt               20.000
dE/dt unit          mV/s
E1 (V)              0.700
vs.                 Ref
Step percent        50
N                   10
E range min (V)     -1.000
E range max (V)     1.000
I Range             Auto
I Range min         Unset
I Range max         Unset
I Range init        Unset
Bandwidth           8
E2 (V)              0.000
vs.                 Ref
nc cycles           1
Reverse Scan        1
Ef (V)              0.000
vs.                 Eoc

mode	ox/red	error	control changes	counter inc.	time/s	control/V	Ewe/V	<I>/mA	cycle number	(Q-Qo)/C	I Range	step time/s	P/W
2	1	1	1	0	0.000000000000000E+000	0.442567	0.442447	0.00036739	1	0.0000000E+000	43	0.000000000000000E+000	1.62551e-07
2	1	0	1	0	0.2387	0.447339	0.447028	0.000595089	1	1.05789e-07	43	0.2249	2.66022e-07
2	1	0	1	0	0.4886	0.452337	0.452307	0.000888307	1	2.9138e-07	43	0.4748	4.01787e-07
2	1	0	1	0	0.7684	0.457932	0.457702	0.00122167	1	5.80835e-07	42	0.7546	5.59159e-07
2	1	0	1	0	1.0183	0.462932	0.46267	0.00151249	1	9.21983e-07	42	1.0045	6.99784e-07
2	1	0	1	0	1.2682	0.467929	0.467625	0.00182038	1	1.33845e-06	42	1.2544	8.51254e-07
2	1	0	1	0	1.5181	0.472927	0.47259	0.00214597	1	1.8341e-06	42	1.5043	1.01416e-06
2	1	0	1	0	1.768	0.477925	0.477759	0.00248766	1	2.41328e-06	42	1.7542	1.1885e-06
2	1	0	1	0	2.0179	0.482922	0.483053	0.00286321	1	3.08153e-06	42	2.0041	1.38308e-06
2	1	0	1	0	2.2678	0.487922	0.487586	0.00325383	1	3.84502e-06	42	2.254	1.58652e-06
2	1	0	1	0	2.5176	0.492918	0.49267	0.00368151	1	4.71102e-06	42	2.5038	1.81377e-06
2	1	0	1	0	2.7675	0.497915	0.497621	0.00414289	1	5.68835e-06	42	2.7537	2.06159e-06
2	1	0	1	0	3.0174	0.502913	0.502609	0.00463992	1	6.78591e-06	42	3.0036	2.33207e-06
2	1	0	1	0	3.2673	0.507911	0.507674	0.00518961	1	8.01419e-06	42	3.2535	2.63463e-06
2	1	0	1	0	3.5172	0.512908	0.512691	0.00578728	1	9.3851e-06	42	3.5034	2.96709e-06
2	1	0	1	0	3.767	0.517906	0.517547	0.00643646	1	1.09107e-05	42	3.7532	3.33117e-06
2	1	0	1	0	4.0169	0.522903	0.522512	0.00713962	1	1.26062e-05	42	4.0031	3.73054e-06
2	1	0	1	0	4.2668	0.527901	0.527556	0.00790688	1	1.44863e-05	42	4.253	4.17132e-06
2	1	0	1	0	4.5167	0.532899	0.532676	0.00875703	1	1.65682e-05	42	4.5029	4.66466e-06
2	1	0	1	0	4.7666	0.537896	0.537651	0.00966521	1	1.88686e-05	42	4.7528	5.19652e-06
2	1	0	1	0	5.0164	0.542894	0.54237	0.0106614	1	2.14067e-05	42	5.0026	5.78242e-06
2	1	0	1	0	5.2963	0.548491	0.547898	0.0118384	1	2.45574e-05	41	5.2825	6.48622e-06
2	1	0	1	0	5.5462	0.553489	0.553149	0.0130054	1	2.76722e-05	41	5.5324	7.19392e-06
2	1	0	1	0	5.7961	0.558487	0.558285	0.0142735	1	3.10919e-05	41	5.7823	7.96868e-06
2	1	0	1	0	6.046	0.563484	0.563259	0.0156345	1	3.48409e-05	41	6.0322	8.80624e-06
2	1	0	1	0	6.2958	0.568482	0.568269	0.0170687	1	3.89408e-05	41	6.282	9.6996e-06
2	1	0	1	0	6.5457	0.57348	0.573406	0.0186695	1	4.34186e-05	41	6.5319	1.07052e-05
2	1	0	1	0	6.7956	0.578477	0.578211	0.0202734	1	4.82963e-05	41	6.7818	1.17223e-05
2	1	0	1	0	7.0455	0.583475	0.583264	0.0220468	1	5.35974e-05	41	7.0317	1.28591e-05
2	1	0	1	0	7.2954	0.588472	0.58843	0.0238543	1	5.93437e-05	41	7.2816	1.40366e-05
2	1	0	1	0	7.5452	0.593469	0.593271	0.0257548	1	6.55527e-05	41	7.5314	1.52796e-05
2	1	0	1	0	7.7951	0.598468	0.598103	0.0277499	1	7.22492e-05	41	7.7813	1.65973e-05
2	1	0	1	0	8.045	0.603465	0.603316	0.0297699	1	7.94471e-05	41	8.0312	1.79607e-05
2	1	0	1	0	8.2949	0.608463	0.608184	0.0318868	1	8.71609e-05	41	8.2811	1.93931e-05
2	1	0	1	0	8.5448	0.613461	0.613115	0.0339876	1	9.54028e-05	41	8.531	2.08383e-05
2	1	0	1	0	8.7947	0.618458	0.618337	0.0361297	1	0.000104179	41	8.7809	2.23403e-05
2	1	0	1	0	9.0445	0.623456	0.623344	0.0383051	1	0.000113493	41	9.0307	2.38772e-05
2	1	0	1	0	9.2944	0.628453	0.628085	0.0404535	1	0.000123351	41	9.2806	2.54082e-05
2	1	0	1	0	9.5443	0.633451	0.633218	0.0426413	1	0.000133751	41	9.5305	2.70013e-05
2	1	0	1	0	9.7942	0.638449	0.638279	0.0447764	1	0.000144686	41	9.7804	2.85798e-05
2	1	0	1	0	10.0441	0.643446	0.643202	0.0468561	1	0.000156149	41	10.0303	3.01379e-05
2	1	0	1	0	10.294	0.648445	0.648215	0.0488865	1	0.00016813	41	10.2802	3.1689e-05
2	1	0	1	0	10.5438	0.653442	0.653465	0.0508499	1	0.000180608	41	10.53	3.32286e-05
2	1	0	1	0	10.7937	0.658439	0.658064	0.0527977	1	0.000193577	41	10.7799	3.47443e-05
2	1	0	1	0	11.0436	0.663437	0.663211	0.0546256	1	0.000207016	41	11.0298	3.62283e-05
2	1	0	1	0	11.2935	0.668435	0.668056	0.0563822	1	0.000220902	41	11.2797	3.76665e-05
2	1	0	1	0	11.5434	0.673432	0.672827	0.0580264	1	0.000235211	41	11.5296	3.90418e-05
2	1	0	1	0	11.7932	0.67843	0.678129	0.0595515	1	0.000249913	41	11.7794	4.03836e-05
2	1	0	1	0	12.0431	0.683428	0.683177	0.0610094	1	0.000264992	41	12.0293	4.16802e-05
2	1	0	1	0	12.293	0.688425	0.687973	0.0623005	1	0.000280413	41	12.2792	4.28611e-05
2	1	0	1	0	12.5429	0.693423	0.693206	0.0634838	1	0.000296146	41	12.5291	4.40073e-05
2	1	0	1	0	12.7928	0.69842	0.698326	0.0645509	1	0.000312162	41	12.779	4.50776e-05
2	1	0	1	0	13.0107	0.697221	0.69686	0.0606016	1	0.000325946	41	12.9969	4.22309e-05
2	1	0	1	0	13.2606	0.692223	0.691651	0.0552009	1	0.000340366	41	13.2468	3.81798e-05
2	1	0	1	0	13.5105	0.687226	0.687027	0.0508828	1	0.000353591	41	13.4967	3.49579e-05
2	1	0	1	0	13.7604	0.682227	0.681753	0.0471912	1	0.000365822	41	13.7466	3.21727e-05
2	1	0	1	0	14.0102	0.67723	0.676987	0.0439819	1	0.000377192	41	13.9964	2.97751e-05
2	1	0	1	0	14.2601	0.672233	0.671928	0.041109	1	0.000387805	41	14.2463	2.76223e-05
2	1	0	1	0	14.51	0.667235	0.666972	0.0384887	1	0.000397731	41	14.4962	2.56709e-05
2	1	0	1	0	14.7599	0.662238	0.661968	0.0360834	1	0.000407028	41	14.7461	2.38861e-05
2	1	0	1	0	15.0098	0.65724	0.656917	0.0338305	1	0.000415744	41	14.996	2.22239e-05
2	1	0	1	0	15.2596	0.652242	0.652038	0.0317247	1	0.000423916	41	15.2458	2.06857e-05
2	1	0	1	0	15.5095	0.647245	0.646707	0.0297823	1	0.000431583	41	15.4957	1.92604e-05
2	1	0	1	0	15.7594	0.642247	0.642198	0.0279097	1	0.000438773	41	15.7456	1.79235e-05
2	1	0	1	0	16.0093	0.637249	0.63695	0.0261303	1	0.000445509	41	15.9955	1.66437e-05
2	1	0	1	0	16.2592	0.632252	0.631713	0.0244965	1	0.000451816	41	16.2454	1.54748e-05
2	1	0	1	0	16.509	0.627254	0.626747	0.0228698	1	0.000457714	41	16.4952	1.43336e-05
2	1	0	1	0	16.7589	0.622256	0.621866	0.0213439	1	0.000463223	41	16.7451	1.3273e-05
2	1	0	1	0	17.0088	0.617259	0.617059	0.0198943	1	0.000468362	41	16.995	1.22759e-05
2	1	0	1	0	17.2587	0.612261	0.612005	0.018521	1	0.000473148	41	17.2449	1.13349e-05
2	1	0	1	0	17.5086	0.607264	0.607073	0.0171928	1	0.000477596	41	17.4948	1.04373e-05
2	1	0	1	0	17.7585	0.602266	0.601911	0.0159472	1	0.000481723	41	17.7447	9.59879e-06
2	1	0	1	0	18.0083	0.597268	0.597019	0.0147568	1	0.000485543	41	17.9945	8.81012e-06
2	1	0	1	0	18.2582	0.592271	0.591652	0.0136223	1	0.000489076	41	18.2444	8.05969e-06
2	1	0	1	0	18.5081	0.587273	0.586922	0.012553	1	0.000492333	41	18.4943	7.36761e-06
2	1	0	1	0	18.758	0.582275	0.581782	0.011542	1	0.000495332	41	18.7442	6.71495e-06
2	1	0	1	0	19.0079	0.577278	0.576733	0.0105974	1	0.000498084	41	18.9941	6.11186e-06
2	1	0	1	0	19.2578	0.572278	0.571869	0.0096982	1	0.000500606	41	19.244	5.54609e-06
2	1	0	1	0	19.5076	0.567282	0.566994	0.00886254	1	0.00050291	41	19.4938	5.02501e-06
2	1	0	1	0	19.7575	0.562285	0.561954	0.00805727	1	0.000505013	41	19.7437	4.52781e-06
2	1	0	1	0	20.0074	0.557287	0.557007	0.00733299	1	0.000506924	41	19.9936	4.08453e-06
2	1	0	1	0	20.2573	0.55229	0.551919	0.00664203	1	0.000508658	41	20.2435	3.66586e-06
2	1	0	1	0	20.5072	0.547292	0.547022	0.00602973	1	0.000510227	41	20.4934	3.2984e-06
2	1	0	1	0	20.757	0.542294	0.541897	0.00541068	1	0.000511642	41	20.7432	2.93203e-06
2	1	0	1	0	21.0069	0.537297	0.537023	0.00485085	1	0.000512915	41	20.9931	2.60502e-06
2	1	0	1	0	21.2718	0.531999	0.531489	0.00446896	1	0.00051412	41	21.258	2.3752e-06
2	1	0	1	0	21.5367	0.526702	0.526177	0.00377011	1	0.000515186	42	21.5229	1.98375e-06
2	1	0	1	0	21.7866	0.521704	0.521274	0.00332834	1	0.000516071	42	21.7728	1.73497e-06
2	1	0	1	0	22.0364	0.516706	0.516332	0.00290875	1	0.000516849	42	22.0226	1.50188e-06
2	1	0	1	0	22.2863	0.511709	0.51149	0.00252579	1	0.000517527	42	22.2725	1.29191e-06
2	1	0	1	0	22.5362	0.506711	0.506262	0.00216945	1	0.000518113	42	22.5224	1.09831e-06
2	1	0	1	0	22.7861	0.501714	0.501294	0.00183368	1	0.000518611	42	22.7723	9.19213e-07
2	1	0	1	0	23.036	0.496716	0.496469	0.00151288	1	0.000519028	42	23.0222	7.51097e-07
2	1	0	1	0	23.2858	0.491718	0.491217	0.00121284	1	0.000519368	42	23.272	5.95767e-07
2	1	0	1	0	23.5357	0.486721	0.486492	0.000929392	1	0.000519635	42	23.5219	4.52141e-07
2	1	0	1	0	23.7856	0.481723	0.481084	0.000661377	1	0.000519832	42	23.7718	3.18178e-07
2	1	0	1	0	24.0655	0.476126	0.476089	0.000365167	1	0.000519977	43	24.0517	1.73852e-07
2	1	0	1	0	24.3154	0.471128	0.470619	0.000119665	1	0.000520037	43	24.3016	5.63168e-08
2	0	0	1	0	24.5652	0.46613	0.4657	-0.000126468	1	0.000520036	43	0.0999	-5.8896e-08
2	0	0	1	0	24.8151	0.461133	0.460958	-0.000366499	1	0.000519974	43	0.3498	-1.68941e-07
2	0	0	1	0	25.065	0.456135	0.455856	-0.000594552	1	0.000519853	43	0.5997	-2.7103e-07
2	0	0	1	0	25.3149	0.451137	0.450777	-0.000833367	1	0.000519674	43	0.8496	-3.75663e-07
2	0	0	1	0	25.5648	0.44614	0.445799	-0.00106633	1	0.000519437	43	1.0995	-4.75369e-07
2	0	0	1	0	25.8446	0.440542	0.440068	-0.00133042	1	0.000519107	42	1.3793	-5.85475e-07
2	0	0	1	0	26.0945	0.435545	0.435081	-0.00156456	1	0.000518745	42	1.6292	-6.80713e-07
2	0	0	1	0	26.3444	0.430547	0.430089	-0.00182095	1	0.000518322	42	1.8791	-7.83173e-07
2	0	0	1	0	26.5943	0.42555	0.425169	-0.00206957	1	0.000517837	42	2.129	-8.79917e-07
2	0	0	1	0	26.8442	0.420552	0.420081	-0.00233907	1	0.000517287	42	2.3789	-9.82597e-07
2	0	0	1	0	27.094	0.415554	0.415197	-0.00259635	1	0.000516669	42	2.6287	-1.078e-06
2	0	0	1	0	27.3439	0.410557	0.410224	-0.00290065	1	0.000515981	42	2.8786	-1.18992e-06
2	0	0	1	0	27.5938	0.405559	0.405264	-0.00320225	1	0.000515219	42	3.1285	-1.29776e-06
2	0	0	1	0	27.8437	0.400561	0.400184	-0.00352578	1	0.000514378	42	3.3784	-1.41096e-06
2	0	0	1	0	28.0936	0.395564	0.395361	-0.00387163	1	0.000513454	42	3.6283	-1.53069e-06
2	0	0	1	0	28.3434	0.390567	0.390406	-0.00424139	1	0.000512441	42	3.8781	-1.65586e-06
2	0	0	1	0	28.5933	0.385568	0.385372	-0.00462833	1	0.000511333	42	4.128	-1.78363e-06
2	0	0	1	0	28.8432	0.380571	0.380158	-0.0050443	1	0.000510125	42	4.3779	-1.91763e-06
2	0	0	1	0	29.0931	0.375573	0.375321	-0.0054937	1	0.000508808	42	4.6278	-2.0619e-06
2	0	0	1	0	29.343	0.370576	0.370257	-0.00597878	1	0.000507374	42	4.8777	-2.21369e-06
2	0	0	1	0	29.5929	0.365578	0.365506	-0.00650383	1	0.000505815	42	5.1276	-2.37719e-06
2	0	0	1	0	29.8427	0.36058	0.360218	-0.00705693	1	0.000504123	42	5.3774	-2.54203e-06
2	0	0	1	0	30.0926	0.355583	0.355257	-0.0076539	1	0.000502285	42	5.6273	-2.7191e-06
2	0	0	1	0	30.3425	0.350585	0.350221	-0.00830361	1	0.000500292	42	5.8772	-2.90809e-06
2	0	0	1	0	30.5924	0.345587	0.345365	-0.00899723	1	0.00049813	42	6.1271	-3.10733e-06
2	0	0	1	0	30.8423	0.34059	0.340072	-0.00974028	1	0.000495788	42	6.377	-3.31239e-06
2	0	0	1	0	31.0922	0.335591	0.335369	-0.0105552	1	0.000493252	42	6.6269	-3.53987e-06
2	0	0	1	0	31.372	0.329995	0.329668	-0.011495	1	0.000490165	41	6.9067	-3.78951e-06
2	0	0	1	0	31.6219	0.324997	0.324693	-0.0124412	1	0.000487168	41	7.1566	-4.03958e-06
2	0	0	1	0	31.8718	0.319999	0.319624	-0.0134224	1	0.000483929	41	7.4065	-4.29011e-06
2	0	0	1	0	32.1217	0.315002	0.314894	-0.0145232	1	0.000480429	41	7.6564	-4.57325e-06
2	0	0	1	0	32.3715	0.310004	0.309652	-0.0156839	1	0.00047665	41	7.9062	-4.85655e-06
2	0	0	1	0	32.6214	0.305007	0.304656	-0.0169168	1	0.000472569	41	8.1561	-5.1538e-06
2	0	0	1	0	32.8713	0.300009	0.299655	-0.0182378	1	0.000468168	41	8.406	-5.46504e-06
2	0	0	1	0	33.1212	0.295011	0.294619	-0.0196364	1	0.000463425	41	8.6559	-5.78527e-06
2	0	0	1	0	33.3711	0.290014	0.289721	-0.0211566	1	0.000458316	41	8.9058	-6.12952e-06
2	0	0	1	0	33.621	0.285016	0.284867	-0.0227723	1	0.00045282	41	9.1557	-6.4871e-06
2	0	0	1	0	33.8708	0.280018	0.279666	-0.0244633	1	0.000446914	41	9.4055	-6.84156e-06
2	0	0	1	0	34.1207	0.275021	0.274702	-0.0262558	1	0.000440568	41	9.6554	-7.21252e-06
2	0	0	1	0	34.3706	0.270023	0.269816	-0.0281589	1	0.00043376	41	9.9053	-7.59773e-06
2	0	0	1	0	34.6205	0.265026	0.264721	-0.0301537	1	0.000426462	41	10.1552	-7.98232e-06
2	0	0	1	0	34.8704	0.260028	0.25975	-0.0322923	1	0.000418651	41	10.4051	-8.38792e-06
2	0	0	1	0	35.1202	0.25503	0.254569	-0.0344829	1	0.000410304	41	10.6549	-8.77828e-06
2	0	0	1	0	35.3701	0.250033	0.250024	-0.0367775	1	0.000401388	41	10.9048	-9.19526e-06
2	0	0	1	0	35.62	0.245035	0.24467	-0.0391996	1	0.000391883	41	11.1547	-9.59095e-06
2	0	0	1	0	35.8699	0.240037	0.239673	-0.0417214	1	0.000381764	41	11.4046	-9.99951e-06
2	0	0	1	0	36.1198	0.23504	0.234675	-0.044295	1	0.000371011	41	11.6545	-1.03949e-05
2	0	0	1	0	36.3696	0.230043	0.229611	-0.0469366	1	0.000359606	41	11.9043	-1.07771e-05
2	0	0	1	0	36.6195	0.225044	0.224676	-0.0496931	1	0.000347521	41	12.1542	-1.11648e-05
2	0	0	1	0	36.8694	0.220047	0.219705	-0.0524736	1	0.000334747	41	12.4041	-1.15287e-05
2	0	0	1	0	37.1193	0.215049	0.214706	-0.0553236	1	0.000321268	41	12.654	-1.18783e-05
2	0	0	1	0	37.3692	0.210052	0.209489	-0.0581927	1	0.000307076	41	12.9039	-1.21907e-05
2	0	0	1	0	37.6191	0.205054	0.204771	-0.0611005	1	0.000292163	41	13.1538	-1.25116e-05
2	0	0	1	0	37.8689	0.200056	0.199827	-0.0639778	1	0.000276532	41	13.4036	-1.27845e-05
2	0	0	1	0	38.1188	0.195059	0.194977	-0.0668376	1	0.000260173	41	13.6535	-1.30318e-05
2	0	0	1	0	38.3687	0.190061	0.189858	-0.0696857	1	0.000243101	41	13.9034	-1.32304e-05
2	0	0	1	0	38.6186	0.185063	0.184688	-0.0724653	1	0.000225327	41	14.1533	-1.33835e-05
2	0	0	1	0	38.8685	0.180066	0.179876	-0.0752107	1	0.000206863	41	14.4032	-1.35286e-05
2	0	0	1	0	39.1184	0.175067	0.174867	-0.0777956	1	0.000187734	41	14.6531	-1.36039e-05
2	0	0	1	0	39.3682	0.17007	0.169753	-0.0803068	1	0.000167973	41	14.9029	-1.36324e-05
2	0	0	1	0	39.6181	0.165073	0.16474	-0.0826859	1	0.000147593	41	15.1528	-1.36217e-05
2	0	0	1	0	39.868	0.160075	0.159596	-0.0848674	1	0.000126641	41	15.4027	-1.35445e-05
2	0	0	1	0	40.1179	0.155078	0.154737	-0.0869887	1	0.000105152	41	15.6526	-1.34604e-05
2	0	0	1	0	40.3678	0.15008	0.149785	-0.0888597	1	8.31685e-05	41	15.9025	-1.33098e-05
2	0	0	1	0	40.6176	0.145082	0.144705	-0.0905651	1	6.07442e-05	41	16.1523	-1.31053e-05
2	0	0	1	0	40.8675	0.140085	0.139972	-0.0920669	1	3.79107e-05	41	16.4022	-1.28868e-05
2	0	0	1	0	41.1174	0.135087	0.134852	-0.093379	1	1.47267e-05	41	16.6521	-1.25923e-05
2	0	0	1	0	41.3673	0.130089	0.129769	-0.0944609	1	-8.75751e-06	41	16.902	-1.22581e-05
2	0	0	1	0	41.6172	0.125092	0.124868	-0.0953409	1	-3.24877e-05	41	17.1519	-1.19051e-05
2	0	0	1	0	41.867	0.120095	0.11972	-0.0960264	1	-5.64045e-05	41	17.4017	-1.14963e-05
2	0	0	1	0	42.1169	0.115096	0.114712	-0.0965221	1	-8.04782e-05	41	17.6516	-1.10723e-05
2	0	0	1	0	42.3668	0.110099	0.109696	-0.09681	1	-0.000104646	41	17.9015	-1.06197e-05
2	0	0	1	0	42.6167	0.105101	0.104998	-0.0969065	1	-0.000128864	41	18.1514	-1.0175e-05
2	0	0	1	0	42.8666	0.100104	0.0998824	-0.0968244	1	-0.000153083	41	18.4013	-9.67106e-06
2	0	0	1	0	43.1165	0.095106	0.0947379	-0.096577	1	-0.000177262	41	18.6512	-9.1495e-06
2	0	0	1	0	43.3663	0.0901083	0.0896976	-0.0962031	1	-0.000201355	41	18.901	-8.62919e-06
2	0	0	1	0	43.6162	0.0851107	0.0850304	-0.0956845	1	-0.000225343	41	19.1509	-8.1361e-06
2	0	0	1	0	43.8661	0.0801131	0.079784	-0.0950443	1	-0.000249186	41	19.4008	-7.58301e-06
2	0	0	1	0	44.116	0.0751154	0.0747675	-0.0942727	1	-0.000272855	41	19.6507	-7.04854e-06
2	0	0	1	0	44.3659	0.0701178	0.0699837	-0.0934535	1	-0.000296324	41	19.9006	-6.54022e-06
2	0	0	1	0	44.6158	0.0651193	0.064789	-0.0925276	1	-0.000319571	41	20.1505	-5.99477e-06
2	0	0	1	0	44.8656	0.0601225	0.059747	-0.0915144	1	-0.00034257	41	20.4003	-5.46772e-06
2	0	0	1	0	45.1155	0.0551249	0.0546623	-0.0905108	1	-0.000365326	41	20.6502	-4.94752e-06
2	0	0	1	0	45.3654	0.0501273	0.0497182	-0.0894095	1	-0.000387818	41	20.9001	-4.44528e-06
2	0	0	1	0	45.6153	0.0451296	0.0447314	-0.0883258	1	-0.000410036	41	21.15	-3.95094e-06
2	0	0	1	0	45.8652	0.040132	0.039743	-0.0871746	1	-0.000431974	41	21.3999	-3.46458e-06
2	0	0	1	0	46.115	0.0351343	0.0345701	-0.0860586	1	-0.000453621	41	21.6497	-2.97506e-06
2	0	0	1	0	46.3649	0.0301367	0.0301966	-0.0848979	1	-0.00047499	41	21.8996	-2.56363e-06
2	0	0	1	0	46.6148	0.0251391	0.0251569	-0.0837709	1	-0.000496074	41	22.1495	-2.10742e-06
2	0	0	1	0	46.8647	0.0201414	0.0197423	-0.0826353	1	-0.000516875	41	22.3994	-1.63141e-06
2	0	0	1	0	47.1146	0.0151438	0.0149592	-0.0815296	1	-0.000537396	41	22.6493	-1.21962e-06
2	0	0	1	0	47.3644	0.0101471	0.0099903	-0.0804083	1	-0.00055763	41	22.8991	-8.03303e-07
2	0	0	1	0	47.6143	0.00514855	0.00494756	-0.0793178	1	-0.000577598	41	23.149	-3.92429e-07
2	0	0	1	0	47.8605	0.000224876	-2.07616e-05	-0.0783086	1	-0.00059701	41	23.3952	1.62581e-09
2	0	0	1	1	48.0594	0.00374921	0.00352988	-0.0740117	1	-0.000612081	41	23.5941	-2.61253e-07
2	0	0	1	1	48.3093	0.00874684	0.00868406	-0.0708991	1	-0.000630156	41	23.844	-6.15692e-07
2	0	0	1	1	48.5592	0.0137445	0.0133731	-0.0684069	1	-0.000647541	41	24.0939	-9.14811e-07
2	0	0	1	1	48.809	0.0187417	0.0186402	-0.0662691	1	-0.000664345	41	24.3437	-1.23527e-06
2	0	0	1	1	49.0589	0.0237397	0.0237364	-0.0643234	1	-0.000680647	41	24.5936	-1.52681e-06
2	0	0	1	1	49.3088	0.0287374	0.0286028	-0.0625678	1	-0.000696489	41	24.8435	-1.78961e-06
2	0	0	1	1	49.5587	0.033735	0.0334329	-0.06088	1	-0.000711902	41	25.0934	-2.0354e-06
2	0	0	1	1	49.8086	0.0387327	0.0385163	-0.0593254	1	-0.000726911	41	25.3433	-2.28499e-06
2	0	0	1	1	50.0584	0.0437285	0.0434601	-0.0578182	1	-0.000741531	41	25.5931	-2.51278e-06
2	0	0	1	1	50.3083	0.0487279	0.0483554	-0.0563882	1	-0.000755791	41	25.843	-2.72668e-06
2	0	0	1	1	50.5582	0.0537255	0.0534566	-0.0549742	1	-0.000769696	41	26.0929	-2.93873e-06
2	0	0	1	1	50.8081	0.0587232	0.0585724	-0.0536639	1	-0.000783258	41	26.3428	-3.14322e-06
2	0	0	1	1	51.058	0.0637208	0.0632763	-0.0523277	1	-0.000796485	41	26.5927	-3.3111e-06
2	0	0	1	1	51.3079	0.0687185	0.0684416	-0.0510341	1	-0.000809387	41	26.8426	-3.49286e-06
2	0	0	1	1	51.5578	0.0737179	0.0734103	-0.0497691	1	-0.000821969	41	27.0925	-3.65357e-06
2	0	0	1	1	51.8076	0.0787137	0.0783622	-0.0485215	1	-0.000834232	41	27.3423	-3.80225e-06
2	0	0	1	1	52.0575	0.0837114	0.0834039	-0.0472712	1	-0.00084619	41	27.5922	-3.9426e-06
2	0	0	1	1	52.3074	0.088709	0.0881935	-0.0460574	1	-0.000857842	41	27.8421	-4.06196e-06
2	0	0	1	1	52.5573	0.0937066	0.0936312	-0.0448565	1	-0.00086919	41	28.092	-4.19997e-06
2	0	0	1	1	52.8072	0.0987042	0.0983366	-0.0436434	1	-0.000880236	41	28.3419	-4.29174e-06
2	0	0	1	1	53.057	0.103702	0.103672	-0.0424622	1	-0.000890979	41	28.5917	-4.40214e-06
2	0	0	1	1	53.3069	0.1087	0.108406	-0.0412657	1	-0.00090143	41	28.8416	-4.47345e-06
2	0	0	1	1	53.5568	0.113697	0.113235	-0.0400791	1	-0.000911586	41	29.0915	-4.53837e-06
2	0	0	1	1	53.8067	0.118695	0.118418	-0.0389181	1	-0.000921449	41	29.3414	-4.6086e-06
2	0	0	1	1	54.0566	0.123692	0.123305	-0.0377659	1	-0.00093102	41	29.5913	-4.65671e-06
2	0	0	1	1	54.3064	0.12869	0.128591	-0.0365945	1	-0.000940298	41	29.8411	-4.70572e-06
2	0	0	1	1	54.5563	0.133688	0.13334	-0.0354358	1	-0.00094929	41	30.091	-4.72501e-06
2	0	0	1	1	54.8062	0.138685	0.138258	-0.0342842	1	-0.000957995	41	30.3409	-4.74004e-06
2	0	0	1	1	55.0561	0.143683	0.143319	-0.0331442	1	-0.000966414	41	30.5908	-4.75021e-06
2	0	0	1	1	55.306	0.148681	0.148343	-0.0320315	1	-0.000974549	41	30.8407	-4.75165e-06
2	0	0	1	1	55.5558	0.153676	0.153442	-0.0308913	1	-0.000982398	41	31.0905	-4.74001e-06
2	0	0	1	1	55.8057	0.158676	0.158497	-0.0297632	1	-0.000989971	41	31.3404	-4.71737e-06
2	0	0	1	1	56.0556	0.163674	0.163362	-0.0286864	1	-0.000997265	41	31.5903	-4.68627e-06
2	0	0	1	1	56.3055	0.168671	0.168318	-0.0275661	1	-0.00100428	41	31.8402	-4.63987e-06
2	0	0	1	1	56.5554	0.173669	0.173507	-0.0264932	1	-0.00101103	41	32.0901	-4.59676e-06
2	0	0	1	1	56.8053	0.178666	0.178174	-0.0254165	1	-0.00101751	41	32.34	-4.52856e-06
2	0	0	1	1	57.0551	0.183664	0.183538	-0.024366	1	-0.00102372	41	32.5898	-4.47207e-06
2	0	0	1	1	57.305	0.188662	0.188304	-0.0233578	1	-0.00102967	41	32.8397	-4.39837e-06
2	0	0	1	1	57.5549	0.193659	0.193208	-0.0223005	1	-0.00103536	41	33.0896	-4.30864e-06
2	0	0	1	1	57.8048	0.198657	0.198506	-0.021329	1	-0.0010408	41	33.3395	-4.23393e-06
2	0	0	1	1	58.0547	0.203655	0.203211	-0.0203316	1	-0.001046	41	33.5894	-4.1316e-06
2	0	0	1	1	58.3046	0.208653	0.208684	-0.0193639	1	-0.00105095	41	33.8393	-4.04094e-06
2	0	0	1	1	58.5544	0.21365	0.213379	-0.0184268	1	-0.00105566	41	34.0891	-3.9319e-06
2	0	0	1	1	58.8043	0.218647	0.218417	-0.0175274	1	-0.00106014	41	34.339	-3.82828e-06
2	0	0	1	1	59.0542	0.223645	0.223123	-0.0165935	1	-0.00106439	41	34.5889	-3.70239e-06
2	0	0	1	1	59.3041	0.228643	0.228502	-0.0157505	1	-0.00106843	41	34.8388	-3.59903e-06
2	0	0	1	1	59.554	0.23364	0.233499	-0.0149078	1	-0.00107225	41	35.0887	-3.48096e-06
2	0	0	1	1	59.8038	0.238638	0.238517	-0.0141066	1	-0.00107586	41	35.3385	-3.36465e-06
2	0	0	1	1	60.0537	0.243636	0.243425	-0.0133028	1	-0.00107927	41	35.5884	-3.23824e-06
2	0	0	1	1	60.3036	0.248633	0.248409	-0.0125393	1	-0.00108249	41	35.8383	-3.11487e-06
2	0	0	1	1	60.5535	0.253631	0.253446	-0.0118136	1	-0.00108552	41	36.0882	-2.99411e-06
2	0	0	1	1	60.8034	0.258629	0.258228	-0.0110928	1	-0.00108838	41	36.3381	-2.86447e-06
2	0	0	1	1	61.0532	0.263625	0.263413	-0.0104007	1	-0.00109105	41	36.5879	-2.73969e-06
2	0	0	1	1	61.3031	0.268624	0.268447	-0.00976127	1	-0.00109356	41	36.8378	-2.62038e-06
2	0	0	1	1	61.553	0.273621	0.272986	-0.00913123	1	-0.00109592	41	37.0877	-2.4927e-06
2	0	0	1	1	61.8029	0.278619	0.278198	-0.00852761	1	-0.00109811	41	37.3376	-2.37236e-06
2	0	0	1	1	62.0528	0.283617	0.283298	-0.00795837	1	-0.00110017	41	37.5875	-2.25459e-06
2	0	0	1	1	62.3027	0.288614	0.288323	-0.00742476	1	-0.00110208	41	37.8374	-2.14073e-06
2	0	0	1	1	62.5525	0.293612	0.293442	-0.00691621	1	-0.00110385	41	38.0872	-2.0295e-06
2	0	0	1	1	62.8024	0.29861	0.298337	-0.00640525	1	-0.0011055	41	38.3371	-1.91092e-06
2	0	0	1	1	63.0523	0.303607	0.303411	-0.00591248	1	-0.00110703	41	38.587	-1.79391e-06
2	0	0	1	1	63.3022	0.308605	0.308098	-0.00547053	1	-0.00110845	41	38.8369	-1.68546e-06
2	0	0	1	1	63.5521	0.313603	0.313079	-0.00502146	1	-0.00110975	41	39.0868	-1.57211e-06
2	0	0	1	1	63.802	0.318601	0.31833	-0.00461995	1	-0.00111094	41	39.3367	-1.47067e-06
2	0	0	1	1	64.0818	0.324198	0.323812	-0.00415946	1	-0.00111217	42	39.6165	-1.34688e-06
2	0	0	1	1	64.3317	0.329195	0.328842	-0.00379355	1	-0.00111316	42	39.8664	-1.24748e-06
2	0	0	1	1	64.5816	0.334193	0.333984	-0.0034506	1	-0.00111407	42	40.1163	-1.15244e-06
2	0	0	1	1	64.8315	0.33919	0.338747	-0.00311385	1	-0.00111489	42	40.3662	-1.05481e-06
2	0	0	1	1	65.0814	0.34419	0.343755	-0.00280035	1	-0.00111562	42	40.6161	-9.62633e-07
2	0	0	1	1	65.3312	0.349186	0.349108	-0.00249561	1	-0.00111628	42	40.8659	-8.71238e-07
2	0	0	1	1	65.5811	0.354183	0.353931	-0.00221361	1	-0.00111687	42	41.1158	-7.83465e-07
2	0	0	1	1	65.831	0.359181	0.358746	-0.00192674	1	-0.00111739	42	41.3657	-6.91213e-07
2	0	0	1	1	66.0809	0.364179	0.363885	-0.00166559	1	-0.00111783	42	41.6156	-6.06082e-07
2	0	0	1	1	66.3308	0.369176	0.368706	-0.00140277	1	-0.00111822	42	41.8655	-5.17211e-07
2	0	0	1	1	66.5806	0.374174	0.373919	-0.00116398	1	-0.00111854	42	42.1153	-4.35232e-07
2	0	0	1	1	66.8305	0.379172	0.378947	-0.000920257	1	-0.0011188	42	42.3652	-3.48729e-07
2	0	0	1	1	67.0804	0.384169	0.384163	-0.000691796	1	-0.001119	42	42.6151	-2.65762e-07
2	0	0	1	1	67.3303	0.389167	0.388722	-0.000458044	1	-0.00111914	42	42.865	-1.78052e-07
2	0	0	1	1	67.6401	0.395364	0.395004	-0.000182035	1	-0.00111924	42	43.1748	-7.19045e-08
2	1	0	1	1	67.92	0.400961	0.400785	6.99402e-05	1	-0.00111925	43	0.05	2.8031e-08
2	1	0	1	1	68.1699	0.405959	0.405409	0.000293629	1	-0.00111921	43	0.2999	1.1904e-07
2	1	0	1	1	68.4198	0.410957	0.410619	0.000520496	1	-0.00111911	43	0.5498	2.13726e-07
2	1	0	1	1	68.6696	0.415953	0.415799	0.000751112	1	-0.00111895	43	0.7996	3.12311e-07
2	1	0	1	1	68.9195	0.420952	0.420583	0.000979083	1	-0.00111873	43	1.0495	4.11786e-07
2	1	0	1	1	69.1994	0.426549	0.426257	0.00124186	1	-0.00111842	42	1.3294	5.2935e-07
2	1	0	1	1	69.4493	0.431547	0.431478	0.00149435	1	-0.00111808	42	1.5793	6.44778e-07
2	1	0	1	1	69.6992	0.436544	0.436468	0.00175425	1	-0.00111767	42	1.8292	7.65675e-07
2	1	0	1	1	69.9403	0.441368	0.44063	0.00205267	1	-0.00111722	42	2.0703	9.04467e-07
2	1	0	1	1	70.1589	0.44574	0.445275	0.00227453	2	-0.00111675	42	2.2889	1.01279e-06
2	1	0	1	1	70.4088	0.450738	0.450334	0.00258466	2	-0.00111614	42	2.5388	1.16396e-06
2	1	0	1	1	70.6587	0.455735	0.455515	0.0029037	2	-0.00111545	42	2.7887	1.32268e-06
2	1	0	1	1	70.9086	0.460733	0.460486	0.00325539	2	-0.00111468	42	3.0386	1.49906e-06
2	1	0	1	1	71.1585	0.465731	0.465382	0.00363191	2	-0.00111382	42	3.2885	1.69022e-06
2	1	0	1	1	71.4084	0.470729	0.470565	0.00404184	2	-0.00111286	42	3.5384	1.90195e-06
2	1	0	1	1	71.6582	0.475726	0.475335	0.00448419	2	-0.0011118	42	3.7882	2.13149e-06
2	1	0	1	1	71.9081	0.480723	0.48039	0.00496185	2	-0.00111062	42	4.0381	2.38362e-06
2	1	0	1	1	72.158	0.485721	0.485353	0.00548041	2	-0.00110931	42	4.288	2.65993e-06
2	1	0	1	1	72.4079	0.490719	0.490346	0.00605226	2	-0.00110787	42	4.5379	2.9677e-06
2	1	0	1	1	72.6578	0.495716	0.495632	0.00666187	2	-0.00110629	42	4.7878	3.30183e-06
2	1	0	1	1	72.9076	0.500714	0.500385	0.00734186	2	-0.00110454	42	5.0376	3.67376e-06
2	1	0	1	1	73.1575	0.505712	0.505473	0.00806906	2	-0.00110261	42	5.2875	4.07869e-06
2	1	0	1	1	73.4074	0.510709	0.51062	0.00887418	2	-0.0011005	42	5.5374	4.53133e-06
2	1	0	1	1	73.6573	0.515707	0.515265	0.00974362	2	-0.00109817	42	5.7873	5.02055e-06
2	1	0	1	1	73.9072	0.520705	0.520407	0.0107037	2	-0.00109562	42	6.0372	5.57027e-06
2	1	0	1	1	74.187	0.526302	0.525752	0.0118381	2	-0.00109246	41	6.317	6.22392e-06
2	1	0	1	1	74.4369	0.5313	0.530946	0.0129527	2	-0.00108935	41	6.5669	6.87721e-06
2	1	0	1	1	74.6868	0.536297	0.536093	0.0142007	2	-0.00108595	41	6.8168	7.61291e-06
2	1	0	1	1	74.9367	0.541295	0.541232	0.0155127	2	-0.00108222	41	7.0667	8.39596e-06
2	1	0	1	1	75.1866	0.546292	0.545841	0.0169731	2	-0.00107815	41	7.3166	9.2646e-06
2	1	0	1	1	75.4364	0.55129	0.550983	0.0185355	2	-0.0010737	41	7.5664	1.02127e-05
2	1	0	1	1	75.6863	0.556288	0.555899	0.020227	2	-0.00106885	41	7.8163	1.12442e-05
2	1	0	1	1	75.9362	0.561285	0.561062	0.0219981	2	-0.00106357	41	8.0662	1.23423e-05
2	1	0	1	1	76.1861	0.566283	0.566145	0.0239233	2	-0.00105782	41	8.3161	1.35441e-05
2	1	0	1	1	76.436	0.571281	0.57089	0.0259264	2	-0.00105158	41	8.566	1.48011e-05
2	1	0	1	1	76.6859	0.576278	0.576027	0.0280569	2	-0.00104482	41	8.8159	1.61615e-05
2	1	0	1	1	76.9357	0.581276	0.581096	0.0303193	2	-0.00103752	41	9.0657	1.76184e-05
2	1	0	1	1	77.1856	0.586273	0.585983	0.0326558	2	-0.00102964	41	9.3156	1.91358e-05
2	1	0	1	1	77.4355	0.591271	0.591116	0.0351035	2	-0.00102116	41	9.5655	2.07502e-05
2	1	0	1	1	77.6854	0.596269	0.595855	0.0375986	2	-0.00101206	41	9.8154	2.24033e-05
2	1	0	1	1	77.9353	0.601266	0.60091	0.0401857	2	-0.00100233	41	10.0653	2.4148e-05
2	1	0	1	1	78.1852	0.606266	0.605997	0.0428124	2	-0.000991947	41	10.3152	2.59442e-05
2	1	0	1	1	78.435	0.611262	0.611018	0.0454804	2	-0.000980905	41	10.565	2.77893e-05
2	1	0	1	1	78.6849	0.616259	0.615945	0.0481495	2	-0.000969191	41	10.8149	2.96575e-05
2	1	0	1	1	78.9348	0.621257	0.620997	0.0508488	2	-0.000956806	41	11.0648	3.15769e-05
2	1	0	1	1	79.1847	0.626255	0.626022	0.0535162	2	-0.000943751	41	11.3147	3.35023e-05
2	1	0	1	1	79.4346	0.631252	0.631117	0.0561404	2	-0.000930034	41	11.5646	3.54311e-05
2	1	0	1	1	79.6844	0.63625	0.636071	0.0587167	2	-0.000915669	41	11.8144	3.7348e-05
2	1	0	1	1	79.9343	0.641247	0.640998	0.061246	2	-0.000900662	41	12.0643	3.92586e-05
2	1	0	1	1	80.1842	0.646245	0.645747	0.0637017	2	-0.000885037	41	12.3142	4.11352e-05
2	1	0	1	1	80.4341	0.651243	0.650902	0.0660436	2	-0.000868813	41	12.5641	4.29879e-05
2	1	0	1	1	80.684	0.65624	0.65619	0.0682387	2	-0.000852021	41	12.814	4.47775e-05
2	1	0	1	1	80.9338	0.661238	0.661012	0.0703558	2	-0.00083469	41	13.0638	4.6506e-05
2	1	0	1	1	81.1837	0.666236	0.666064	0.0723483	2	-0.000816842	41	13.3137	4.81886e-05
2	1	0	1	1	81.4336	0.671233	0.670964	0.0741941	2	-0.000798515	41	13.5636	4.97815e-05
2	1	0	1	1	81.6835	0.676231	0.676012	0.0758921	2	-0.000779745	41	13.8135	5.13039e-05
2	1	0	1	1	81.9334	0.681229	0.680825	0.0774363	2	-0.000760572	41	14.0634	5.27206e-05
2	1	0	1	1	82.1832	0.686224	0.686051	0.0787911	2	-0.000741043	41	14.3132	5.40547e-05
2	1	0	1	1	82.4331	0.691224	0.691043	0.0799977	2	-0.000721185	41	14.5631	5.52819e-05
2	1	0	1	1	82.683	0.696221	0.695877	0.0810556	2	-0.000701047	41	14.813	5.64048e-05
2	1	0	1	1	82.911	0.699219	0.698786	0.0797822	2	-0.000682521	41	15.041	5.57507e-05
2	1	0	1	1	83.1608	0.694222	0.693872	0.0718602	2	-0.000663658	41	15.2908	4.98618e-05
2	1	0	1	1	83.4107	0.689225	0.688889	0.0657933	2	-0.000646501	41	15.5407	4.53243e-05
2	1	0	1	1	83.6606	0.684227	0.683997	0.0607362	2	-0.000630721	41	15.7906	4.15434e-05
2	1	0	1	1	83.9105	0.67923	0.678732	0.0563585	2	-0.000616117	41	16.0405	3.82523e-05
2	1	0	1	1	84.1604	0.674232	0.673783	0.0524814	2	-0.000602544	41	16.2904	3.53611e-05
2	1	0	1	1	84.4102	0.669234	0.668678	0.0489675	2	-0.000589901	41	16.5402	3.27435e-05
2	1	0	1	1	84.6601	0.664237	0.66386	0.0457364	2	-0.00057809	41	16.7901	3.03625e-05
2	1	0	1	1	84.91	0.659239	0.65882	0.0427848	2	-0.000567049	41	17.04	2.81875e-05
2	1	0	1	1	85.1599	0.654241	0.654023	0.0400436	2	-0.000556721	41	17.2899	2.61894e-05
2	1	0	1	1	85.4098	0.649244	0.64889	0.037473	2	-0.000547056	41	17.5398	2.43158e-05
2	1	0	1	1	85.6596	0.644247	0.643821	0.035052	2	-0.000538016	41	17.7896	2.25672e-05
2	1	0	1	1	85.9095	0.639248	0.638785	0.0327963	2	-0.000529556	41	18.0395	2.09498e-05
2	1	0	1	1	86.1594	0.634251	0.633995	0.0306337	2	-0.00052165	41	18.2894	1.94216e-05
2	1	0	1	1	86.4093	0.629253	0.628893	0.0285987	2	-0.000514266	41	18.5393	1.79855e-05
2	1	0	1	1	86.6592	0.624255	0.623806	0.0266673	2	-0.000507379	41	18.7892	1.66352e-05
2	1	0	1	1	86.9091	0.619258	0.619169	0.024854	2	-0.00050096	41	19.0391	1.53888e-05
2	1	0	1	1	87.1589	0.61426	0.613805	0.0230864	2	-0.000494994	41	19.2889	1.41706e-05
2	1	0	1	1	87.4088	0.609263	0.608976	0.0214423	2	-0.000489448	41	19.5388	1.30578e-05
2	1	0	1	1	87.6587	0.604265	0.603915	0.0198584	2	-0.000484306	41	19.7887	1.19928e-05
2	1	0	1	1	87.9086	0.599267	0.598709	0.0183868	2	-0.000479546	41	20.0386	1.10084e-05
2	1	0	1	1	88.1585	0.59427	0.594015	0.0169669	2	-0.000475149	41	20.2885	1.00786e-05
2	1	0	1	1	88.4084	0.589271	0.588901	0.0156108	2	-0.000471094	41	20.5384	9.19322e-06
2	1	0	1	1	88.6582	0.584274	0.583766	0.0143823	2	-0.000467364	41	20.7882	8.39591e-06
2	1	0	1	1	88.9081	0.579277	0.578703	0.0131826	2	-0.000463937	41	21.0381	7.6288e-06
2	1	0	1	1	89.158	0.574279	0.573824	0.0120971	2	-0.000460797	41	21.288	6.94162e-06
2	1	0	1	1	89.4079	0.569282	0.568838	0.0110415	2	-0.000457925	41	21.5379	6.28085e-06
2	1	0	1	1	89.6578	0.564284	0.564081	0.0100613	2	-0.000455305	41	21.7878	5.67541e-06
2	1	0	1	1	89.9076	0.559286	0.558991	0.00915057	2	-0.000452919	41	22.0376	5.11509e-06
2	1	0	1	1	90.1575	0.554289	0.554087	0.00830871	2	-0.000450752	41	22.2875	4.60375e-06
2	1	0	1	1	90.4074	0.549291	0.548989	0.00752083	2	-0.000448789	41	22.5374	4.12885e-06
2	1	0	1	1	90.6573	0.544293	0.544048	0.0067867	2	-0.000447014	41	22.7873	3.69229e-06
2	1	0	1	1	90.9072	0.539296	0.538875	0.00613157	2	-0.000445415	41	23.0372	3.30414e-06
2	1	0	1	1	91.157	0.534299	0.534219	0.00549768	2	-0.00044398	41	23.287	2.93697e-06
2	1	0	1	1	91.4069	0.5293	0.528958	0.00490744	2	-0.000442695	41	23.5369	2.59583e-06
2	1	0	1	1	91.6868	0.523703	0.523459	0.00428249	2	-0.000441419	42	23.8168	2.24171e-06
2	1	0	1	1	91.9367	0.518705	0.518543	0.00375379	2	-0.00044042	42	24.0667	1.9465e-06
2	1	0	1	1	92.1866	0.513708	0.513485	0.00328453	2	-0.000439542	42	24.3166	1.68656e-06
2	1	0	1	1	92.4364	0.50871	0.508387	0.00285401	2	-0.000438776	42	24.5664	1.45094e-06
2	1	0	1	1	92.6863	0.503713	0.503502	0.00244695	2	-0.000438115	42	24.8163	1.23205e-06
2	1	0	1	1	92.9362	0.498715	0.498245	0.00207751	2	-0.000437551	42	25.0662	1.03511e-06
2	1	0	1	1	93.1861	0.493717	0.493485	0.00171691	2	-0.000437078	42	25.3161	8.47267e-07
2	1	0	1	1	93.436	0.48872	0.488244	0.00138203	2	-0.000436691	42	25.566	6.74767e-07
2	1	0	1	1	93.6858	0.483723	0.483312	0.0010592	2	-0.000436386	42	25.8158	5.11923e-07
2	1	0	1	1	93.9357	0.478724	0.478321	0.000765362	2	-0.000436158	42	26.0657	3.66089e-07
2	1	0	1	1	94.1856	0.473727	0.473543	0.000472028	2	-0.000436003	42	26.3156	2.23525e-07
2	1	0	1	1	94.4655	0.468129	0.467838	0.000162258	2	-0.000435912	43	26.5955	7.59106e-08
2	0	0	1	1	94.7154	0.463132	0.462818	-0.000104894	2	-0.000435904	43	0.075	-4.85467e-08
2	0	0	1	1	94.9652	0.458135	0.457894	-0.000372829	2	-0.000435964	43	0.3248	-1.70716e-07
2	0	0	1	1	95.2151	0.453136	0.45305	-0.000626575	2	-0.000436088	43	0.5747	-2.8387e-07
2	0	0	1	1	95.465	0.448139	0.447944	-0.000881708	2	-0.000436278	43	0.8246	-3.94956e-07
2	0	0	1	1	95.7449	0.442542	0.44222	-0.0011093	2	-0.00043656	42	1.1045	-4.90554e-07
2	0	0	1	1	95.9948	0.437544	0.436823	-0.00142551	2	-0.000436885	42	1.3544	-6.22696e-07
2	0	0	1	1	96.2446	0.432546	0.432118	-0.00169558	2	-0.000437276	42	1.6042	-7.32691e-07
2	0	0	1	1	96.4945	0.427549	0.427139	-0.00196294	2	-0.000437733	42	1.8541	-8.38447e-07
2	0	0	1	1	96.7444	0.422551	0.422287	-0.00224666	2	-0.000438259	42	2.104	-9.48736e-07
2	0	0	1	1	96.9943	0.417553	0.417319	-0.00253192	2	-0.000438856	42	2.3539	-1.05662e-06
2	0	0	1	1	97.2442	0.412556	0.412302	-0.00283073	2	-0.000439526	42	2.6038	-1.16712e-06
2	0	0	1	1	97.494	0.407559	0.407081	-0.00314496	2	-0.000440273	42	2.8536	-1.28025e-06
2	0	0	1	1	97.7439	0.40256	0.402227	-0.00348847	2	-0.000441101	42	3.1035	-1.40316e-06
2	0	0	1	1	97.9938	0.397563	0.397194	-0.00383456	2	-0.000442014	42	3.3534	-1.52307e-06
2	0	0	1	1	98.2437	0.392565	0.392261	-0.00420016	2	-0.000443017	42	3.6033	-1.64756e-06
2	0	0	1	1	98.4936	0.387568	0.387366	-0.00459612	2	-0.000444116	42	3.8532	-1.78038e-06
2	0	0	1	1	98.7435	0.38257	0.382214	-0.00501608	2	-0.000445318	42	4.1031	-1.91722e-06
2	0	0	1	1	98.9933	0.377572	0.377296	-0.00547233	2	-0.000446628	42	4.3529	-2.06469e-06
2	0	0	1	1	99.2432	0.372575	0.372131	-0.00595908	2	-0.000448056	42	4.6028	-2.21755e-06
2	0	0	1	1	99.4931	0.367577	0.367222	-0.00647211	2	-0.000449609	42	4.8527	-2.3767e-06
2	0	0	1	1	99.743	0.362579	0.36217	-0.00703081	2	-0.000451297	42	5.1026	-2.54635e-06
2	0	0	1	1	99.9929	0.357582	0.357073	-0.0076304	2	-0.00045313	42	5.3525	-2.72461e-06
2	0	0	1	1	100.243	0.352583	0.352334	-0.00828331	2	-0.000455118	42	5.6024	-2.91849e-06
2	0	0	1	1	100.493	0.347586	0.347156	-0.00896808	2	-0.000457273	42	5.8522	-3.11332e-06
2	0	0	1	1	100.742	0.342589	0.342367	-0.00972233	2	-0.000459608	42	6.1021	-3.3286e-06
2	0	0	1	1	100.992	0.337591	0.337358	-0.0105157	2	-0.000462137	42	6.352	-3.54757e-06
2	0	0	1	1	101.272	0.331994	0.331697	-0.0114337	2	-0.000465215	41	6.6319	-3.79253e-06
2	0	0	1	1	101.522	0.326994	0.326916	-0.0124096	2	-0.000468202	41	6.8818	-4.05689e-06
2	0	0	1	1	101.772	0.321999	0.321411	-0.0133688	2	-0.00047143	41	7.1316	-4.29688e-06
2	0	0	1	1	102.022	0.317001	0.316749	-0.0144646	2	-0.000474918	41	7.3815	-4.58165e-06
2	0	0	1	1	102.272	0.312003	0.311651	-0.0156483	2	-0.000478684	41	7.6314	-4.87681e-06
2	0	0	1	1	102.522	0.307006	0.30677	-0.0168453	2	-0.000482748	41	7.8813	-5.16762e-06
2	0	0	1	1	102.772	0.302008	0.301592	-0.0181578	2	-0.00048713	41	8.1312	-5.47625e-06
2	0	0	1	1	103.021	0.29701	0.296518	-0.0195697	2	-0.000491849	41	8.381	-5.80277e-06
2	0	0	1	1	103.271	0.292013	0.291565	-0.0210414	2	-0.00049693	41	8.6309	-6.13494e-06
2	0	0	1	1	103.521	0.287015	0.286408	-0.0226415	2	-0.000502397	41	8.8808	-6.48471e-06
2	0	0	1	1	103.771	0.282017	0.282004	-0.0243179	2	-0.000508272	41	9.1307	-6.85776e-06
2	0	0	1	1	104.021	0.27702	0.276772	-0.0261062	2	-0.00051458	41	9.3806	-7.22548e-06
2	0	0	1	1	104.271	0.272023	0.27159	-0.0279874	2	-0.000521344	41	9.6304	-7.60108e-06
2	0	0	1	1	104.521	0.267025	0.266792	-0.0299635	2	-0.000528592	41	9.8803	-7.99404e-06
2	0	0	1	1	104.771	0.262027	0.261634	-0.0320526	2	-0.000536349	41	10.1302	-8.38604e-06
2	0	0	1	1	105.02	0.257029	0.256967	-0.0342682	2	-0.000544639	41	10.3801	-8.80579e-06
2	0	0	1	1	105.27	0.252032	0.251642	-0.0365239	2	-0.000553488	41	10.63	-9.19094e-06
2	0	0	1	1	105.52	0.247036	0.246808	-0.0388869	2	-0.000562915	41	10.8798	-9.59761e-06
2	0	0	1	1	105.77	0.242036	0.241802	-0.0413552	2	-0.000572951	41	11.1297	-9.99978e-06
2	0	0	1	1	106.02	0.237039	0.236516	-0.0438957	2	-0.000583612	41	11.3796	-1.0382e-05
2	0	0	1	1	106.27	0.232041	0.231774	-0.0465514	2	-0.00059492	41	11.6295	-1.07894e-05
2	0	0	1	1	106.52	0.227043	0.226697	-0.0491966	2	-0.000606892	41	11.8794	-1.11527e-05
2	0	0	1	1	106.77	0.222046	0.221794	-0.0519662	2	-0.000619544	41	12.1293	-1.15258e-05
2	0	0	1	1	107.019	0.217048	0.216815	-0.0547512	2	-0.000632883	41	12.3791	-1.18709e-05
2	0	0	1	1	107.269	0.212051	0.211889	-0.0575802	2	-0.000646929	41	12.629	-1.22006e-05
2	0	0	1	1	107.519	0.207053	0.206993	-0.0604256	2	-0.000661681	41	12.8789	-1.25077e-05
2	0	0	1	1	107.769	0.202055	0.201803	-0.0632366	2	-0.000677143	41	13.1288	-1.27614e-05
2	0	0	1	1	108.019	0.197058	0.196899	-0.0660528	2	-0.000693312	41	13.3787	-1.30057e-05
2	0	0	1	1	108.269	0.19206	0.191781	-0.0688267	2	-0.00071018	41	13.6286	-1.31997e-05
2	0	0	1	1	108.519	0.187062	0.186666	-0.0715749	2	-0.000727728	41	13.8784	-1.33606e-05
2	0	0	1	1	108.769	0.182065	0.181733	-0.0741988	2	-0.000745956	41	14.1283	-1.34844e-05
2	0	0	1	1	109.019	0.177067	0.176703	-0.0767705	2	-0.000764832	41	14.3782	-1.35656e-05
2	0	0	1	1	109.268	0.17207	0.171674	-0.0792237	2	-0.000784335	41	14.6281	-1.36006e-05
2	0	0	1	1	109.518	0.167072	0.166719	-0.081512	2	-0.000804434	41	14.878	-1.35896e-05
2	0	0	1	1	109.768	0.162074	0.161711	-0.0836834	2	-0.000825083	41	15.1278	-1.35325e-05
2	0	0	1	1	110.018	0.157077	0.156718	-0.085693	2	-0.000846263	41	15.3777	-1.34296e-05
2	0	0	1	1	110.268	0.152079	0.151928	-0.0875296	2	-0.000867922	41	15.6276	-1.32982e-05
2	0	0	1	1	110.518	0.147081	0.146919	-0.0891964	2	-0.000890017	41	15.8775	-1.31047e-05
2	0	0	1	1	110.768	0.142084	0.141702	-0.0906243	2	-0.000912499	41	16.1274	-1.28416e-05
2	0	0	1	1	111.018	0.137087	0.136833	-0.091871	2	-0.000935309	41	16.3772	-1.2571e-05
2	0	0	1	1	111.267	0.132088	0.131855	-0.0929477	2	-0.000958415	41	16.6271	-1.22556e-05
2	0	0	1	1	111.517	0.127091	0.126829	-0.0937715	2	-0.000981761	41	16.877	-1.1893e-05
2	0	0	1	1	111.767	0.122093	0.121919	-0.0944501	2	-0.00100529	41	17.1269	-1.15152e-05
2	0	0	1	1	112.017	0.117096	0.116908	-0.0948899	2	-0.00102896	41	17.3768	-1.10934e-05
2	0	0	1	1	112.267	0.112098	0.111737	-0.0951482	2	-0.00105273	41	17.6267	-1.06316e-05
2	0	0	1	1	112.517	0.1071	0.106824	-0.0952678	2	-0.00107652	41	17.8765	-1.01769e-05
2	0	0	1	1	112.767	0.102103	0.101544	-0.0951663	2	-0.00110033	41	18.1264	-9.6636e-06
2	0	0	1	1	113.017	0.097105	0.0968816	-0.0949556	2	-0.0011241	41	18.3763	-9.19945e-06
2	0	0	1	1	113.267	0.0921074	0.0918125	-0.0945839	2	-0.00114779	41	18.6262	-8.68398e-06
2	0	0	1	1	113.516	0.0871098	0.0866431	-0.0940647	2	-0.00117138	41	18.8761	-8.15006e-06
2	0	0	1	1	113.766	0.0821117	0.0819015	-0.0934446	2	-0.00119482	41	19.126	-7.65325e-06
2	0	0	1	1	114.016	0.0771145	0.0766935	-0.0927314	2	-0.00121808	41	19.3758	-7.11189e-06
2	0	0	1	1	114.266	0.0721169	0.0718421	-0.0919056	2	-0.00124115	41	19.6257	-6.60269e-06
2	0	0	1	1	114.516	0.0671192	0.066841	-0.0910135	2	-0.00126402	41	19.8756	-6.08343e-06
2	0	0	1	1	114.766	0.0621216	0.0620002	-0.0900409	2	-0.00128665	41	20.1255	-5.58256e-06
2	0	0	1	1	115.016	0.0571239	0.0566461	-0.0890558	2	-0.00130904	41	20.3754	-5.04466e-06
2	0	0	1	1	115.266	0.0521263	0.0519529	-0.0880242	2	-0.00133117	41	20.6252	-4.57311e-06
2	0	0	1	1	115.515	0.0471287	0.0468838	-0.0869229	2	-0.00135304	41	20.8751	-4.07527e-06
2	0	0	1	1	115.765	0.042131	0.0416899	-0.0858502	2	-0.00137464	41	21.125	-3.57909e-06
2	0	0	1	1	116.015	0.0371334	0.0367749	-0.0847275	2	-0.00139597	41	21.3749	-3.11585e-06
2	0	0	1	1	116.265	0.0321358	0.0319378	-0.0836624	2	-0.00141702	41	21.6248	-2.67199e-06
2	0	0	1	1	116.515	0.0271395	0.0267237	-0.0825491	2	-0.00143779	41	21.8746	-2.20602e-06
2	0	0	1	1	116.765	0.0221405	0.0219543	-0.0814707	2	-0.00145829	41	22.1245	-1.78864e-06
2	0	0	1	1	117.015	0.0171429	0.0168272	-0.0803855	2	-0.00147853	41	22.3744	-1.35266e-06
2	0	0	1	1	117.265	0.0121452	0.0118984	-0.0793369	2	-0.00149849	41	22.6243	-9.43985e-07
2	0	0	1	1	117.515	0.0071476	0.00678171	-0.0782976	2	-0.0015182	41	22.8742	-5.30992e-07
2	0	0	1	1	117.764	0.00214997	0.00190627	-0.077286	2	-0.00153764	41	23.1241	-1.47328e-07
2	0	0	1	0	117.96	0.00174971	0.00150346	-0.0743444	2	-0.00155252	41	23.3192	-1.11774e-07
2	0	0	1	0	118.209	0.00674779	0.0065035	-0.070889	2	-0.00157063	41	23.5691	-4.61027e-07
2	0	0	1	0	118.459	0.0117454	0.0111826	-0.0683543	2	-0.00158801	41	23.819	-7.6438e-07
2	0	0	1	0	118.709	0.0167431	0.0165404	-0.0662006	2	-0.0016048	41	24.0689	-1.09499e-06
2	0	0	1	0	118.959	0.0217407	0.0213847	-0.0643011	2	-0.00162109	41	24.3188	-1.37506e-06
2	0	0	1	0	119.209	0.0267383	0.0263372	-0.0625406	2	-0.00163693	41	24.5687	-1.64715e-06
2	0	0	1	0	119.459	0.031736	0.0313805	-0.0609221	2	-0.00165234	41	24.8185	-1.91177e-06
2	0	0	1	0	119.709	0.0367336	0.0364609	-0.0593845	2	-0.00166736	41	25.0684	-2.16521e-06
2	0	0	1	0	119.959	0.0417312	0.0416401	-0.0579433	2	-0.001682	41	25.3183	-2.41276e-06
2	0	0	1	0	120.209	0.0467289	0.0465054	-0.0565379	2	-0.00169629	41	25.5682	-2.62932e-06
2	0	0	1	0	120.458	0.0517265	0.0514688	-0.0551752	2	-0.00171024	41	25.8181	-2.8398e-06
2	0	0	1	0	120.708	0.0567255	0.0566119	-0.053862	2	-0.00172385	41	26.068	-3.04923e-06
2	0	0	1	0	120.958	0.0617218	0.0617865	-0.0525842	2	-0.00173714	41	26.3178	-3.249e-06
2	0	0	1	0	121.208	0.0667194	0.0664394	-0.0513538	2	-0.00175011	41	26.5677	-3.41191e-06
2	0	0	1	0	121.458	0.071717	0.0715116	-0.0500813	2	-0.00176277	41	26.8176	-3.58139e-06
2	0	0	1	0	121.708	0.0767147	0.0763168	-0.04889	2	-0.00177513	41	27.0675	-3.73113e-06
2	0	0	1	0	121.958	0.0817123	0.0816633	-0.0476811	2	-0.00178718	41	27.3174	-3.8938e-06
2	0	0	1	0	122.208	0.0867099	0.0862588	-0.0465069	2	-0.00179894	41	27.5672	-4.01163e-06
2	0	0	1	0	122.457	0.0917076	0.0913092	-0.0453319	2	-0.0018104	41	27.8171	-4.13921e-06
2	0	0	1	0	122.707	0.0967052	0.0965635	-0.0441866	2	-0.00182157	41	28.067	-4.26681e-06
2	0	0	1	0	122.957	0.101703	0.101368	-0.0430033	2	-0.00183245	41	28.3169	-4.35915e-06
2	0	0	1	0	123.207	0.1067	0.106442	-0.0418342	2	-0.00184304	41	28.5668	-4.45293e-06
2	0	0	1	0	123.457	0.111698	0.111332	-0.0406784	2	-0.00185334	41	28.8166	-4.52883e-06
2	0	0	1	0	123.707	0.116696	0.116322	-0.03956	2	-0.00186336	41	29.0665	-4.60169e-06
2	0	0	1	0	123.957	0.121693	0.121631	-0.0384007	2	-0.00187309	41	29.3164	-4.67071e-06
2	0	0	1	0	124.207	0.126691	0.126535	-0.0372739	2	-0.00188254	41	29.5663	-4.71644e-06
2	0	0	1	0	124.457	0.131689	0.131506	-0.0361634	2	-0.0018917	41	29.8162	-4.7557e-06
2	0	0	1	0	124.706	0.136686	0.136635	-0.0350253	2	-0.00190058	41	30.0661	-4.78568e-06
2	0	0	1	0	124.956	0.141684	0.141427	-0.0339044	2	-0.00190917	41	30.3159	-4.79498e-06
2	0	0	1	0	125.206	0.146682	0.146423	-0.0327857	2	-0.00191749	41	30.5658	-4.80057e-06
2	0	0	1	0	125.456	0.151679	0.151386	-0.031639	2	-0.00192553	41	30.8157	-4.78972e-06
2	0	0	1	0	125.706	0.156677	0.156498	-0.0305567	2	-0.00193329	41	31.0656	-4.78208e-06
2	0	0	1	0	125.956	0.161674	0.161408	-0.0294511	2	-0.00194078	41	31.3155	-4.75364e-06
2	0	0	1	0	126.206	0.166674	0.166226	-0.0283605	2	-0.00194799	41	31.5654	-4.71424e-06
2	0	0	1	0	126.456	0.17167	0.171663	-0.0272847	2	-0.00195493	41	31.8152	-4.68378e-06
2	0	0	1	0	126.705	0.176667	0.176357	-0.0262171	2	-0.0019616	41	32.0651	-4.62356e-06
2	0	0	1	0	126.955	0.181665	0.181354	-0.0251615	2	-0.00196801	41	32.315	-4.56314e-06
2	0	0	1	0	127.205	0.186663	0.186445	-0.0241301	2	-0.00197416	41	32.5649	-4.49894e-06
2	0	0	1	0	127.455	0.19166	0.19137	-0.023079	2	-0.00198004	41	32.8148	-4.41662e-06
2	0	0	1	0	127.705	0.196658	0.196171	-0.0220537	2	-0.00198567	41	33.0646	-4.32629e-06
2	0	0	1	0	127.955	0.201656	0.201308	-0.0210816	2	-0.00199106	41	33.3145	-4.24388e-06
2	0	0	1	0	128.205	0.206653	0.206607	-0.0201156	2	-0.0019962	41	33.5644	-4.15603e-06
2	0	0	1	0	128.455	0.211651	0.21112	-0.0191392	2	-0.0020011	41	33.8143	-4.04067e-06
2	0	0	1	0	128.705	0.216648	0.216466	-0.0182385	2	-0.00200576	41	34.0642	-3.94801e-06
2	0	0	1	0	128.954	0.221646	0.221229	-0.0173338	2	-0.00201019	41	34.314	-3.83474e-06
2	0	0	1	0	129.204	0.226644	0.226426	-0.0164183	2	-0.0020144	41	34.5639	-3.71753e-06
2	0	0	1	0	129.454	0.231641	0.231592	-0.0155781	2	-0.00201839	41	34.8138	-3.60778e-06
2	0	0	1	0	129.704	0.236639	0.236371	-0.014767	2	-0.00202217	41	35.0637	-3.49048e-06
2	0	0	1	0	129.954	0.241637	0.241412	-0.0139328	2	-0.00202574	41	35.3136	-3.36354e-06
2	0	0	1	0	130.204	0.246632	0.246628	-0.0131563	2	-0.00202912	41	35.5634	-3.24473e-06
2	0	0	1	0	130.454	0.251632	0.251524	-0.0123958	2	-0.0020323	41	35.8133	-3.11784e-06
2	0	0	1	0	130.704	0.25663	0.256478	-0.0116774	2	-0.0020353	41	36.0632	-2.99499e-06
2	0	0	1	0	130.953	0.261627	0.261323	-0.0109775	2	-0.00203812	41	36.3131	-2.86868e-06
2	0	0	1	0	131.203	0.266625	0.266249	-0.0102596	2	-0.00204076	41	36.563	-2.73161e-06
2	0	0	1	0	131.453	0.271622	0.271186	-0.00963077	2	-0.00204324	41	36.8129	-2.61174e-06
2	0	0	1	0	131.703	0.27662	0.276364	-0.00903259	2	-0.00204556	41	37.0627	-2.49628e-06
2	0	0	1	0	131.953	0.281618	0.281296	-0.00841053	2	-0.00204773	41	37.3126	-2.36585e-06
2	0	0	1	0	132.203	0.286615	0.286361	-0.00785846	2	-0.00204976	41	37.5625	-2.25035e-06
2	0	0	1	0	132.453	0.291613	0.291061	-0.00729665	2	-0.00205164	41	37.8124	-2.12377e-06
2	0	0	1	0	132.703	0.296611	0.29629	-0.00678707	2	-0.00205339	41	38.0623	-2.01094e-06
2	0	0	1	0	132.953	0.301609	0.301202	-0.00627686	2	-0.00205502	41	38.3122	-1.89061e-06
2	0	0	1	0	133.202	0.306606	0.306179	-0.0058166	2	-0.00205652	41	38.562	-1.78092e-06
2	0	0	1	0	133.452	0.311604	0.311354	-0.00537147	2	-0.00205791	41	38.8119	-1.67243e-06
2	0	0	1	0	133.702	0.316601	0.316223	-0.00493804	2	-0.00205919	41	39.0618	-1.56152e-06
2	0	0	1	0	133.952	0.321599	0.3214	-0.00454225	2	-0.00206036	41	39.3117	-1.45988e-06
2	0	0	1	0	134.232	0.327197	0.326747	-0.00406909	2	-0.00206156	42	39.5916	-1.32956e-06
2	0	0	1	0	134.482	0.332194	0.331954	-0.00370288	2	-0.00206253	42	39.8414	-1.22918e-06
2	0	0	1	0	134.732	0.337191	0.337012	-0.00335397	2	-0.00206341	42	40.0913	-1.13033e-06
2	0	0	1	0	134.982	0.342189	0.341929	-0.00302045	2	-0.00206421	42	40.3412	-1.03278e-06
2	0	0	1	0	135.231	0.347187	0.346952	-0.00270325	2	-0.00206492	42	40.5911	-9.37898e-07
2	0	0	1	0	135.481	0.352184	0.352111	-0.00239465	2	-0.00206556	42	40.841	-8.43183e-07
2	0	0	1	0	135.731	0.357182	0.356752	-0.00211208	2	-0.00206612	42	41.0908	-7.53487e-07
2	0	0	1	0	135.981	0.36218	0.361833	-0.00182458	2	-0.00206661	42	41.3407	-6.60196e-07
2	0	0	1	0	136.231	0.367177	0.367093	-0.00156362	2	-0.00206704	42	41.5906	-5.73994e-07
2	0	0	1	0	136.481	0.372175	0.371916	-0.00130715	2	-0.00206739	42	41.8405	-4.86149e-07
2	0	0	1	0	136.731	0.377172	0.377191	-0.00105417	2	-0.00206769	42	42.0904	-3.97624e-07
2	0	0	1	0	136.981	0.38217	0.381851	-0.000803879	2	-0.00206792	42	42.3402	-3.06962e-07
2	0	0	1	0	137.23	0.387168	0.386877	-0.000567426	2	-0.00206809	42	42.5901	-2.19524e-07
2	0	0	1	0	137.54	0.393365	0.393228	-0.000339877	2	-0.00206822	42	42.9	-1.33649e-07
2	0	0	1	0	137.82	0.398961	0.3986	-1.19878e-05	2	-0.00206826	43	43.1798	-4.77833e-09
2	1	0	1	0	138.07	0.40396	0.403733	0.000215762	2	-0.00206824	43	0.1999	8.71103e-08
2	1	0	1	0	138.32	0.408957	0.408675	0.000449752	2	-0.00206815	43	0.4498	1.83803e-07
2	1	0	1	0	138.57	0.413955	0.413379	0.000687839	2	-0.00206801	43	0.6997	2.84338e-07
2	1	0	1	0	138.82	0.418953	0.418555	0.000925625	2	-0.00206781	43	0.9496	3.87425e-07
2	1	0	1	0	139.1	0.42455	0.424292	0.00120222	2	-0.00206752	42	1.2294	5.10093e-07
2	1	0	1	0	139.349	0.429548	0.429308	0.00145959	2	-0.00206718	42	1.4793	6.26612e-07
2	1	0	1	0	139.599	0.434545	0.434249	0.00172646	2	-0.00206678	42	1.7292	7.49716e-07
2	1	0	1	0	139.849	0.439543	0.43916	0.0020085	2	-0.00206632	42	1.9791	8.82055e-07
2	1	0	0	0	139.941	0.441417	0.440825	0.00205959	2	-0.00206613	42	2.0708	9.0792e-07