File: Python/Data/GoldElectrode/240308/240308-CVEIS_Activation-0p5H2SO4-Ag_AgCl_BLF8-Au_RDE-80cycles-C15_06_PEIS_C15.mpt
EC-Lab ASCII FILE
Nb header lines : 66

Potentio Electrochemical Impedance Spectroscopy

Run on channel : 15 (SN 19485)
User :
Electrode connection : standard
Potential control : Ewe
Ewe ctrl range : min = -2.50 V, max = 2.50 V
Ewe,I filtering : 50 kHz
Safety Limits :
	Do not start on E overload
Channel : Floating
Acquisition started on : 03/08/2024 16:29:18.805
Loaded Setting File :  NONE
Saved on :
	File : 240308-CVEIS_Activation-0p5H2SO4-Ag_AgCl_BLF8-Au_RDE-80cycles-C15_06_PEIS_C15.mpr
	Directory : C:\Data\mathias\GoldElectrode\
	Host : 192.168.0.1
Device : VMP-300 (SN 0826)
Address : USB
EC-Lab for windows v11.52 (software)
Internet server v11.52 (firmware)
Command interpretor v11.52 (firmware)
Electrode material :
Initial state :
Electrolyte :
Comments :
Cable : special
Electrode surface area : 0.001 cm²
Characteristic mass : 0.001 g
Equivalent Weight : 0.000 g/eq.
Density : 0.000 g/cm3
Volume (V) : 0.001 cm³
Record EIS quality indicators
Cycle Definition : Charge/Discharge alternance
Mode                Single sine
E (V)               0.0000
vs.                 Eoc
tE (h:m:s)          0:00:0.0000
record              0
dI                  0.000
unit dI             mA
dt (s)              0.000
fi                  100.000
unit fi             kHz
ff                  100.000
unit ff             Hz
Nd                  10
Points              per decade
spacing             Logarithmic
Va (mV)             5.0
pw                  0.10
Na                  2
corr                0
E range min (V)     -2.500
E range max (V)     2.500
I Range             Auto
Bandwidth           8
nc cycles           1
goto Ns'            0
nr cycles           0
inc. cycle          0

freq/Hz	Re(Z)/Ohm	-Im(Z)/Ohm	|Z|/Ohm	Phase(Z)/deg	time/s	<Ewe>/V	<I>/mA	Cs/µF	Cp/µF	cycle number	I Range	|Ewe|/V	|I|/A	Ns	(Q-Qo)/mA.h	THD Ewe/%	NSD Ewe/%	NSR Ewe/%	|Ewe h2|/V	|Ewe h3|/V	|Ewe h4|/V	|Ewe h5|/V	|Ewe h6|/V	|Ewe h7|/V	THD I/%	NSD I/%	NSR I/%	|I h2|/A	|I h3|/A	|I h4|/A	|I h5|/A	|I h6|/A	|I h7|/A	Re(Y)/Ohm-1	Im(Y)/Ohm-1	|Y|/Ohm-1	Phase(Y)/deg	Re(C)/nF	Im(C)/nF	|C|/nF	Phase(C)/deg	Re(M)	Im(M)	|M|	Phase(M)/deg	Re(Permittivity)	Im(Permittivity)	|Permittivity|	Phase(Permittivity)/deg	Re(Resistivity)/Ohm.cm	Im(Resistivity)/Ohm.cm	|Resistivity|/Ohm.cm	Phase(Resistivity)/deg	Re(Conductivity)/mS/cm	Im(Conductivity)/mS/cm	|Conductivity|/mS/cm	Phase(Conductivity)/deg	Tan(Delta)	Loss Angle(Delta)/deg	dq/mA.h
100004	6.13844	0.664264	6.17428	-6.17616	1185.88	0.399162	-0.0219135	2.39587	0.0277314	1	38	0.00483458	0.000783019	0	-6.44247e-06	1.89116	0.538024	31.2499	5.22274e-05	4.14713e-05	2.71217e-05	4.08574e-05	3.14312e-05	1.27346e-05	0.26136	0.157077	3.97339	5.94719e-07	1.18433e-06	8.21715e-07	6.2067e-07	6.23207e-07	7.31906e-07	0.161022	0.0174248	0.161962	6.17616	27.7314	256.265	257.761	-83.8238	0.0000000E+000	0.0000000E+000	0.0000000E+000	83.8238	0.0000000E+000	0.0000000E+000	0.0000000E+000	-83.8238	0.0000000E+000	0.0000000E+000	0.0000000E+000	-6.17616	0.0000000E+000	0.0000000E+000	0.0000000E+000	6.17616	9.24097	83.8238	-6.44247e-06
79433.3	6.18608	0.63545	6.21863	-5.865	1186.69	0.39918	-0.0123747	3.15309	0.0329238	1	38	0.0051452	0.000827385	0	-8.21887e-06	1.60414	0.743755	30.6741	3.40765e-05	2.6401e-05	3.10403e-05	2.78564e-05	3.2707e-05	3.85799e-05	0.174067	0.131106	3.78254	5.90365e-07	5.12288e-07	4.03602e-07	4.06832e-07	8.28445e-07	3.86358e-07	0.159965	0.0164321	0.160807	5.865	32.9238	320.512	322.198	-84.135	0.0000000E+000	0.0000000E+000	0.0000000E+000	84.135	0.0000000E+000	0.0000000E+000	0.0000000E+000	-84.135	0.0000000E+000	0.0000000E+000	0.0000000E+000	-5.865	0.0000000E+000	0.0000000E+000	0.0000000E+000	5.865	9.73495	84.135	-1.7764e-06
63093.8	6.16566	0.688275	6.20395	-6.36958	1187.5	0.39916	-0.0115592	3.66498	0.0451085	1	38	0.00513091	0.000827038	0	-1.1181e-05	1.52086	1.10701	29.9283	3.44813e-05	3.10281e-05	2.27084e-05	3.1903e-05	1.93691e-05	3.72439e-05	0.188845	0.114521	3.81592	5.66732e-07	6.35503e-07	4.17557e-07	6.23497e-07	4.24869e-07	7.13743e-07	0.160192	0.0178824	0.161188	6.36958	45.1085	404.087	406.597	-83.6304	0.0000000E+000	0.0000000E+000	0.0000000E+000	83.6304	0.0000000E+000	0.0000000E+000	0.0000000E+000	-83.6304	0.0000000E+000	0.0000000E+000	0.0000000E+000	-6.36958	0.0000000E+000	0.0000000E+000	0.0000000E+000	6.36958	8.95813	83.6304	-2.96214e-06
50122.5	6.19627	0.756968	6.24234	-6.96504	1188.32	0.39917	-0.0111402	4.19479	0.0616838	1	38	0.00516965	0.000828159	0	-1.18093e-05	1.25829	1.55744	30.7159	2.30564e-05	2.33655e-05	2.33668e-05	2.4361e-05	2.96061e-05	2.64282e-05	0.205247	0.180002	3.75043	7.98734e-07	7.21701e-07	5.76547e-07	4.17788e-07	9.31807e-07	2.13309e-07	0.159014	0.019426	0.160196	6.96504	61.6838	504.921	508.675	-83.035	0.0000000E+000	0.0000000E+000	0.0000000E+000	83.035	0.0000000E+000	0.0000000E+000	0.0000000E+000	-83.035	0.0000000E+000	0.0000000E+000	0.0000000E+000	-6.96504	0.0000000E+000	0.0000000E+000	0.0000000E+000	6.96504	8.18564	83.035	-6.28255e-07
39814.1	6.25304	0.83277	6.30825	-7.58593	1189.13	0.399159	-0.011859	4.80019	0.0836549	1	38	0.00519008	0.000822746	0	-1.51418e-05	1.52941	0.741773	30.4971	3.75038e-06	1.48185e-05	2.79805e-05	1.54168e-05	4.15928e-05	4.5519e-05	0.257461	0.0794018	3.77582	5.7885e-07	1.60021e-06	5.12695e-07	5.06655e-07	6.14329e-07	5.56777e-07	0.157135	0.020927	0.158523	7.58593	83.655	628.141	633.687	-82.4141	0.0000000E+000	0.0000000E+000	0.0000000E+000	82.4141	0.0000000E+000	0.0000000E+000	0.0000000E+000	-82.4141	0.0000000E+000	0.0000000E+000	0.0000000E+000	-7.58593	0.0000000E+000	0.0000000E+000	0.0000000E+000	7.58593	7.50872	82.4141	-3.33256e-06
31621.1	6.29998	0.958462	6.37247	-8.65049	1189.95	0.399154	-0.0105277	5.25131	0.118796	1	38	0.00515711	0.00080928	0	-1.68428e-05	1.39829	0.8194	29.9082	2.73271e-05	2.16858e-05	2.7179e-05	3.49831e-05	1.94093e-05	2.4677e-05	0.178941	0.13896	4.01631	5.79451e-07	2.98224e-07	6.42814e-07	5.11465e-07	4.97216e-07	5.87636e-07	0.15514	0.0236026	0.156925	8.65049	118.796	780.847	789.832	-81.3495	0.0000000E+000	0.0000000E+000	0.0000000E+000	81.3495	0.0000000E+000	0.0000000E+000	0.0000000E+000	-81.3495	0.0000000E+000	0.0000000E+000	0.0000000E+000	-8.65049	0.0000000E+000	0.0000000E+000	0.0000000E+000	8.65049	6.57301	81.3495	-1.70099e-06
25116.9	6.38347	1.11233	6.47965	-9.88464	1190.76	0.399144	-0.0105482	5.69666	0.167874	1	38	0.00513574	0.000792595	0	-2.0235e-05	1.2531	1.02192	30.4451	1.19847e-05	1.79762e-05	2.6805e-05	2.03456e-05	2.93533e-05	3.51173e-05	0.222929	0.160888	3.98702	4.66468e-07	8.81351e-07	4.39973e-07	1.06431e-06	3.88215e-07	6.0482e-07	0.152038	0.0264929	0.154329	9.88464	167.874	963.401	977.917	-80.1154	0.0000000E+000	0.0000000E+000	0.0000000E+000	80.1154	0.0000000E+000	0.0000000E+000	0.0000000E+000	-80.1154	0.0000000E+000	0.0000000E+000	0.0000000E+000	-9.88464	0.0000000E+000	0.0000000E+000	0.0000000E+000	9.88464	5.73882	80.1154	-3.39217e-06
19948.8	6.4294	1.26818	6.55328	-11.1582	1191.58	0.399161	-0.0101609	6.29102	0.235597	1	38	0.00513105	0.000782975	0	-2.06744e-05	2.164	0.914176	30.5732	3.25177e-05	4.0155e-05	8.19976e-05	2.16112e-05	3.57368e-05	2.40684e-05	0.262833	0.13166	3.96212	8.76662e-08	7.09577e-07	1.67073e-06	3.45628e-07	6.06841e-07	5.80344e-07	0.149711	0.0295302	0.152595	11.1582	235.597	1194.42	1217.43	-78.8418	0.0000000E+000	0.0000000E+000	0.0000000E+000	78.8418	0.0000000E+000	0.0000000E+000	0.0000000E+000	-78.8418	0.0000000E+000	0.0000000E+000	0.0000000E+000	-11.1582	0.0000000E+000	0.0000000E+000	0.0000000E+000	11.1582	5.06976	78.8418	-4.39392e-07
15847.7	6.58485	1.5615	6.76746	-13.3404	1192.39	0.399187	-0.0102353	6.43152	0.342408	1	38	0.00513155	0.000758268	0	-2.21385e-05	1.8753	0.811798	30.3709	3.44901e-05	5.4541e-05	3.47656e-05	1.79127e-05	2.29758e-05	4.46376e-05	0.276923	0.1166	4.20413	4.66343e-07	5.94623e-07	7.77685e-07	6.06975e-07	6.3735e-07	1.15617e-06	0.143779	0.0340949	0.147766	13.3404	342.408	1443.94	1483.98	-76.6596	0.0000000E+000	0.0000000E+000	0.0000000E+000	76.6596	0.0000000E+000	0.0000000E+000	0.0000000E+000	-76.6596	0.0000000E+000	0.0000000E+000	0.0000000E+000	-13.3404	0.0000000E+000	0.0000000E+000	0.0000000E+000	13.3404	4.21702	76.6596	-1.46415e-06
12590.9	6.71791	1.8403	6.96541	-15.3197	1193.2	0.399165	-0.0105798	6.8687	0.479464	1	38	0.0052064	0.000747464	0	-2.39753e-05	1.39458	0.641945	29.3193	2.93023e-05	2.4588e-05	2.55634e-05	3.51824e-05	2.2858e-05	2.82176e-05	0.210193	0.205184	4.17153	5.69299e-07	4.468e-07	6.11881e-07	6.22737e-07	3.0145e-07	8.64661e-07	0.138465	0.037931	0.143566	15.3197	479.464	1750.26	1814.74	-74.6803	0.0000000E+000	0.0000000E+000	0.0000000E+000	74.6803	0.0000000E+000	0.0000000E+000	0.0000000E+000	-74.6803	0.0000000E+000	0.0000000E+000	0.0000000E+000	-15.3197	0.0000000E+000	0.0000000E+000	0.0000000E+000	15.3197	3.65045	74.6803	-1.83674e-06
10002.2	6.85735	2.17661	7.19451	-17.6101	1194.02	0.399145	-0.00994489	7.31043	0.669117	1	38	0.0050788	0.000705928	0	-2.74481e-05	1.7368	0.725101	30.5711	3.00185e-05	4.08829e-05	5.0681e-05	3.34672e-05	1.73995e-05	3.01384e-05	0.260986	0.125846	4.56863	8.78478e-07	3.85312e-07	7.94461e-07	6.12606e-07	9.86118e-07	6.1778e-07	0.132481	0.0420512	0.138995	17.6101	669.116	2108.04	2211.68	-72.3899	0.0000000E+000	0.0000000E+000	0.0000000E+000	72.3899	0.0000000E+000	0.0000000E+000	0.0000000E+000	-72.3899	0.0000000E+000	0.0000000E+000	0.0000000E+000	-17.6101	0.0000000E+000	0.0000000E+000	0.0000000E+000	17.6101	3.15048	72.3899	-3.47288e-06
7944	7.08277	2.53047	7.52123	-19.6603	1194.87	0.399034	-0.00940306	7.91735	0.896198	1	38	0.00524001	0.000696695	0	-3.01405e-05	1.38818	0.398171	29.1151	2.82386e-05	2.87861e-05	2.35711e-05	3.82677e-05	2.00309e-05	3.29446e-05	0.18787	0.146433	4.49232	4.31588e-07	5.96119e-07	4.76854e-07	3.00586e-07	5.83708e-07	6.45991e-07	0.125206	0.0447325	0.132957	19.6603	896.198	2508.46	2663.74	-70.3397	0.0000000E+000	0.0000000E+000	0.0000000E+000	70.3397	0.0000000E+000	0.0000000E+000	0.0000000E+000	-70.3397	0.0000000E+000	0.0000000E+000	0.0000000E+000	-19.6603	0.0000000E+000	0.0000000E+000	0.0000000E+000	19.6603	2.799	70.3397	-2.69238e-06
6307.74	7.31212	3.03115	7.91549	-22.5159	1195.77	0.39902	-0.00922432	8.32414	1.22067	1	38	0.00509165	0.000643252	0	-3.1185e-05	1.72699	0.769728	32.1664	2.85876e-05	6.50417e-05	3.08359e-05	2.67119e-05	2.04893e-05	2.08394e-05	0.295776	0.199025	4.94699	1.00125e-06	1.0175e-06	6.78084e-07	5.4757e-07	5.07177e-07	7.04814e-07	0.116705	0.0483785	0.126335	22.5159	1220.67	2944.66	3187.64	-67.4841	0.0000000E+000	0.0000000E+000	0.0000000E+000	67.4841	0.0000000E+000	0.0000000E+000	0.0000000E+000	-67.4841	0.0000000E+000	0.0000000E+000	0.0000000E+000	-22.5159	0.0000000E+000	0.0000000E+000	0.0000000E+000	22.5159	2.41233	67.4841	-1.04448e-06
5011.6	7.5671	3.50098	8.33774	-24.828	1196.52	0.399022	-0.00920384	9.07098	1.59932	1	38	0.00539766	0.000647377	0	-3.25509e-05	1.2116	0.583746	28.185	4.16129e-05	1.01455e-05	2.59379e-05	2.00467e-05	2.49968e-05	2.09692e-05	0.341249	0.136919	4.8389	1.178e-06	4.06801e-07	1.29824e-06	8.81825e-07	3.66338e-07	6.36708e-07	0.108851	0.0503608	0.119937	24.828	1599.32	3456.82	3808.86	-65.172	0.0000000E+000	0.0000000E+000	0.0000000E+000	65.172	0.0000000E+000	0.0000000E+000	0.0000000E+000	-65.172	0.0000000E+000	0.0000000E+000	0.0000000E+000	-24.828	0.0000000E+000	0.0000000E+000	0.0000000E+000	24.828	2.16143	65.172	-1.36584e-06
3981.28	7.83319	4.07073	8.82778	-27.4598	1197.49	0.399041	-0.00966374	9.82033	2.08817	1	38	0.00506087	0.000573289	0	-3.45323e-05	1.54276	0.985509	29.6494	2.07686e-05	3.94906e-05	3.53685e-05	4.36262e-05	2.0259e-05	1.50502e-05	0.273023	0.136836	5.60386	5.2871e-07	5.47627e-07	6.27221e-07	5.81089e-07	8.25325e-07	5.38131e-07	0.100516	0.0522359	0.113279	27.4598	2088.17	4018.22	4528.41	-62.5402	0.0000000E+000	0.0000000E+000	0.0000000E+000	62.5402	0.0000000E+000	0.0000000E+000	0.0000000E+000	-62.5402	0.0000000E+000	0.0000000E+000	0.0000000E+000	-27.4598	0.0000000E+000	0.0000000E+000	0.0000000E+000	27.4598	1.92427	62.5402	-1.98148e-06
3163.04	8.18198	4.79091	9.48144	-30.3509	1198.23	0.39903	-0.00829708	10.5026	2.68155	1	38	0.00513714	0.00054181	0	-3.59672e-05	1.60637	0.479057	30.6029	3.14138e-05	4.6452e-05	3.0633e-05	2.54048e-05	3.16743e-05	2.80965e-05	0.300553	0.244351	5.92527	3.82688e-07	4.78238e-07	7.75341e-07	9.44204e-07	4.08684e-07	7.22522e-07	0.0910144	0.053293	0.105469	30.3509	2681.55	4579.58	5306.9	-59.6491	0.0000000E+000	0.0000000E+000	0.0000000E+000	59.6491	0.0000000E+000	0.0000000E+000	0.0000000E+000	-59.6491	0.0000000E+000	0.0000000E+000	0.0000000E+000	-30.3509	0.0000000E+000	0.0000000E+000	0.0000000E+000	30.3509	1.70781	59.6491	-1.43492e-06
2512.41	8.51686	5.61992	10.2039	-33.4192	1198.97	0.399007	-0.00871601	11.272	3.4192	1	38	0.00512387	0.000502146	0	-3.78769e-05	1.32992	1.41362	31.4812	3.20689e-05	2.90342e-05	2.86778e-05	2.80558e-05	2.49044e-05	1.65404e-05	0.34595	0.312446	6.42629	1.04754e-06	7.07711e-07	6.37451e-07	4.13822e-07	7.15313e-07	5.25981e-07	0.0817982	0.0539752	0.0980013	33.4192	3419.2	5181.71	6208.14	-56.5808	0.0000000E+000	0.0000000E+000	0.0000000E+000	56.5808	0.0000000E+000	0.0000000E+000	0.0000000E+000	-56.5808	0.0000000E+000	0.0000000E+000	0.0000000E+000	-33.4192	0.0000000E+000	0.0000000E+000	0.0000000E+000	33.4192	1.51548	56.5808	-1.90967e-06
1995.64	9.02676	6.56924	11.1641	-36.0453	1199.72	0.399048	-0.00804199	12.1401	4.20345	1	38	0.00513614	0.000460058	0	-3.97387e-05	1.5506	0.808398	29.2734	3.62459e-05	2.15678e-05	2.82541e-05	2.18725e-05	3.06105e-05	4.61807e-05	0.494812	0.129621	6.91232	1.44762e-06	4.05129e-07	3.73628e-07	9.90308e-07	4.55903e-07	1.18625e-06	0.0724242	0.0527068	0.0895728	36.0453	4203.45	5775.93	7143.55	-53.9547	0.0000000E+000	0.0000000E+000	0.0000000E+000	53.9547	0.0000000E+000	0.0000000E+000	0.0000000E+000	-53.9547	0.0000000E+000	0.0000000E+000	0.0000000E+000	-36.0453	0.0000000E+000	0.0000000E+000	0.0000000E+000	36.0453	1.3741	53.9547	-1.86174e-06
1584.49	9.31189	7.79773	12.1456	-39.9426	1200.46	0.399049	-0.00810158	12.8814	5.30957	1	38	0.00507218	0.000417614	0	-4.17612e-05	1.58134	0.90612	29.8444	3.14022e-05	3.01075e-05	2.56123e-05	2.53654e-05	3.81059e-05	3.66335e-05	0.563371	0.174871	7.44648	1.34359e-06	5.45942e-07	7.42511e-07	9.31588e-07	6.56175e-07	1.06437e-06	0.0631247	0.0528602	0.0823343	39.9426	5309.57	6340.58	8270.1	-50.0574	0.0000000E+000	0.0000000E+000	0.0000000E+000	50.0574	0.0000000E+000	0.0000000E+000	0.0000000E+000	-50.0574	0.0000000E+000	0.0000000E+000	0.0000000E+000	-39.9426	0.0000000E+000	0.0000000E+000	0.0000000E+000	39.9426	1.19418	50.0574	-2.02252e-06
1258.79	9.8147	9.0685	13.3629	-42.7371	1201.21	0.399024	-0.00777946	13.9422	6.42101	1	38	0.0050061	0.000374628	0	-4.361e-05	1.39786	0.65295	30.5192	2.57913e-05	2.34462e-05	5.15107e-05	1.9959e-05	1.3637e-05	1.14669e-05	0.662849	0.297048	8.54019	1.8935e-06	7.23266e-07	8.42791e-07	8.30442e-07	4.16661e-07	6.50616e-07	0.054964	0.0507852	0.0748343	42.7371	6421.01	6949.36	9461.66	-47.2629	0.0000000E+000	0.0000000E+000	0.0000000E+000	47.2629	0.0000000E+000	0.0000000E+000	0.0000000E+000	-47.2629	0.0000000E+000	0.0000000E+000	0.0000000E+000	-42.7371	0.0000000E+000	0.0000000E+000	0.0000000E+000	42.7371	1.08228	47.2629	-1.84877e-06
999.682	10.4343	10.777	15.0006	-45.9257	1201.95	0.399004	-0.0087905	14.7727	7.62497	1	38	0.00499888	0.000333245	0	-4.52961e-05	2.07426	0.730061	31.2144	3.93624e-05	1.16089e-05	6.65142e-05	3.11602e-05	5.70701e-05	1.76424e-05	0.592807	0.317653	9.47521	1.34122e-06	7.29142e-07	5.56254e-07	9.57405e-07	3.74477e-07	2.70778e-07	0.0463707	0.0478938	0.0666638	45.9257	7624.97	7382.48	10613.3	-44.0743	0.0000000E+000	0.0000000E+000	0.0000000E+000	44.0743	0.0000000E+000	0.0000000E+000	0.0000000E+000	-44.0743	0.0000000E+000	0.0000000E+000	0.0000000E+000	-45.9257	0.0000000E+000	0.0000000E+000	0.0000000E+000	45.9257	0.968198	44.0743	-1.68618e-06
794.239	10.8928	13.1316	17.0614	-50.3237	1202.69	0.399042	-0.00758396	15.2599	9.03972	1	38	0.00500916	0.000293596	0	-4.6833e-05	1.36294	1.44994	31.3979	1.76325e-05	2.45528e-05	2.99309e-05	1.05409e-05	3.98332e-05	3.04593e-05	0.735287	0.423431	10.6955	1.62043e-06	4.09326e-07	1.0023e-06	6.35033e-07	3.13123e-07	2.67413e-07	0.0374206	0.0451114	0.0586118	50.3237	9039.72	7498.59	11745	-39.6763	0.0000000E+000	0.0000000E+000	0.0000000E+000	39.6763	0.0000000E+000	0.0000000E+000	0.0000000E+000	-39.6763	0.0000000E+000	0.0000000E+000	0.0000000E+000	-50.3237	0.0000000E+000	0.0000000E+000	0.0000000E+000	50.3237	0.829516	39.6763	-1.53687e-06
631.01	11.4003	15.7012	19.4035	-54.0174	1203.44	0.399031	-0.00706076	16.0639	10.5186	1	38	0.00496846	0.00025606	0	-4.77507e-05	1.48144	0.734443	30.7224	2.27195e-05	2.24809e-05	2.01143e-05	2.80265e-05	4.83923e-05	2.06318e-05	1.05138	0.437591	12.4995	1.99424e-06	5.77698e-07	1.08125e-06	6.38829e-07	7.84144e-07	6.0373e-07	0.03028	0.0417035	0.051537	54.0174	10518.6	7637.31	12998.8	-35.9826	0.0000000E+000	0.0000000E+000	0.0000000E+000	35.9826	0.0000000E+000	0.0000000E+000	0.0000000E+000	-35.9826	0.0000000E+000	0.0000000E+000	0.0000000E+000	-54.0174	0.0000000E+000	0.0000000E+000	0.0000000E+000	54.0174	0.726079	35.9826	-9.17669e-07
501.122	12.0847	18.9967	22.5148	-57.5377	1204.18	0.399048	-0.00477803	16.7185	11.902	1	38	0.00495911	0.000220261	0	-4.85575e-05	2.66816	0.658622	31.5442	3.26803e-05	3.33797e-05	5.73644e-05	9.00389e-05	4.50876e-05	3.08597e-05	1.21465	0.254399	14.5742	1.44316e-06	7.56088e-07	7.77698e-07	1.35876e-06	1.01279e-06	9.77188e-07	0.0238397	0.0374752	0.0444153	57.5377	11902	7571.41	14106.2	-32.4623	0.0000000E+000	0.0000000E+000	0.0000000E+000	32.4623	0.0000000E+000	0.0000000E+000	0.0000000E+000	-32.4623	0.0000000E+000	0.0000000E+000	0.0000000E+000	-57.5377	0.0000000E+000	0.0000000E+000	0.0000000E+000	57.5377	0.636146	32.4623	-8.06859e-07
398.089	12.8704	22.979	26.3379	-60.7471	1204.92	0.399062	-0.0041487	17.3984	13.2437	1	38	0.00495376	0.000188085	0	-4.96127e-05	1.62962	1.0143	29.9187	1.81766e-05	3.24835e-05	2.31601e-05	4.54471e-05	2.73162e-05	4.09725e-05	0.861726	0.664689	16.6813	7.80521e-07	4.05849e-07	6.6087e-07	5.20824e-07	6.93119e-07	6.16074e-07	0.0185537	0.0331261	0.0379681	60.7471	13243.7	7417.73	15179.6	-29.2529	0.0000000E+000	0.0000000E+000	0.0000000E+000	29.2529	0.0000000E+000	0.0000000E+000	0.0000000E+000	-29.2529	0.0000000E+000	0.0000000E+000	0.0000000E+000	-60.7471	0.0000000E+000	0.0000000E+000	0.0000000E+000	60.7471	0.560094	29.2529	-1.05521e-06
316.316	13.8382	27.901	31.1442	-63.6198	1205.92	0.399041	-0.000982804	18.0335	14.4732	1	39	0.0050865	0.000163321	0	-5.02984e-05	1.34909	0.874858	29.7287	2.47011e-05	3.27462e-05	2.64185e-05	3.00355e-05	2.00122e-05	3.08261e-05	0.725951	0.274536	8.47996	1.04968e-06	2.62178e-07	1.19029e-07	3.87408e-07	1.22319e-07	2.22991e-07	0.0142667	0.0287651	0.0321087	63.6198	14473.2	7178.33	16155.5	-26.3802	0.0000000E+000	0.0000000E+000	0.0000000E+000	26.3802	0.0000000E+000	0.0000000E+000	0.0000000E+000	-26.3802	0.0000000E+000	0.0000000E+000	0.0000000E+000	-63.6198	0.0000000E+000	0.0000000E+000	0.0000000E+000	63.6198	0.495974	26.3802	-6.85617e-07
251.206	14.5046	34.1869	37.1366	-67.0097	1206.66	0.399053	-0.00112911	18.5324	15.7053	1	39	0.00502049	0.00013519	0	-5.05863e-05	1.53094	0.75578	28.9671	2.42334e-05	3.59962e-05	2.83115e-05	2.72909e-05	1.34304e-05	3.70114e-05	0.905451	0.262419	10.7892	5.94852e-07	7.99688e-07	1.86363e-07	4.60511e-07	2.57655e-07	2.75131e-07	0.0105172	0.0247888	0.0269276	67.0097	15705.3	6663.34	17060.4	-22.9902	0.0000000E+000	0.0000000E+000	0.0000000E+000	22.9902	0.0000000E+000	0.0000000E+000	0.0000000E+000	-22.9902	0.0000000E+000	0.0000000E+000	0.0000000E+000	-67.0097	0.0000000E+000	0.0000000E+000	0.0000000E+000	67.0097	0.424274	22.9902	-2.87909e-07
199.553	15.5268	41.845	44.6328	-69.6423	1207.41	0.399032	-0.000799036	19.0597	16.7531	1	39	0.00497776	0.000111527	0	-5.08989e-05	1.67886	0.809211	29.1264	3.3852e-05	3.71326e-05	2.63255e-05	4.19466e-05	3.36606e-05	1.79985e-05	0.986842	0.318335	12.3822	5.59232e-07	4.6268e-07	2.93856e-07	5.87697e-07	1.1525e-07	3.313e-07	0.00779425	0.0210056	0.022405	69.6423	16753.1	6216.35	17869.3	-20.3577	0.0000000E+000	0.0000000E+000	0.0000000E+000	20.3577	0.0000000E+000	0.0000000E+000	0.0000000E+000	-20.3577	0.0000000E+000	0.0000000E+000	0.0000000E+000	-69.6423	0.0000000E+000	0.0000000E+000	0.0000000E+000	69.6423	0.371056	20.3577	-3.12604e-07
158.529	16.6362	51.5897	54.2057	-72.127	1208.15	0.399046	-0.000896699	19.4602	17.6272	1	39	0.00496237	9.15469e-05	0	-5.10491e-05	1.20212	1.03415	30.1319	4.07206e-05	1.97922e-05	1.28378e-05	1.97469e-05	1.86335e-05	1.94186e-05	0.839887	0.37371	15.0148	3.71541e-07	1.81721e-07	3.28466e-07	3.67268e-07	2.83242e-07	1.41269e-07	0.00566191	0.0175579	0.0184482	72.127	17627.2	5684.27	18521.1	-17.873	0.0000000E+000	0.0000000E+000	0.0000000E+000	17.873	0.0000000E+000	0.0000000E+000	0.0000000E+000	-17.873	0.0000000E+000	0.0000000E+000	0.0000000E+000	-72.127	0.0000000E+000	0.0000000E+000	0.0000000E+000	72.127	0.322471	17.873	-1.5021e-07
125.927	18.0713	63.6349	66.1512	-74.1463	1208.89	0.399045	-0.00102474	19.8613	18.379	1	39	0.00494127	7.46966e-05	0	-5.12224e-05	1.36031	0.401729	29.799	4.00554e-05	2.12437e-05	1.25239e-05	1.1382e-05	3.01812e-05	2.90985e-05	1.12648	0.541641	17.9647	5.69188e-07	2.46281e-07	1.55481e-07	3.26502e-07	2.47317e-07	3.20228e-07	0.00412967	0.0145419	0.0151169	74.1463	18379	5219.36	19105.8	-15.8537	0.0000000E+000	0.0000000E+000	0.0000000E+000	15.8537	0.0000000E+000	0.0000000E+000	0.0000000E+000	-15.8537	0.0000000E+000	0.0000000E+000	0.0000000E+000	-74.1463	0.0000000E+000	0.0000000E+000	0.0000000E+000	74.1463	0.283985	15.8537	-1.73354e-07
99.9682	19.7974	78.5232	80.9805	-75.8494	1209.63	0.399055	-0.00072169	20.275	19.0632	1	39	0.00493929	6.09935e-05	0	-5.13262e-05	1.12805	0.812778	28.8581	3.34897e-05	2.59274e-05	2.31157e-05	2.02491e-05	1.31391e-05	8.16837e-06	1.38314	0.520745	22.6053	2.29165e-07	4.09245e-07	3.70525e-07	2.00118e-07	4.13325e-07	2.89207e-07	0.00301889	0.011974	0.0123487	75.8494	19063.2	4806.25	19659.8	-14.1506	0.0000000E+000	0.0000000E+000	0.0000000E+000	14.1506	0.0000000E+000	0.0000000E+000	0.0000000E+000	-14.1506	0.0000000E+000	0.0000000E+000	0.0000000E+000	-75.8494	0.0000000E+000	0.0000000E+000	0.0000000E+000	75.8494	0.252122	14.1506	-1.03733e-07
100004	6.16411	0.642358	6.19749	-5.94928	1211.07	0.399159	-0.00600689	2.47758	0.0266164	2	38	0.0048962	0.000790029	0	-5.29195e-05	1.41317	1.08534	31.3473	2.80226e-05	2.09995e-05	2.52545e-05	3.11798e-05	2.77846e-05	2.86483e-05	0.197665	0.0899219	3.94249	3.46059e-07	4.2688e-07	4.17175e-07	6.85269e-07	5.45581e-07	1.04499e-06	0.160487	0.0167242	0.161356	5.94928	26.6164	255.413	256.796	-84.0507	0.0000000E+000	0.0000000E+000	0.0000000E+000	84.0507	0.0000000E+000	0.0000000E+000	0.0000000E+000	-84.0507	0.0000000E+000	0.0000000E+000	0.0000000E+000	-5.94928	0.0000000E+000	0.0000000E+000	0.0000000E+000	5.94928	9.59607	84.0507	-1.59335e-06
79433.3	6.17403	0.645658	6.2077	-5.97009	1211.88	0.399132	-0.00627315	3.10324	0.0335706	2	38	0.00513171	0.000826669	0	-5.39e-05	1.97151	0.498733	29.5289	2.00489e-05	5.21847e-05	3.28886e-05	5.54745e-05	3.78631e-05	2.82191e-05	0.20078	0.0788991	3.70644	3.46953e-07	8.07984e-07	2.40014e-07	5.19509e-07	8.40389e-07	9.28462e-07	0.160217	0.0167549	0.16109	5.97009	33.5706	321.015	322.765	-84.0299	0.0000000E+000	0.0000000E+000	0.0000000E+000	84.0299	0.0000000E+000	0.0000000E+000	0.0000000E+000	-84.0299	0.0000000E+000	0.0000000E+000	0.0000000E+000	-5.97009	0.0000000E+000	0.0000000E+000	0.0000000E+000	5.97009	9.56238	84.0299	-9.80489e-07
63093.8	6.18211	0.68922	6.22041	-6.36143	1212.7	0.399121	-0.00631411	3.65995	0.0449318	2	38	0.00513305	0.000825194	0	-5.43117e-05	1.23892	0.681984	29.6736	1.68138e-05	3.54019e-05	1.93694e-05	2.1821e-05	2.43169e-05	2.81726e-05	0.18494	0.124631	3.74193	5.43339e-07	7.00396e-07	4.14948e-07	5.95988e-07	5.47034e-07	7.67443e-07	0.159771	0.0178123	0.160761	6.36143	44.9318	403.025	405.522	-83.6386	0.0000000E+000	0.0000000E+000	0.0000000E+000	83.6386	0.0000000E+000	0.0000000E+000	0.0000000E+000	-83.6386	0.0000000E+000	0.0000000E+000	0.0000000E+000	-6.36143	0.0000000E+000	0.0000000E+000	0.0000000E+000	6.36143	8.96971	83.6386	-4.11731e-07
50122.5	6.22302	0.735824	6.26637	-6.74347	1213.51	0.399138	-0.00577042	4.31533	0.0595017	2	38	0.00522097	0.000833172	0	-5.64213e-05	1.10566	2.10715	29.3604	3.21092e-05	1.64991e-05	3.35431e-06	1.03515e-05	3.25464e-05	2.73498e-05	0.231762	0.280191	3.80402	7.27757e-07	6.47331e-07	8.64543e-07	6.30883e-07	8.6061e-07	4.88857e-07	0.158478	0.0187388	0.159582	6.74347	59.5017	503.218	506.724	-83.2565	0.0000000E+000	0.0000000E+000	0.0000000E+000	83.2565	0.0000000E+000	0.0000000E+000	0.0000000E+000	-83.2565	0.0000000E+000	0.0000000E+000	0.0000000E+000	-6.74347	0.0000000E+000	0.0000000E+000	0.0000000E+000	6.74347	8.45721	83.2565	-2.10956e-06
39814.1	6.26421	0.829446	6.31889	-7.54268	1214.33	0.399175	-0.00656547	4.81943	0.0830407	2	38	0.00517718	0.000819319	0	-5.83026e-05	1.54117	0.729018	29.8838	1.80878e-05	3.32753e-05	3.8675e-05	2.97115e-05	2.72681e-05	3.76116e-05	0.204376	0.0973641	3.8606	5.54873e-07	4.20171e-07	6.73498e-07	8.19492e-07	3.96994e-07	8.30571e-07	0.156886	0.0207734	0.158256	7.54268	83.0407	627.147	632.62	-82.4573	0.0000000E+000	0.0000000E+000	0.0000000E+000	82.4573	0.0000000E+000	0.0000000E+000	0.0000000E+000	-82.4573	0.0000000E+000	0.0000000E+000	0.0000000E+000	-7.54268	0.0000000E+000	0.0000000E+000	0.0000000E+000	7.54268	7.55228	82.4573	-1.88131e-06
31621.1	6.30214	0.962048	6.37514	-8.67944	1215.14	0.39915	-0.00650216	5.23174	0.11914	2	38	0.00516017	0.00080942	0	-5.85518e-05	1.89016	0.535985	29.7156	4.00306e-05	3.3852e-05	2.62261e-05	1.58906e-05	4.75243e-05	5.26599e-05	0.238436	0.121961	3.83392	6.34096e-07	1.31808e-06	9.50811e-07	5.04943e-07	2.71737e-07	2.43282e-07	0.155063	0.023671	0.156859	8.67944	119.14	780.46	789.501	-81.3206	0.0000000E+000	0.0000000E+000	0.0000000E+000	81.3206	0.0000000E+000	0.0000000E+000	0.0000000E+000	-81.3206	0.0000000E+000	0.0000000E+000	0.0000000E+000	-8.67944	0.0000000E+000	0.0000000E+000	0.0000000E+000	8.67944	6.55075	81.3206	-2.49176e-07
25116.9	6.32492	1.16672	6.43163	-10.4515	1215.95	0.399153	-0.00583932	5.43111	0.178722	2	38	0.0051501	0.000800747	0	-6.06296e-05	1.60011	1.50272	29.9558	2.06161e-05	2.15185e-05	5.80669e-05	2.38528e-05	2.11165e-05	3.20467e-05	0.184721	0.133979	3.99677	6.24899e-07	6.55819e-07	5.10466e-07	2.44319e-07	6.97248e-07	6.70283e-07	0.152902	0.0282048	0.155482	10.4515	178.722	968.874	985.22	-79.5485	0.0000000E+000	0.0000000E+000	0.0000000E+000	79.5485	0.0000000E+000	0.0000000E+000	0.0000000E+000	-79.5485	0.0000000E+000	0.0000000E+000	0.0000000E+000	-10.4515	0.0000000E+000	0.0000000E+000	0.0000000E+000	10.4515	5.42113	79.5485	-2.07786e-06
19948.8	6.44633	1.30909	6.5779	-11.4792	1216.77	0.399149	-0.00613164	6.09446	0.241378	2	38	0.00516031	0.000784492	0	-6.01253e-05	1.79575	0.979767	30.267	2.63057e-05	2.67598e-05	6.44986e-05	1.20106e-05	2.95342e-05	4.00505e-05	0.226627	0.098161	4.03343	4.3653e-07	4.35667e-07	1.26683e-06	7.75737e-07	4.15659e-07	5.00889e-07	0.148983	0.0302547	0.152024	11.4792	241.378	1188.61	1212.88	-78.5208	0.0000000E+000	0.0000000E+000	0.0000000E+000	78.5208	0.0000000E+000	0.0000000E+000	0.0000000E+000	-78.5208	0.0000000E+000	0.0000000E+000	0.0000000E+000	-11.4792	0.0000000E+000	0.0000000E+000	0.0000000E+000	11.4792	4.92429	78.5208	5.04368e-07
15847.7	6.55803	1.56381	6.74191	-13.4121	1217.58	0.399136	-0.00612606	6.42201	0.345519	2	38	0.00512351	0.00075995	0	-6.06947e-05	1.70172	0.767338	28.2446	3.74563e-05	3.1116e-05	2.87166e-05	2.50588e-05	1.83907e-05	5.67764e-05	0.252777	0.0817511	4.23008	8.34529e-07	6.65012e-07	6.4374e-07	7.19408e-07	3.90264e-07	1.08899e-06	0.144281	0.0344047	0.148326	13.4121	345.519	1448.98	1489.61	-76.5879	0.0000000E+000	0.0000000E+000	0.0000000E+000	76.5879	0.0000000E+000	0.0000000E+000	0.0000000E+000	-76.5879	0.0000000E+000	0.0000000E+000	0.0000000E+000	-13.4121	0.0000000E+000	0.0000000E+000	0.0000000E+000	13.4121	4.19363	76.5879	-5.69438e-07
12590.9	6.64868	1.84407	6.89967	-15.5018	1218.4	0.399128	-0.00604599	6.85464	0.489647	2	38	0.00497961	0.000721717	0	-6.04029e-05	1.77519	0.722477	31.1296	2.83808e-05	3.80589e-05	4.2834e-05	1.35953e-05	2.2107e-05	5.11747e-05	0.280025	0.147929	4.38521	5.05869e-07	6.27571e-07	1.01708e-06	7.3986e-07	6.85248e-07	1.05886e-06	0.139662	0.0387365	0.144934	15.5018	489.647	1765.39	1832.04	-74.4982	0.0000000E+000	0.0000000E+000	0.0000000E+000	74.4982	0.0000000E+000	0.0000000E+000	0.0000000E+000	-74.4982	0.0000000E+000	0.0000000E+000	0.0000000E+000	-15.5018	0.0000000E+000	0.0000000E+000	0.0000000E+000	15.5018	3.60543	74.4982	2.91841e-07
10002.2	6.85923	2.1798	7.19727	-17.6298	1219.21	0.399136	-0.00519881	7.29972	0.669585	2	38	0.00509394	0.00070776	0	-6.20139e-05	1.89764	0.926193	30.2103	2.92375e-05	1.85285e-05	2.61853e-05	7.25285e-05	1.44519e-05	3.97048e-05	0.273026	0.10849	4.4044	5.86104e-07	3.15228e-07	7.56016e-07	1.41421e-06	4.553e-07	6.21045e-07	0.132416	0.0420806	0.138942	17.6298	669.585	2107	2210.83	-72.3702	0.0000000E+000	0.0000000E+000	0.0000000E+000	72.3702	0.0000000E+000	0.0000000E+000	0.0000000E+000	-72.3702	0.0000000E+000	0.0000000E+000	0.0000000E+000	-17.6298	0.0000000E+000	0.0000000E+000	0.0000000E+000	17.6298	3.14672	72.3702	-1.61102e-06
7944	7.00307	2.59754	7.46928	-20.3505	1220.06	0.398993	-0.00567733	7.71293	0.932794	2	38	0.00520603	0.000696992	0	-6.25272e-05	1.73721	0.719258	29.8144	2.68485e-05	4.47395e-05	5.39689e-05	2.25372e-05	2.20572e-05	3.37798e-05	0.205681	0.128441	4.63561	5.71009e-07	5.03608e-07	4.96825e-07	5.79636e-07	4.35585e-07	6.82954e-07	0.125525	0.0465591	0.133882	20.3505	932.794	2514.85	2682.27	-69.6495	0.0000000E+000	0.0000000E+000	0.0000000E+000	69.6495	0.0000000E+000	0.0000000E+000	0.0000000E+000	-69.6495	0.0000000E+000	0.0000000E+000	0.0000000E+000	-20.3505	0.0000000E+000	0.0000000E+000	0.0000000E+000	20.3505	2.69604	69.6495	-5.13292e-07
6307.74	7.2905	3.00751	7.88648	-22.4174	1220.96	0.399037	-0.005439	8.38956	1.22008	2	38	0.00507111	0.000643013	0	-6.45405e-05	1.52843	0.897887	30.8323	2.73382e-05	1.69482e-05	7.71566e-06	3.90443e-05	3.0558e-05	4.77397e-05	0.265546	0.152738	4.98905	6.58316e-07	8.16612e-07	6.72154e-07	6.8059e-07	3.8891e-07	7.63628e-07	0.117217	0.048355	0.126799	22.4174	1220.08	2957.59	3199.36	-67.5826	0.0000000E+000	0.0000000E+000	0.0000000E+000	67.5826	0.0000000E+000	0.0000000E+000	0.0000000E+000	-67.5826	0.0000000E+000	0.0000000E+000	0.0000000E+000	-22.4174	0.0000000E+000	0.0000000E+000	0.0000000E+000	22.4174	2.4241	67.5826	-2.01326e-06
5011.6	7.55296	3.56013	8.34995	-25.2371	1221.72	0.399038	-0.00538687	8.92025	1.62159	2	38	0.00539387	0.000645976	0	-6.61276e-05	1.69924	0.883313	28.5933	2.88337e-05	4.77879e-05	2.94749e-05	3.33165e-05	3.69361e-05	3.28947e-05	0.218292	0.111674	4.90077	4.0215e-07	7.07927e-07	7.53352e-07	6.51551e-07	2.40414e-07	1.98664e-07	0.10833	0.0510621	0.119761	25.2371	1621.59	3440.27	3803.29	-64.7629	0.0000000E+000	0.0000000E+000	0.0000000E+000	64.7629	0.0000000E+000	0.0000000E+000	0.0000000E+000	-64.7629	0.0000000E+000	0.0000000E+000	0.0000000E+000	-25.2371	0.0000000E+000	0.0000000E+000	0.0000000E+000	25.2371	2.12154	64.7629	-1.58712e-06
3981.28	7.82953	4.10196	8.83898	-27.6504	1222.68	0.39905	-0.00504241	9.74556	2.09887	2	38	0.00489856	0.0005542	0	-6.80541e-05	1.9973	0.893845	31.8545	4.49692e-05	3.8531e-05	4.79638e-05	3.53631e-05	1.81189e-05	3.10687e-05	0.249007	0.282277	5.69198	6.93223e-07	7.44522e-07	4.71831e-07	4.63607e-07	5.15695e-07	3.1964e-07	0.100215	0.0525033	0.113135	27.6504	2098.87	4006.17	4522.68	-62.3496	0.0000000E+000	0.0000000E+000	0.0000000E+000	62.3496	0.0000000E+000	0.0000000E+000	0.0000000E+000	-62.3496	0.0000000E+000	0.0000000E+000	0.0000000E+000	-27.6504	0.0000000E+000	0.0000000E+000	0.0000000E+000	27.6504	1.90873	62.3496	-1.92656e-06
3163.04	8.26132	4.83271	9.57102	-30.3268	1223.42	0.399014	-0.00429206	10.4118	2.65454	2	38	0.00500247	0.000522669	0	-6.90504e-05	1.48216	1.177	30.904	3.28103e-05	2.30251e-05	2.8345e-05	3.78017e-05	1.76377e-05	2.45178e-05	0.345387	0.10845	6.04588	5.58284e-07	7.76413e-07	8.2479e-07	3.98526e-07	8.5003e-07	8.40904e-07	0.0901847	0.0527562	0.104482	30.3268	2654.54	4537.83	5257.23	-59.6732	0.0000000E+000	0.0000000E+000	0.0000000E+000	59.6732	0.0000000E+000	0.0000000E+000	0.0000000E+000	-59.6732	0.0000000E+000	0.0000000E+000	0.0000000E+000	-30.3268	0.0000000E+000	0.0000000E+000	0.0000000E+000	30.3268	1.70946	59.6732	-9.96268e-07
2512.41	8.50595	5.66672	10.2207	-33.6718	1224.17	0.399053	-0.00480595	11.1789	3.43636	2	38	0.00494221	0.000483548	0	-6.99836e-05	1.61132	1.619	31.1257	2.47654e-05	2.42394e-05	3.10012e-05	3.21632e-05	4.36473e-05	2.7127e-05	0.371647	0.520153	6.50516	7.74462e-07	2.00636e-07	5.65739e-07	6.09181e-07	9.15289e-07	7.99332e-07	0.0814256	0.0542462	0.0978406	33.6718	3436.36	5158.11	6197.96	-56.3282	0.0000000E+000	0.0000000E+000	0.0000000E+000	56.3282	0.0000000E+000	0.0000000E+000	0.0000000E+000	-56.3282	0.0000000E+000	0.0000000E+000	0.0000000E+000	-33.6718	0.0000000E+000	0.0000000E+000	0.0000000E+000	33.6718	1.50104	56.3282	-9.33199e-07
1995.64	8.90666	6.65225	11.1167	-36.7555	1224.91	0.399043	-0.00511689	11.9886	4.29294	2	38	0.00493218	0.000443673	0	-7.08634e-05	1.9484	0.877166	32.065	3.65798e-05	2.9548e-05	3.04428e-05	2.17538e-05	5.14481e-05	4.44017e-05	0.398634	0.171334	7.12547	6.17567e-07	1.10399e-06	4.80701e-07	2.93726e-07	3.24339e-07	9.33063e-07	0.0720714	0.0538291	0.0899547	36.7555	4292.94	5747.8	7174.02	-53.2445	0.0000000E+000	0.0000000E+000	0.0000000E+000	53.2445	0.0000000E+000	0.0000000E+000	0.0000000E+000	-53.2445	0.0000000E+000	0.0000000E+000	0.0000000E+000	-36.7555	0.0000000E+000	0.0000000E+000	0.0000000E+000	36.7555	1.33889	53.2445	-8.79823e-07
1584.49	9.47168	7.84318	12.2975	-39.627	1225.65	0.399012	-0.00401091	12.8067	5.20942	2	38	0.00494746	0.000402315	0	-7.14564e-05	1.54383	1.15893	31.2067	2.88735e-05	3.51885e-05	3.14145e-05	2.69068e-05	3.40157e-05	2.86504e-05	0.522263	0.198152	7.88001	1.71424e-06	5.60329e-07	4.4388e-07	2.93865e-07	6.70283e-07	3.75337e-07	0.0626317	0.0518632	0.0813175	39.627	5209.42	6291.07	8167.96	-50.373	0.0000000E+000	0.0000000E+000	0.0000000E+000	50.373	0.0000000E+000	0.0000000E+000	0.0000000E+000	-50.373	0.0000000E+000	0.0000000E+000	0.0000000E+000	-39.627	0.0000000E+000	0.0000000E+000	0.0000000E+000	39.627	1.20763	50.373	-5.92995e-07
1258.79	9.92642	9.14475	13.4967	-42.6529	1226.4	0.399037	-0.00463093	13.8259	6.34724	2	38	0.00489049	0.000362348	0	-7.24181e-05	1.45062	1.07556	31.6413	1.31188e-05	1.88529e-05	2.12875e-05	4.44027e-05	2.21226e-05	2.39632e-05	0.620603	0.371163	8.59792	1.45383e-06	6.60004e-07	8.50438e-07	8.25631e-07	6.37941e-07	3.29308e-07	0.0544928	0.0502017	0.0740923	42.6529	6347.24	6889.78	9367.85	-47.3471	0.0000000E+000	0.0000000E+000	0.0000000E+000	47.3471	0.0000000E+000	0.0000000E+000	0.0000000E+000	-47.3471	0.0000000E+000	0.0000000E+000	0.0000000E+000	-42.6529	0.0000000E+000	0.0000000E+000	0.0000000E+000	42.6529	1.08548	47.347	-9.61648e-07
999.682	10.4493	10.9148	15.1103	-46.2482	1227.14	0.399039	-0.00456763	14.5862	7.61075	2	38	0.00486333	0.000321855	0	-7.33256e-05	1.58809	1.20269	32.3606	3.64633e-05	3.62693e-05	3.99261e-05	1.27968e-05	3.09057e-05	1.96845e-05	0.771913	0.445741	10.2432	1.70949e-06	1.0173e-06	5.94255e-07	6.28276e-07	8.25173e-07	4.09406e-07	0.0457658	0.0478045	0.0661799	46.2482	7610.75	7286.17	10536.2	-43.7518	0.0000000E+000	0.0000000E+000	0.0000000E+000	43.7518	0.0000000E+000	0.0000000E+000	0.0000000E+000	-43.7518	0.0000000E+000	0.0000000E+000	0.0000000E+000	-46.2482	0.0000000E+000	0.0000000E+000	0.0000000E+000	46.2482	0.957352	43.7518	-9.07495e-07
794.239	10.9525	13.0488	17.0361	-49.9917	1227.88	0.399047	-0.00416173	15.3567	9.0095	2	38	0.00481817	0.000282822	0	-7.42244e-05	1.76708	0.867493	31.7767	3.41661e-05	1.17886e-05	1.34964e-05	4.82841e-05	4.7474e-05	2.53679e-05	0.719971	0.332444	11.5053	1.36438e-06	7.45298e-07	5.25551e-07	7.13279e-07	6.83426e-07	4.06834e-07	0.0377375	0.0449606	0.058699	49.9917	9009.5	7562.1	11762.5	-40.0083	0.0000000E+000	0.0000000E+000	0.0000000E+000	40.0083	0.0000000E+000	0.0000000E+000	0.0000000E+000	-40.0083	0.0000000E+000	0.0000000E+000	0.0000000E+000	-49.9917	0.0000000E+000	0.0000000E+000	0.0000000E+000	49.9917	0.839347	40.0083	-8.98794e-07
631.01	11.467	15.768	19.4967	-53.9742	1228.62	0.399043	-0.00393085	15.9959	10.4626	2	38	0.00480424	0.000246413	0	-7.52334e-05	1.92215	0.81309	31.9039	2.44879e-05	5.63592e-05	2.009e-05	3.54321e-05	3.81198e-05	2.56835e-05	0.823141	0.361119	12.9519	9.04791e-07	8.47061e-07	6.43616e-07	7.2969e-07	1.01663e-06	5.69267e-07	0.0301667	0.0414815	0.0512908	53.9742	10462.6	7608.72	12936.7	-36.0258	0.0000000E+000	0.0000000E+000	0.0000000E+000	36.0258	0.0000000E+000	0.0000000E+000	0.0000000E+000	-36.0258	0.0000000E+000	0.0000000E+000	0.0000000E+000	-53.9742	0.0000000E+000	0.0000000E+000	0.0000000E+000	53.9742	0.727232	36.0258	-1.00906e-06
501.122	12.038	19.036	22.5229	-57.6915	1229.37	0.399079	-0.0023091	16.6841	11.918	2	38	0.0047821	0.000212322	0	-7.57377e-05	2.7149	0.76645	33.2859	1.75193e-05	5.76544e-05	5.75203e-05	7.92593e-05	2.97954e-05	4.41432e-05	1.45173	0.514017	15.1974	1.33474e-06	4.07257e-07	9.02471e-07	1.79295e-06	6.61783e-07	1.48428e-06	0.0237304	0.0375254	0.0443992	57.6915	11918	7536.71	14101.1	-32.3085	0.0000000E+000	0.0000000E+000	0.0000000E+000	32.3085	0.0000000E+000	0.0000000E+000	0.0000000E+000	-32.3085	0.0000000E+000	0.0000000E+000	0.0000000E+000	-57.6915	0.0000000E+000	0.0000000E+000	0.0000000E+000	57.6915	0.632382	32.3085	-5.04293e-07
398.089	12.8645	22.9129	26.2773	-60.688	1230.11	0.399076	-0.00200747	17.4485	13.2666	2	38	0.00476983	0.000181519	0	-7.64075e-05	2.14588	1.00994	31.8372	2.68048e-05	4.38617e-05	5.86772e-05	4.61431e-05	3.73288e-05	1.64598e-05	1.12952	0.688754	17.5966	1.07173e-06	6.20254e-07	7.86988e-07	6.77129e-07	4.9e-07	1.10942e-06	0.0186307	0.0331832	0.0380556	60.688	13266.6	7448.51	15214.5	-29.312	0.0000000E+000	0.0000000E+000	0.0000000E+000	29.312	0.0000000E+000	0.0000000E+000	0.0000000E+000	-29.312	0.0000000E+000	0.0000000E+000	0.0000000E+000	-60.688	0.0000000E+000	0.0000000E+000	0.0000000E+000	60.688	0.561449	29.312	-6.69814e-07
316.316	13.6723	28.0454	31.2006	-64.0104	1231.11	0.399051	-0.000491696	17.9406	14.4955	2	39	0.00490475	0.0001572	0	-7.65935e-05	1.19766	0.878286	30.4566	8.14171e-06	2.75779e-05	2.55414e-05	1.63807e-05	1.46212e-05	3.51978e-05	0.743187	0.147836	8.66996	7.85505e-07	4.32591e-07	3.46468e-07	5.75189e-07	2.50713e-07	9.78644e-08	0.0140448	0.0288095	0.0320506	64.0104	14495.5	7066.68	16126.3	-25.9896	0.0000000E+000	0.0000000E+000	0.0000000E+000	25.9896	0.0000000E+000	0.0000000E+000	0.0000000E+000	-25.9896	0.0000000E+000	0.0000000E+000	0.0000000E+000	-64.0104	0.0000000E+000	0.0000000E+000	0.0000000E+000	64.0104	0.487507	25.9896	-1.85989e-07
251.206	14.7173	34.6089	37.6082	-66.9626	1231.85	0.399062	-0.00047865	18.3064	15.5029	2	39	0.00488359	0.000129854	0	-7.66894e-05	1.53195	1.02075	28.6104	3.71647e-05	3.22513e-05	3.5535e-05	2.9781e-05	1.92082e-05	2.38186e-05	0.838048	0.307065	10.7394	5.29636e-07	4.60843e-07	4.75994e-07	4.81968e-07	2.5969e-07	2.78523e-07	0.0104055	0.0244694	0.02659	66.9626	15502.9	6592.54	16846.4	-23.0374	0.0000000E+000	0.0000000E+000	0.0000000E+000	23.0374	0.0000000E+000	0.0000000E+000	0.0000000E+000	-23.0374	0.0000000E+000	0.0000000E+000	0.0000000E+000	-66.9626	0.0000000E+000	0.0000000E+000	0.0000000E+000	66.9626	0.425245	23.0374	-9.59411e-08
199.553	15.5054	42.2286	44.9852	-69.8379	1232.6	0.399029	-5.61281e-05	18.8866	16.6429	2	39	0.00482433	0.000107243	0	-7.65831e-05	2.12348	0.908079	32.3358	4.75623e-05	5.29717e-05	3.31635e-05	5.35238e-05	2.23801e-05	2.6267e-05	0.742923	0.497823	14.0205	4.19509e-07	3.54239e-07	3.31085e-07	2.71321e-07	1.90075e-07	2.66096e-07	0.00766201	0.0208673	0.0222295	69.8379	16642.9	6110.88	17729.3	-20.1621	0.0000000E+000	0.0000000E+000	0.0000000E+000	20.1621	0.0000000E+000	0.0000000E+000	0.0000000E+000	-20.1621	0.0000000E+000	0.0000000E+000	0.0000000E+000	-69.8379	0.0000000E+000	0.0000000E+000	0.0000000E+000	69.8379	0.367177	20.1621	1.0633e-07
158.529	16.91	51.7855	54.4765	-71.9161	1233.34	0.399079	-0.000551338	19.3867	17.5187	2	39	0.00478782	8.78879e-05	0	-7.66678e-05	1.72283	0.821462	31.3113	3.83166e-05	2.34576e-05	3.05966e-05	2.68833e-05	5.28996e-05	1.25669e-05	1.19047	0.698331	15.8947	6.93233e-07	1.71786e-07	1.19565e-07	5.72398e-07	2.9932e-07	3.24091e-07	0.00569804	0.0174498	0.0183565	71.9161	17518.7	5720.54	18429	-18.0839	0.0000000E+000	0.0000000E+000	0.0000000E+000	18.0839	0.0000000E+000	0.0000000E+000	0.0000000E+000	-18.0839	0.0000000E+000	0.0000000E+000	0.0000000E+000	-71.9161	0.0000000E+000	0.0000000E+000	0.0000000E+000	71.9161	0.32654	18.0839	-8.47143e-08
125.927	18.2879	63.9605	66.5236	-74.0434	1234.08	0.399054	-0.000555067	19.7602	18.2668	2	39	0.00477831	7.18288e-05	0	-7.68153e-05	1.3048	0.696459	31.3875	1.83592e-05	2.23468e-05	2.69187e-05	3.52823e-05	1.89799e-05	2.16918e-05	1.18179	0.676911	19.3327	3.8904e-07	1.78927e-07	3.08512e-07	4.1022e-07	3.6254e-07	2.95511e-07	0.0041325	0.0144531	0.0150323	74.0434	18266.8	5222.93	18998.8	-15.9566	0.0000000E+000	0.0000000E+000	0.0000000E+000	15.9566	0.0000000E+000	0.0000000E+000	0.0000000E+000	-15.9566	0.0000000E+000	0.0000000E+000	0.0000000E+000	-74.0434	0.0000000E+000	0.0000000E+000	0.0000000E+000	74.0434	0.285925	15.9566	-1.47483e-07
99.9682	19.7053	78.3654	80.8049	-75.8854	1234.82	0.39906	-0.000386953	20.3158	19.1076	2	39	0.00474328	5.87004e-05	0	-7.69339e-05	1.16694	0.885093	31.2275	2.76637e-05	2.04546e-05	2.12017e-05	2.25506e-05	2.3323e-05	1.49709e-05	1.25174	0.64191	24.07	2.74734e-07	1.78356e-07	2.56857e-07	4.30662e-07	2.52137e-07	2.74263e-07	0.00301791	0.0120019	0.0123755	75.8854	19107.6	4804.69	19702.5	-14.1146	0.0000000E+000	0.0000000E+000	0.0000000E+000	14.1146	0.0000000E+000	0.0000000E+000	0.0000000E+000	-14.1146	0.0000000E+000	0.0000000E+000	0.0000000E+000	-75.8854	0.0000000E+000	0.0000000E+000	0.0000000E+000	75.8854	0.251454	14.1146	-1.18539e-07