File: Python/Data/GoldElectrode/240308/240308-CV_Activation-0p5H2SO4-Ag_AgCl_BLF8-Au_RDE-Initial2-C15_C15.mpt
EC-Lab ASCII FILE
Nb header lines : 59

Cyclic Voltammetry

Run on channel : 15 (SN 19485)
User :
Electrode connection : standard
Potential control : Ewe
Ewe ctrl range : min = -2.50 V, max = 2.50 V
Ewe,I filtering : <None>
Safety Limits :
	Do not start on E overload
Channel : Floating
Acquisition started on : 03/08/2024 16:11:42.125
Loaded Setting File :  NONE
Saved on :
	File : 240308-CV_Activation-0p5H2SO4-Ag_AgCl_BLF8-Au_RDE-Initial2-C15_C15.mpr
	Directory : C:\Data\mathias\GoldElectrode\
	Host : 192.168.0.1
Device : VMP-300 (SN 0826)
Address : USB
EC-Lab for windows v11.52 (software)
Internet server v11.52 (firmware)
Command interpretor v11.52 (firmware)
Electrode material :
Initial state :
Electrolyte :
Comments :
Cable : special
Electrode surface area : 0.001 cm²
Characteristic mass : 0.001 g
Equivalent Weight : 0.000 g/eq.
Density : 0.000 g/cm3
Volume (V) : 0.001 cm³
Cycle Definition : Charge/Discharge alternance
Ei (V)              0.000
vs.                 Eoc
dE/dt               20.000
dE/dt unit          mV/s
E1 (V)              1.500
vs.                 Ref
Step percent        50
N                   10
E range min (V)     -2.500
E range max (V)     2.500
I Range             Auto
I Range min         Unset
I Range max         Unset
I Range init        Unset
Bandwidth           8
E2 (V)              -0.300
vs.                 Ref
nc cycles           1
Reverse Scan        1
Ef (V)              0.000
vs.                 Eoc

mode	ox/red	error	control changes	counter inc.	time/s	control/V	Ewe/V	<I>/mA	cycle number	(Q-Qo)/C	I Range	step time/s	P/W
2	1	0	0	0	0.000000000000000E+000	0.405302	0.403665	8.44521e-05	1	0.0000000E+000	43	0.000000000000000E+000	3.40903e-08
2	1	0	1	0	0.6573	0.418445	0.417926	0.000605565	1	3.52433e-07	42	0.6298	2.53082e-07
2	1	0	1	0	1.3069	0.431439	0.430748	0.000733244	1	7.91133e-07	42	1.2794	3.15843e-07
2	1	0	1	0	1.9565	0.444432	0.4442	0.000877473	1	1.31887e-06	42	1.929	3.89774e-07
2	1	0	1	0	2.6063	0.457425	0.457428	0.000983407	1	1.9286e-06	42	2.5788	4.49838e-07
2	1	0	1	0	3.2559	0.470419	0.469779	0.00109593	1	2.61005e-06	42	3.2284	5.14845e-07
2	1	0	1	0	3.9056	0.483411	0.483065	0.00116562	1	3.34886e-06	42	3.8781	5.63072e-07
2	1	0	1	0	4.5553	0.496406	0.496085	0.00122551	1	4.12864e-06	42	4.5278	6.07956e-07
2	1	0	1	0	5.2049	0.509399	0.509141	0.00124966	1	4.93592e-06	42	5.1774	6.36252e-07
2	1	0	1	0	5.8547	0.522393	0.521859	0.00128081	1	5.76222e-06	42	5.8272	6.684e-07
2	1	0	1	0	6.5043	0.535386	0.535111	0.0012902	1	6.60134e-06	42	6.4768	6.90399e-07
2	1	0	1	0	7.1539	0.54838	0.548405	0.00130535	1	7.44761e-06	42	7.1264	7.15859e-07
2	1	0	1	0	7.8037	0.561373	0.561491	0.00129315	1	8.29506e-06	42	7.7762	7.26091e-07
2	1	0	1	0	8.4533	0.574367	0.574217	0.0012971	1	9.13818e-06	42	8.4258	7.44814e-07
2	1	0	1	0	9.103	0.587359	0.587067	0.00127325	1	9.97342e-06	42	9.0755	7.47482e-07
2	1	0	1	0	9.7527	0.600354	0.600294	0.00126215	1	1.07995e-05	42	9.7252	7.57663e-07
2	1	0	1	0	10.4023	0.613347	0.613187	0.00124087	1	1.16147e-05	42	10.3748	7.60883e-07
2	1	0	1	0	11.0521	0.626341	0.626071	0.00123092	1	1.24207e-05	42	11.0246	7.7064e-07
2	1	0	1	0	11.7017	0.639334	0.639039	0.00120725	1	1.32156e-05	42	11.6742	7.7148e-07
2	1	0	1	0	12.3513	0.652328	0.652231	0.00119864	1	1.4002e-05	42	12.3238	7.81791e-07
2	1	0	1	0	13.0011	0.665321	0.665073	0.00118908	1	1.47811e-05	42	12.9736	7.90823e-07
2	1	0	1	0	13.6507	0.678315	0.67785	0.00119347	1	1.55588e-05	42	13.6232	8.08996e-07
2	1	0	1	0	14.3004	0.691309	0.690986	0.00120193	1	1.63392e-05	42	14.2729	8.30515e-07
2	1	0	1	0	14.9501	0.704302	0.703835	0.00121418	1	1.71275e-05	42	14.9226	8.54583e-07
2	1	0	1	0	15.5997	0.717295	0.717012	0.00122912	1	1.79242e-05	42	15.5722	8.81294e-07
2	1	0	1	0	16.2495	0.730289	0.730063	0.00123451	1	1.87285e-05	42	16.222	9.01273e-07
2	1	0	1	0	16.8991	0.743282	0.743	0.00122597	1	1.95341e-05	42	16.8716	9.10896e-07
2	1	0	1	0	17.5487	0.756276	0.755695	0.00120798	1	2.03312e-05	42	17.5212	9.12864e-07
2	1	0	1	0	18.1985	0.769269	0.769052	0.00116507	1	2.1107e-05	42	18.171	8.95998e-07
2	1	0	1	0	18.8481	0.782262	0.782039	0.0011245	1	2.18559e-05	42	18.8206	8.79403e-07
2	1	0	1	0	19.4978	0.795258	0.795063	0.00108779	1	2.25782e-05	42	19.4703	8.64864e-07
2	1	0	1	0	20.1475	0.808249	0.808009	0.00105615	1	2.32786e-05	42	20.12	8.53375e-07
2	1	0	1	0	20.7971	0.821243	0.820803	0.00103082	1	2.39608e-05	42	20.7696	8.46098e-07
2	1	0	1	0	21.4469	0.834236	0.834207	0.00100746	1	2.46283e-05	42	21.4194	8.40427e-07
2	1	0	1	0	22.0965	0.84723	0.84685	0.000990793	1	2.52831e-05	42	22.069	8.39053e-07
2	1	0	1	0	22.7461	0.860223	0.859995	0.000977346	1	2.5928e-05	42	22.7186	8.40513e-07
2	1	0	1	0	23.3959	0.873217	0.873098	0.000961131	1	2.65632e-05	42	23.3684	8.39162e-07
2	1	0	1	0	24.0455	0.88621	0.886138	0.000950869	1	2.71899e-05	42	24.018	8.42601e-07
2	1	0	1	0	24.6951	0.899204	0.898843	0.000949573	1	2.78123e-05	42	24.6676	8.53517e-07
2	1	0	1	0	25.3449	0.912197	0.911878	0.00095929	1	2.84375e-05	42	25.3174	8.74756e-07
2	1	0	1	0	25.9945	0.925191	0.92511	0.00098804	1	2.9076e-05	42	25.967	9.14046e-07
2	1	0	1	0	26.6442	0.938183	0.937859	0.00105789	1	2.9746e-05	42	26.6167	9.92149e-07
2	1	0	1	0	27.2939	0.951178	0.950827	0.00118679	1	3.0478e-05	42	27.2664	1.12843e-06
2	1	0	1	0	27.9435	0.964171	0.963852	0.00141729	1	3.13243e-05	42	27.916	1.36606e-06
2	1	0	1	0	28.5933	0.977165	0.977019	0.00181208	1	3.23712e-05	42	28.5658	1.77043e-06
2	1	0	1	0	29.2429	0.990158	0.989734	0.00247404	1	3.37557e-05	42	29.2154	2.44864e-06
2	1	0	1	0	29.8925	1.00315	1.00314	0.00350598	1	3.56837e-05	42	29.865	3.517e-06
2	1	0	1	0	30.5423	1.01615	1.01587	0.00504523	1	3.84429e-05	42	30.5148	5.12531e-06
2	1	0	1	0	31.1919	1.02914	1.02918	0.00715638	1	4.23865e-05	42	31.1644	7.36519e-06
2	1	0	1	0	31.8416	1.04213	1.04144	0.00974328	1	4.78685e-05	42	31.8141	1.0147e-05
2	1	0	1	0	32.5213	1.05573	1.05501	0.0126115	1	5.54924e-05	41	32.4938	1.33052e-05
2	1	0	1	0	33.1709	1.06872	1.06814	0.0152238	1	6.4585e-05	41	33.1434	1.62611e-05
2	1	0	1	0	33.8207	1.08171	1.08144	0.0174681	1	7.52651e-05	41	33.7932	1.88906e-05
2	1	0	1	0	34.4703	1.09471	1.09426	0.0192903	1	8.72731e-05	41	34.4428	2.11087e-05
2	1	0	1	0	35.1199	1.1077	1.10716	0.020579	1	0.000100291	41	35.0924	2.27843e-05
2	1	0	1	0	35.7697	1.12069	1.12034	0.021283	1	0.000113954	41	35.7422	2.38442e-05
2	1	0	1	0	36.4193	1.13369	1.13347	0.0215478	1	0.000127918	41	36.3918	2.44239e-05
2	1	0	1	0	37.0689	1.14668	1.1465	0.0214852	1	0.000141938	41	37.0414	2.46328e-05
2	1	0	1	0	37.7187	1.15967	1.15945	0.0212224	1	0.000155853	41	37.6912	2.46062e-05
2	1	0	1	0	38.3683	1.17267	1.17241	0.0207896	1	0.000169535	41	38.3408	2.4374e-05
2	1	0	1	0	39.018	1.18566	1.18536	0.0202562	1	0.000182905	41	38.9905	2.40108e-05
2	1	0	1	0	39.6677	1.19865	1.19868	0.0196315	1	0.000195897	41	39.6402	2.3532e-05
2	1	0	1	0	40.3173	1.21165	1.21197	0.0189605	1	0.000208465	41	40.2898	2.29797e-05
2	1	0	1	0	40.9671	1.22464	1.22459	0.0182651	1	0.000220589	41	40.9396	2.23673e-05
2	1	0	1	0	41.6167	1.23763	1.2372	0.0174879	1	0.000232232	41	41.5892	2.16361e-05
2	1	0	1	0	42.2663	1.25063	1.25047	0.0166531	1	0.000243352	41	42.2388	2.08242e-05
2	1	0	1	0	42.9161	1.26362	1.26318	0.0157333	1	0.0002539	41	42.8886	1.9874e-05
2	1	0	1	0	43.5657	1.27661	1.27626	0.0148911	1	0.000263866	41	43.5382	1.90049e-05
2	1	0	1	0	44.2154	1.28961	1.28945	0.0142291	1	0.000273341	41	44.1879	1.83478e-05
2	1	0	1	0	44.8651	1.3026	1.30236	0.0138369	1	0.000282471	41	44.8376	1.80206e-05
2	1	0	1	0	45.5147	1.3156	1.31562	0.0136845	1	0.000291426	41	45.4872	1.80036e-05
2	1	0	1	0	46.1645	1.32859	1.32787	0.0136492	1	0.000300329	41	46.137	1.81244e-05
2	1	0	1	0	46.8141	1.34158	1.34133	0.0135896	1	0.000309203	41	46.7866	1.82281e-05
2	1	0	1	0	47.4637	1.35458	1.35438	0.0134385	1	0.000318007	41	47.4362	1.82007e-05
2	1	0	1	0	48.1135	1.36757	1.3671	0.0132151	1	0.000326679	41	48.086	1.80663e-05
2	1	0	1	0	48.7631	1.38056	1.38019	0.0128969	1	0.000335169	41	48.7356	1.78002e-05
2	1	0	1	0	49.4128	1.39356	1.39323	0.0126141	1	0.000343464	41	49.3853	1.75743e-05
2	1	0	1	0	50.0625	1.40655	1.40621	0.0124171	1	0.000351595	41	50.035	1.74611e-05
2	1	0	1	0	50.7121	1.41954	1.41903	0.0123149	1	0.000359626	41	50.6846	1.74753e-05
2	1	0	1	0	51.3619	1.43254	1.43205	0.0123756	1	0.000367646	41	51.3344	1.77225e-05
2	1	0	1	0	52.0115	1.44553	1.44541	0.0125623	1	0.000375748	41	51.984	1.81578e-05
2	1	0	1	0	52.6611	1.45852	1.45826	0.0129135	1	0.000384026	41	52.6336	1.88313e-05
2	1	0	1	0	53.3109	1.47152	1.4711	0.0133497	1	0.00039256	41	53.2834	1.96388e-05
2	1	0	1	0	53.9605	1.48451	1.48428	0.0138839	1	0.000401409	41	53.933	2.06076e-05
2	1	0	1	0	54.6102	1.49751	1.49687	0.0144534	1	0.00041062	41	54.5827	2.16348e-05
2	1	0	1	0	55.2105	1.49041	1.48998	0.0111223	1	0.000418442	41	55.183	1.6572e-05
2	1	0	1	0	55.8601	1.47741	1.47705	0.008013	1	0.000424579	41	55.8326	1.18356e-05
2	1	0	1	0	56.5097	1.46442	1.46425	0.0059727	1	0.000429082	41	56.4822	8.74553e-06
2	1	0	1	0	57.1595	1.45143	1.45114	0.00455873	1	0.000432475	41	57.132	6.61537e-06
2	1	0	1	0	57.8391	1.43783	1.43741	0.00347657	1	0.000435179	42	57.8116	4.99724e-06
2	1	0	1	0	58.4887	1.42484	1.42404	0.00272845	1	0.000437178	42	58.4612	3.88542e-06
2	1	0	1	0	59.1385	1.41185	1.41148	0.00215494	1	0.000438752	42	59.111	3.04165e-06
2	1	0	1	0	59.7881	1.39885	1.39838	0.00171469	1	0.000439999	42	59.7606	2.39778e-06
2	1	0	1	0	60.4378	1.38586	1.3855	0.00136929	1	0.000440993	42	60.4103	1.89716e-06
2	1	0	1	0	61.0875	1.37287	1.37236	0.00109329	1	0.000441787	42	61.06	1.50039e-06
2	1	0	1	0	61.7371	1.35987	1.35945	0.000880169	1	0.000442423	42	61.7096	1.19655e-06
2	1	0	1	0	62.3869	1.34688	1.34642	0.000700638	1	0.000442931	42	62.3594	9.43354e-07
2	1	0	1	0	63.0365	1.33389	1.33355	0.000564847	1	0.000443337	42	63.009	7.53251e-07
2	1	0	1	0	63.7161	1.32029	1.31993	0.000443663	1	0.000443673	43	63.6886	5.85604e-07
2	1	0	1	0	64.4857	1.3049	1.30513	0.000322354	1	0.000443969	43	64.4582	4.20715e-07
2	1	0	1	0	65.1355	1.29191	1.29118	0.000250871	1	0.000444156	43	65.108	3.23919e-07
2	1	0	1	0	65.7851	1.27891	1.2786	0.00018622	1	0.000444298	43	65.7576	2.381e-07
2	1	0	1	0	66.4348	1.26592	1.26547	0.000126113	1	0.000444399	43	66.4073	1.59591e-07
2	1	0	1	0	67.0845	1.25293	1.25235	7.48487e-05	1	0.000444464	43	67.057	9.37368e-08
2	1	0	1	0	67.7341	1.23993	1.23943	2.56972e-05	1	0.000444496	43	67.7066	3.185e-08
2	0	0	1	0	68.3839	1.22694	1.22666	-2.09156e-05	1	0.000444498	43	0.25	-2.56564e-08
2	0	0	1	0	69.0335	1.21395	1.21364	-6.71618e-05	1	0.000444469	43	0.8996	-8.15103e-08
2	0	0	1	0	69.6831	1.20095	1.20058	-0.000111905	1	0.000444411	43	1.5492	-1.34351e-07
2	0	0	1	0	70.3329	1.18796	1.1873	-0.000161901	1	0.000444322	43	2.199	-1.92226e-07
2	0	0	1	0	70.9825	1.17497	1.1743	-0.000214899	1	0.0004442	43	2.8486	-2.52354e-07
2	0	0	1	0	71.6322	1.16197	1.1617	-0.000276768	1	0.00044404	43	3.4983	-3.21522e-07
2	0	0	1	0	72.2819	1.14898	1.14834	-0.000347528	1	0.000443839	43	4.148	-3.99079e-07
2	0	0	1	0	72.9315	1.13599	1.13574	-0.000429289	1	0.000443587	43	4.7976	-4.87561e-07
2	0	0	1	0	73.5813	1.12299	1.1227	-0.000532131	1	0.000443276	43	5.4474	-5.97425e-07
2	0	0	1	0	74.2309	1.11	1.10948	-0.00065503	1	0.000442892	43	6.097	-7.26741e-07
2	0	0	1	0	74.8805	1.097	1.09638	-0.000812681	1	0.000442416	43	6.7466	-8.9101e-07
2	0	0	1	0	75.5303	1.08401	1.08363	-0.00101313	1	0.000441825	43	7.3964	-1.09786e-06
2	0	0	1	0	76.2099	1.07042	1.06989	-0.00128606	1	0.000441044	42	8.076	-1.37594e-06
2	0	0	1	0	76.8595	1.05742	1.05703	-0.0016357	1	0.000440097	42	8.7256	-1.72898e-06
2	0	0	1	0	77.5093	1.04443	1.04385	-0.00211835	1	0.000438883	42	9.3754	-2.21124e-06
2	0	0	1	0	78.1589	1.03144	1.03092	-0.00278741	1	0.000437298	42	10.025	-2.8736e-06
2	0	0	1	0	78.8086	1.01844	1.01815	-0.00376337	1	0.000435185	42	10.6747	-3.83167e-06
2	0	0	1	0	79.4583	1.00545	1.00518	-0.00522993	1	0.000432293	42	11.3244	-5.25702e-06
2	0	0	1	0	80.1079	0.992457	0.99211	-0.00760308	1	0.000428183	42	11.974	-7.54309e-06
2	0	0	1	0	80.7876	0.978865	0.978489	-0.0116652	1	0.000421709	41	12.6537	-1.14143e-05
2	0	0	1	0	81.4373	0.96587	0.965155	-0.0169102	1	0.000412349	41	13.3034	-1.6321e-05
2	0	0	1	0	82.0869	0.952877	0.952524	-0.0203508	1	0.000399932	41	13.953	-1.93846e-05
2	0	0	1	0	82.7367	0.939883	0.939575	-0.0184789	1	0.000386882	41	14.6028	-1.73623e-05
2	0	0	1	0	83.3863	0.92689	0.926625	-0.0130793	1	0.000376488	41	15.2524	-1.21196e-05
2	0	0	1	0	84.0359	0.913896	0.913688	-0.00876794	1	0.00036941	41	15.902	-8.01116e-06
2	0	0	1	0	84.6857	0.900903	0.900238	-0.00673741	1	0.000364531	41	16.5518	-6.06528e-06
2	0	0	1	0	85.3353	0.88791	0.887718	-0.00569109	1	0.000360433	41	17.2014	-5.05208e-06
2	0	0	1	0	85.985	0.874917	0.874562	-0.00530032	1	0.000356773	41	17.8511	-4.63546e-06
2	0	0	1	0	86.6347	0.861923	0.861744	-0.00553811	1	0.000353168	41	18.5008	-4.77243e-06
2	0	0	1	0	87.2843	0.848929	0.848787	-0.00634165	1	0.000349211	41	19.1504	-5.38271e-06
2	0	0	1	0	87.9341	0.835936	0.835818	-0.00758203	1	0.000344574	41	19.8002	-6.3372e-06
2	0	0	1	0	88.5837	0.822942	0.82269	-0.00894318	1	0.000339049	41	20.4498	-7.35747e-06
2	0	0	1	0	89.2333	0.809949	0.809972	-0.0100027	1	0.0003327	41	21.0994	-8.10194e-06
2	0	0	1	0	89.8831	0.796955	0.7965	-0.0102506	1	0.000325878	41	21.7492	-8.16459e-06
2	0	0	1	0	90.5327	0.783962	0.78369	-0.00965447	1	0.000319145	41	22.3988	-7.56612e-06
2	0	0	1	0	91.1824	0.770967	0.770675	-0.00857087	1	0.000312957	41	23.0485	-6.60535e-06
2	0	0	1	0	91.8321	0.757975	0.757716	-0.00746885	1	0.000307479	41	23.6982	-5.65927e-06
2	0	0	1	0	92.4817	0.744981	0.744777	-0.00651475	1	0.00030266	41	24.3478	-4.85203e-06
2	0	0	1	0	93.1315	0.731988	0.731913	-0.00575851	1	0.000298382	41	24.9976	-4.21473e-06
2	0	0	1	0	93.7811	0.718994	0.718737	-0.00517712	1	0.000294531	41	25.6472	-3.72099e-06
2	0	0	1	0	94.4307	0.706001	0.705776	-0.00470976	1	0.000291028	41	26.2968	-3.32403e-06
2	0	0	1	0	95.0805	0.693007	0.692392	-0.00433024	1	0.000287802	41	26.9466	-2.99823e-06
2	0	0	1	0	95.7601	0.679414	0.679251	-0.00443917	1	0.000284677	42	27.6262	-3.01531e-06
2	0	0	1	0	96.4097	0.666421	0.666156	-0.00417738	1	0.000281878	42	28.2758	-2.78279e-06
2	0	0	1	0	97.0595	0.653427	0.653453	-0.00393061	1	0.000279242	42	28.9256	-2.56847e-06
2	0	0	1	0	97.7091	0.640434	0.640273	-0.00373811	1	0.000276752	42	29.5752	-2.39341e-06
2	0	0	1	0	98.3588	0.62744	0.62686	-0.00354216	1	0.00027439	42	30.2249	-2.22044e-06
2	0	0	1	0	99.0085	0.614447	0.614107	-0.0033847	1	0.000272143	42	30.8746	-2.07857e-06
2	0	0	1	0	99.6581	0.601453	0.601369	-0.00321896	1	0.000269999	42	31.5242	-1.93579e-06
2	0	0	1	0	100.308	0.58846	0.588333	-0.00309629	1	0.000267945	42	32.174	-1.82165e-06
2	0	0	1	0	100.957	0.575466	0.575059	-0.00297515	1	0.00026597	42	32.8236	-1.71089e-06
2	0	0	1	0	101.607	0.562473	0.561908	-0.00287104	1	0.000264067	42	33.4732	-1.61326e-06
2	0	0	1	0	102.257	0.549479	0.549335	-0.00279598	1	0.000262223	42	34.123	-1.53593e-06
2	0	0	1	0	102.906	0.536486	0.536104	-0.00270349	1	0.000260435	42	34.7726	-1.44935e-06
2	0	0	1	0	103.556	0.523491	0.523212	-0.00266122	1	0.00025869	42	35.4223	-1.39238e-06
2	0	0	1	0	104.206	0.510499	0.510077	-0.0025945	1	0.000256983	42	36.072	-1.32339e-06
2	0	0	1	0	104.855	0.497505	0.496906	-0.00257657	1	0.000255304	42	36.7216	-1.28031e-06
2	0	0	1	0	105.505	0.484512	0.483901	-0.00254061	1	0.000253641	42	37.3714	-1.2294e-06
2	0	0	1	0	106.155	0.471518	0.471529	-0.00255361	1	0.000251985	42	38.021	-1.2041e-06
2	0	0	1	0	106.804	0.458525	0.4582	-0.00255738	1	0.000250324	42	38.6706	-1.17179e-06
2	0	0	1	0	107.454	0.445531	0.445099	-0.00256917	1	0.000248656	42	39.3204	-1.14353e-06
2	0	0	1	0	108.104	0.432538	0.432019	-0.00256209	1	0.000246984	42	39.97	-1.10687e-06
2	0	0	1	0	108.753	0.419544	0.419167	-0.00253892	1	0.000245325	42	40.6196	-1.06423e-06
2	0	0	1	0	109.403	0.406551	0.406049	-0.0024814	1	0.000243692	42	41.2694	-1.00757e-06
2	0	0	1	0	110.053	0.393558	0.393031	-0.00239632	1	0.000242105	42	41.919	-9.41829e-07
2	0	0	1	0	110.703	0.380566	0.380663	-0.00231349	1	0.000240573	42	42.5687	-8.8066e-07
2	0	0	1	0	111.352	0.367571	0.367388	-0.00220505	1	0.000239103	42	43.2184	-8.10109e-07
2	0	0	1	0	112.002	0.354577	0.354472	-0.00212342	1	0.000237695	42	43.868	-7.52691e-07
2	0	0	1	0	112.652	0.341584	0.34142	-0.00202346	1	0.000236345	42	44.5178	-6.9085e-07
2	0	0	1	0	113.301	0.32859	0.328365	-0.0019589	1	0.000235049	42	45.1674	-6.43234e-07
2	0	0	1	0	113.951	0.315597	0.31527	-0.00187691	1	0.000233803	42	45.817	-5.91734e-07
2	0	0	1	0	114.601	0.302603	0.302211	-0.00182736	1	0.000232597	42	46.4668	-5.52247e-07
2	0	0	1	0	115.25	0.28961	0.28887	-0.00175984	1	0.000231428	42	47.1164	-5.08365e-07
2	0	0	1	0	115.9	0.276617	0.27611	-0.0017234	1	0.000230292	42	47.7661	-4.75848e-07
2	0	0	1	0	116.55	0.263623	0.263064	-0.00166036	1	0.00022919	42	48.4158	-4.36782e-07
2	0	0	1	0	117.199	0.250629	0.250213	-0.00161716	1	0.000228122	42	49.0654	-4.04636e-07
2	0	0	1	0	117.849	0.237636	0.237256	-0.00155569	1	0.000227089	42	49.7152	-3.69095e-07
2	0	0	1	0	118.499	0.224642	0.224162	-0.00151714	1	0.000226088	42	50.3648	-3.40085e-07
2	0	0	1	0	119.148	0.211649	0.211066	-0.00146553	1	0.000225118	42	51.0144	-3.09323e-07
2	0	0	1	0	119.798	0.198655	0.198314	-0.00143598	1	0.000224174	42	51.6642	-2.84774e-07
2	0	0	1	0	120.448	0.185662	0.185369	-0.00139896	1	0.00022325	42	52.3138	-2.59323e-07
2	0	0	1	0	121.097	0.172668	0.172543	-0.00139337	1	0.00022234	42	52.9635	-2.40417e-07
2	0	0	1	0	121.747	0.159675	0.159329	-0.00138104	1	0.000221437	42	53.6132	-2.2004e-07
2	0	0	1	0	122.397	0.146681	0.146215	-0.00140085	1	0.000220531	42	54.2628	-2.04827e-07
2	0	0	1	0	123.046	0.133688	0.133248	-0.00143296	1	0.000219609	42	54.9126	-1.9094e-07
2	0	0	1	0	123.696	0.120694	0.120173	-0.00150509	1	0.000218655	42	55.5622	-1.80871e-07
2	0	0	1	0	124.346	0.107701	0.107077	-0.00160296	1	0.000217646	42	56.2118	-1.7164e-07
2	0	0	1	0	124.995	0.0947075	0.0945135	-0.00176314	1	0.000216553	42	56.8616	-1.6664e-07
2	0	0	1	0	125.645	0.081714	0.0812672	-0.00197909	1	0.000215339	42	57.5112	-1.60835e-07
2	0	0	1	0	126.295	0.0687191	0.0684391	-0.0022894	1	0.000213956	42	58.1609	-1.56684e-07
2	0	0	1	0	126.944	0.055727	0.0554383	-0.00269595	1	0.00021234	42	58.8106	-1.49459e-07
2	0	0	1	0	127.594	0.0427335	0.0426081	-0.00324685	1	0.000210415	42	59.4602	-1.38342e-07
2	0	0	1	0	128.244	0.02974	0.0293977	-0.00394653	1	0.000208084	42	60.11	-1.16019e-07
2	0	0	1	0	128.893	0.0167466	0.0168318	-0.00483442	1	0.000205237	42	60.7596	-8.13719e-08
2	0	0	1	0	129.543	0.00375308	0.00350259	-0.00591127	1	0.000201753	42	61.4092	-2.07048e-08
2	0	0	1	0	130.193	-0.0092404	-0.00963956	-0.00716331	1	0.00019751	42	62.059	6.90512e-08
2	0	0	1	0	130.842	-0.0222339	-0.0225454	-0.00855997	1	0.000192405	42	62.7086	1.92988e-07
2	0	0	1	0	131.492	-0.0352274	-0.0355234	-0.00999996	1	0.000186372	42	63.3582	3.55233e-07
2	0	0	1	0	132.172	-0.0488206	-0.0488471	-0.0111333	1	0.000179068	41	64.038	5.43829e-07
2	0	0	1	0	132.821	-0.0618141	-0.0616255	-0.0123221	1	0.000171236	41	64.6876	7.59358e-07
2	0	0	1	0	133.471	-0.0748084	-0.0749865	-0.013204	1	0.000162739	41	65.3373	9.90121e-07
2	0	0	1	0	134.121	-0.087801	-0.0881141	-0.01375	1	0.000153792	41	65.987	1.21157e-06
2	0	0	1	0	134.77	-0.100795	-0.10122	-0.0139807	1	0.000144607	41	66.6366	1.41513e-06
2	0	0	1	0	135.42	-0.113788	-0.114026	-0.0139675	1	0.000135366	41	67.2864	1.59265e-06
2	0	0	1	0	136.07	-0.126781	-0.12723	-0.0137791	1	0.000126206	41	67.936	1.75311e-06
2	0	0	1	0	136.719	-0.139775	-0.139833	-0.0135064	1	0.000117206	41	68.5856	1.88864e-06
2	0	0	1	0	137.369	-0.152768	-0.152919	-0.0132131	1	0.000108401	41	69.2354	2.02053e-06
2	0	0	1	0	138.019	-0.165762	-0.165854	-0.0129178	1	9.98042e-05	41	69.885	2.14246e-06
2	0	0	1	0	138.669	-0.178757	-0.17914	-0.0126562	1	9.13965e-05	41	70.5347	2.26724e-06
2	0	0	1	0	139.318	-0.191749	-0.192272	-0.0124386	1	8.3151e-05	41	71.1844	2.3916e-06
2	0	0	1	0	139.968	-0.204742	-0.205192	-0.0122862	1	7.50394e-05	41	71.834	2.52102e-06
2	0	0	1	0	140.618	-0.217736	-0.217816	-0.0121848	1	6.70161e-05	41	72.4838	2.65404e-06
2	0	0	1	0	141.267	-0.230729	-0.230951	-0.0121433	1	5.90531e-05	41	73.1334	2.8045e-06
2	0	0	1	0	141.917	-0.243723	-0.243816	-0.0121748	1	5.11073e-05	41	73.783	2.96841e-06
2	0	0	1	0	142.567	-0.256716	-0.256832	-0.0122284	1	4.31325e-05	41	74.4328	3.14065e-06
2	0	0	1	0	143.216	-0.26971	-0.270081	-0.01239	1	3.50957e-05	41	75.0824	3.3463e-06
2	0	0	1	0	143.866	-0.282703	-0.282961	-0.0125694	1	2.69532e-05	41	75.732	3.55665e-06
2	0	0	1	0	144.516	-0.295697	-0.29628	-0.0128494	1	1.86615e-05	41	76.3818	3.80701e-06
2	0	0	1	1	145.106	-0.292498	-0.292516	-0.0119571	1	1.12776e-05	41	76.972	3.49764e-06
2	0	0	1	1	145.755	-0.279505	-0.27983	-0.0109413	1	3.89418e-06	41	77.6216	3.06171e-06
2	0	0	1	1	146.405	-0.266513	-0.266877	-0.0101618	1	-2.92174e-06	41	78.2713	2.71195e-06
2	0	0	1	1	147.055	-0.253518	-0.253964	-0.00951344	1	-9.2728e-06	41	78.921	2.41607e-06
2	0	0	1	1	147.704	-0.240524	-0.240638	-0.0089725	1	-1.52274e-05	41	79.5706	2.15913e-06
2	0	0	1	1	148.354	-0.227531	-0.227616	-0.00847965	1	-2.08354e-05	41	80.2204	1.9301e-06
2	0	0	1	1	149.004	-0.214537	-0.214891	-0.00801443	1	-2.61295e-05	41	80.87	1.72223e-06
2	0	0	1	1	149.653	-0.201544	-0.201903	-0.00758844	1	-3.11324e-05	41	81.5196	1.53213e-06
2	0	0	1	1	150.303	-0.188551	-0.188829	-0.00717311	1	-3.58637e-05	41	82.1694	1.35449e-06
2	0	0	1	1	150.953	-0.175557	-0.175903	-0.00680231	1	-4.0334e-05	41	82.819	1.19654e-06
2	0	0	1	1	151.603	-0.162564	-0.16254	-0.00640309	1	-4.45509e-05	41	83.4687	1.04076e-06
2	0	0	1	1	152.252	-0.14957	-0.149702	-0.00602098	1	-4.85164e-05	41	84.1184	9.01355e-07
2	0	0	1	1	152.902	-0.136577	-0.136618	-0.00564986	1	-5.22268e-05	41	84.768	7.71874e-07
2	0	0	1	1	153.552	-0.123583	-0.123736	-0.00523813	1	-5.56781e-05	41	85.4178	6.48145e-07
2	0	0	1	1	154.201	-0.11059	-0.111002	-0.00484381	1	-5.88659e-05	41	86.0674	5.37671e-07
2	0	0	1	1	154.881	-0.0969964	-0.0971052	-0.00425346	1	-6.19114e-05	42	86.747	4.13033e-07
2	0	0	1	1	155.531	-0.0840029	-0.0839815	-0.00381416	1	-6.45309e-05	42	87.3968	3.20319e-07
2	0	0	1	1	156.18	-0.0710095	-0.0711253	-0.00335637	1	-6.68586e-05	42	88.0464	2.38723e-07
2	0	0	1	1	156.83	-0.058016	-0.0580332	-0.00289782	1	-6.88881e-05	42	88.696	1.6817e-07
2	0	0	1	1	157.48	-0.0450225	-0.0455167	-0.00244214	1	-7.06192e-05	42	89.3458	1.11158e-07
2	0	0	1	1	158.129	-0.032029	-0.0321082	-0.00201554	1	-7.20616e-05	42	89.9954	6.47152e-08
2	0	0	1	1	158.779	-0.0190364	-0.0193047	-0.00163924	1	-7.32429e-05	42	90.6451	3.16451e-08
2	0	0	1	1	159.429	-0.00604201	-0.00603848	-0.00130259	1	-7.41923e-05	42	91.2948	7.86568e-09
2	0	0	1	1	160.078	0.00695148	0.00629094	-0.00101327	1	-7.49388e-05	42	91.9444	-6.37442e-09
2	0	0	1	1	160.728	0.019945	0.0198138	-0.000759206	1	-7.551e-05	42	92.5942	-1.50427e-08
2	0	0	1	1	161.378	0.0329384	0.0326982	-0.000556312	1	-7.59325e-05	42	93.2438	-1.81904e-08
2	0	0	1	1	162.057	0.0465316	0.0463248	-0.000374039	1	-7.62449e-05	43	93.9234	-1.73273e-08
2	0	0	1	1	162.707	0.0595251	0.0594326	-0.000230026	1	-7.64376e-05	43	94.5732	-1.3671e-08
2	0	0	1	1	163.357	0.0725186	0.0722982	-0.000115367	1	-7.65485e-05	43	95.2228	-8.34086e-09
2	0	0	1	1	164.006	0.0855121	0.0852221	-2.60876e-05	1	-7.65939e-05	43	95.8724	-2.22324e-09
2	1	0	1	1	164.656	0.0985055	0.0981016	4.62886e-05	1	-7.65868e-05	43	0.3998	4.54099e-09
2	1	0	1	1	165.306	0.111499	0.111199	0.000101483	1	-7.65383e-05	43	1.0494	1.12848e-08
2	1	0	1	1	165.955	0.124492	0.124174	0.000146728	1	-7.64566e-05	43	1.6991	1.82198e-08
2	1	0	1	1	166.605	0.137486	0.137068	0.000183159	1	-7.63482e-05	43	2.3488	2.51053e-08
2	1	0	1	1	167.255	0.150479	0.150042	0.00021539	1	-7.62179e-05	43	2.9984	3.23176e-08
2	1	0	1	1	167.904	0.163473	0.163449	0.000241736	1	-7.6069e-05	43	3.6482	3.95114e-08
2	1	0	1	1	168.554	0.176466	0.17609	0.000264918	1	-7.59031e-05	43	4.2978	4.66494e-08
2	1	0	1	1	169.204	0.18946	0.189272	0.000297668	1	-7.57197e-05	43	4.9474	5.634e-08
2	1	0	1	1	169.853	0.202453	0.202224	0.000333162	1	-7.55151e-05	43	5.5972	6.73734e-08
2	1	0	1	1	170.503	0.215447	0.21526	0.000390375	1	-7.52807e-05	43	6.2468	8.40323e-08
2	1	0	1	1	171.153	0.22844	0.228027	0.000473264	1	-7.5002e-05	43	6.8965	1.07917e-07
2	1	0	1	1	171.802	0.241434	0.241215	0.000587621	1	-7.466e-05	43	7.5462	1.41743e-07
2	1	0	1	1	172.452	0.254427	0.254239	0.000704503	1	-7.42394e-05	43	8.1958	1.79112e-07
2	1	0	1	1	173.102	0.267421	0.26719	0.00081135	1	-7.37431e-05	43	8.8456	2.16784e-07
2	1	0	1	1	173.751	0.280414	0.280596	0.000847232	1	-7.32023e-05	43	9.4952	2.3773e-07
2	1	0	1	1	174.401	0.293408	0.29323	0.000799848	1	-7.26655e-05	43	10.1448	2.34539e-07
2	1	0	1	1	175.051	0.306401	0.306361	0.000715686	1	-7.21717e-05	43	10.7946	2.19259e-07
2	1	0	1	1	175.7	0.319395	0.318994	0.000654744	1	-7.17284e-05	43	11.4442	2.0886e-07
2	1	0	1	1	176.35	0.332389	0.332076	0.000623102	1	-7.13188e-05	43	12.0939	2.06917e-07
2	1	0	1	1	177	0.345382	0.345006	0.000612699	1	-7.09177e-05	43	12.7436	2.11385e-07
2	1	0	1	1	177.649	0.358375	0.357961	0.000641473	1	-7.05074e-05	43	13.3932	2.29623e-07
2	1	0	1	1	178.299	0.371369	0.370906	0.000691895	1	-7.00749e-05	43	14.043	2.56628e-07
2	1	0	1	1	178.949	0.384362	0.384239	0.000740795	1	-6.96098e-05	43	14.6926	2.84642e-07
2	1	0	1	1	179.598	0.397356	0.397062	0.000821717	1	-6.91004e-05	43	15.3422	3.26272e-07
2	1	0	1	1	180.173	0.40885	0.408427	0.000906366	2	-6.86038e-05	43	15.917	3.70184e-07
2	1	0	1	1	180.823	0.421843	0.42161	0.00102684	2	-6.798e-05	43	16.5666	4.32927e-07
2	1	0	1	1	181.503	0.435435	0.435422	0.00113318	2	-6.72548e-05	42	17.2463	4.9341e-07
2	1	0	1	1	182.152	0.44843	0.448465	0.00123623	2	-6.64819e-05	42	17.896	5.54404e-07
2	1	0	1	1	182.802	0.461423	0.461431	0.00133117	2	-6.56439e-05	42	18.5456	6.14242e-07
2	1	0	1	1	183.452	0.474417	0.474356	0.00136958	2	-6.47608e-05	42	19.1954	6.49669e-07
2	1	0	1	1	184.101	0.48741	0.487169	0.00140041	2	-6.38567e-05	42	19.845	6.82238e-07
2	1	0	1	1	184.751	0.500404	0.500025	0.00137689	2	-6.29501e-05	42	20.4946	6.88482e-07
2	1	0	1	1	185.401	0.513397	0.513531	0.00137326	2	-6.20514e-05	42	21.1444	7.05209e-07
2	1	0	1	1	186.05	0.526391	0.526082	0.00134495	2	-6.11651e-05	42	21.794	7.07553e-07
2	1	0	1	1	186.7	0.539383	0.539039	0.00133458	2	-6.02935e-05	42	22.4437	7.1939e-07
2	1	0	1	1	187.35	0.552378	0.552349	0.00130303	2	-5.94368e-05	42	23.0934	7.19729e-07
2	1	0	1	1	187.999	0.565371	0.56486	0.00127517	2	-5.8597e-05	42	23.743	7.20293e-07
2	1	0	1	1	188.649	0.578365	0.578251	0.00125681	2	-5.77723e-05	42	24.3928	7.26752e-07
2	1	0	1	1	189.299	0.591358	0.591157	0.00122014	2	-5.69645e-05	42	25.0424	7.21294e-07
2	1	0	1	1	189.948	0.604352	0.604042	0.00121207	2	-5.61709e-05	42	25.692	7.3214e-07
2	1	0	1	1	190.598	0.617345	0.616968	0.00117619	2	-5.53924e-05	42	26.3418	7.25671e-07
2	1	0	1	1	191.248	0.630339	0.630063	0.00116755	2	-5.46284e-05	42	26.9914	7.3563e-07
2	1	0	1	1	191.897	0.643332	0.643063	0.00114179	2	-5.38788e-05	42	27.6411	7.34243e-07
2	1	0	1	1	192.547	0.656326	0.656041	0.00112224	2	-5.31422e-05	42	28.2908	7.36237e-07
2	1	0	1	1	193.197	0.669319	0.669159	0.00110823	2	-5.24159e-05	42	28.9404	7.4158e-07
2	1	0	1	1	193.846	0.682313	0.68195	0.00110088	2	-5.16963e-05	42	29.5902	7.50745e-07
2	1	0	1	1	194.496	0.695306	0.694927	0.00110109	2	-5.09777e-05	42	30.2398	7.65176e-07
2	1	0	1	1	195.146	0.7083	0.708057	0.00110156	2	-5.0257e-05	42	30.8894	7.79968e-07
2	1	0	1	1	195.795	0.721293	0.721393	0.00111516	2	-4.95325e-05	42	31.5392	8.04467e-07
2	1	0	1	1	196.445	0.734287	0.734122	0.00110449	2	-4.88078e-05	42	32.1888	8.10831e-07
2	1	0	1	1	197.095	0.747281	0.746999	0.00109767	2	-4.80891e-05	42	32.8385	8.1996e-07
2	1	0	1	1	197.744	0.760274	0.759802	0.00105229	2	-4.7388e-05	42	33.4882	7.99533e-07
2	1	0	1	1	198.394	0.773267	0.773028	0.00101209	2	-4.67143e-05	42	34.1378	7.8237e-07
2	1	0	1	1	199.044	0.78626	0.786399	0.000961995	2	-4.60701e-05	42	34.7876	7.56512e-07
2	1	0	1	1	199.693	0.799254	0.799202	0.000928386	2	-4.54529e-05	42	35.4372	7.41968e-07
2	1	0	1	1	200.343	0.812247	0.811777	0.000898308	2	-4.48564e-05	42	36.0868	7.29226e-07
2	1	0	1	1	200.993	0.825241	0.824905	0.000874502	2	-4.4277e-05	42	36.7366	7.21381e-07
2	1	0	1	1	201.642	0.838234	0.838255	0.000856179	2	-4.37112e-05	42	37.3862	7.17696e-07
2	1	0	1	1	202.292	0.85123	0.850615	0.000846609	2	-4.31562e-05	42	38.0359	7.20138e-07
2	1	0	1	1	202.942	0.864221	0.86414	0.000830853	2	-4.26079e-05	42	38.6856	7.17973e-07
2	1	0	1	1	203.591	0.877215	0.876769	0.000819134	2	-4.20683e-05	42	39.3352	7.18191e-07
2	1	0	1	1	204.241	0.890207	0.89015	0.000818018	2	-4.15333e-05	42	39.9849	7.28159e-07
2	1	0	1	1	204.891	0.903202	0.903038	0.000819748	2	-4.09975e-05	42	40.6346	7.40264e-07
2	1	0	1	1	205.54	0.916195	0.916056	0.000845171	2	-4.04519e-05	42	41.2842	7.74224e-07
2	1	0	1	1	206.19	0.929189	0.928968	0.000898686	2	-3.9882e-05	42	41.934	8.34851e-07
2	1	0	1	1	206.84	0.942182	0.941998	0.00100855	2	-3.92613e-05	42	42.5836	9.50052e-07
2	1	0	1	1	207.489	0.955176	0.954775	0.00121563	2	-3.85414e-05	42	43.2332	1.16065e-06
2	1	0	1	1	208.139	0.968169	0.968079	0.00159115	2	-3.76365e-05	42	43.883	1.54036e-06
2	1	0	1	1	208.789	0.981163	0.980897	0.002255	2	-3.63997e-05	42	44.5326	2.21192e-06
2	1	0	1	1	209.439	0.994155	0.994114	0.00338823	2	-3.45898e-05	42	45.1823	3.36829e-06
2	1	0	1	1	210.088	1.00715	1.00683	0.00520473	2	-3.18323e-05	42	45.832	5.24027e-06
2	1	0	1	1	210.738	1.02014	1.01998	0.00788526	2	-2.76194e-05	42	46.4816	8.04284e-06
2	1	0	1	1	211.418	1.03374	1.03356	0.011514	2	-2.10394e-05	41	47.1614	1.19004e-05
2	1	0	1	1	212.067	1.04673	1.0463	0.0154034	2	-1.22346e-05	41	47.811	1.61166e-05
2	1	0	1	1	212.717	1.05972	1.05937	0.0191975	2	-9.57056e-07	41	48.4606	2.03372e-05
2	1	0	1	1	213.367	1.07272	1.0724	0.021763	2	1.2399e-05	41	49.1104	2.33386e-05
2	1	0	1	1	214.016	1.08571	1.08525	0.0234889	2	2.71975e-05	41	49.76	2.54912e-05
2	1	0	1	1	214.666	1.0987	1.09861	0.0242672	2	4.28016e-05	41	50.4096	2.66602e-05
2	1	0	1	1	215.316	1.1117	1.11114	0.0242888	2	5.86586e-05	41	51.0594	2.69883e-05
2	1	0	1	1	215.965	1.12469	1.12408	0.0238454	2	7.43707e-05	41	51.709	2.68041e-05
2	1	0	1	1	216.615	1.13768	1.13717	0.0230399	2	8.96391e-05	41	52.3587	2.62003e-05
2	1	0	1	1	217.265	1.15068	1.15026	0.0221775	2	0.000104361	41	53.0084	2.55099e-05
2	1	0	1	1	217.914	1.16367	1.16358	0.0213562	2	0.000118532	41	53.658	2.48498e-05
2	1	0	1	1	218.564	1.17666	1.1763	0.0206458	2	0.000132199	41	54.3078	2.42857e-05
2	1	0	1	1	219.214	1.18966	1.18924	0.0200784	2	0.000145447	41	54.9574	2.38779e-05
2	1	0	1	1	219.863	1.20265	1.20223	0.0196837	2	0.000158382	41	55.607	2.36644e-05
2	1	0	1	1	220.513	1.21565	1.2154	0.0193766	2	0.000171097	41	56.2568	2.35503e-05
2	1	0	1	1	221.163	1.22864	1.22832	0.0191072	2	0.000183626	41	56.9064	2.34698e-05
2	1	0	1	1	221.812	1.24163	1.24113	0.0186772	2	0.000195936	41	57.5561	2.31808e-05
2	1	0	1	1	222.462	1.25463	1.25419	0.0180638	2	0.000207912	41	58.2058	2.26555e-05
2	1	0	1	1	223.112	1.26762	1.26744	0.0172517	2	0.000219415	41	58.8554	2.18655e-05
2	1	0	1	1	223.761	1.28061	1.28033	0.0162997	2	0.00023034	41	59.5052	2.0869e-05
2	1	0	1	1	224.411	1.29361	1.29334	0.0154052	2	0.000240658	41	60.1548	1.99242e-05
2	1	0	1	1	225.061	1.3066	1.30625	0.0146688	2	0.000250436	41	60.8044	1.91611e-05
2	1	0	1	1	225.71	1.31959	1.31926	0.0140789	2	0.000259784	41	61.4542	1.85736e-05
2	1	0	1	1	226.36	1.33259	1.33204	0.0136084	2	0.000268785	41	62.1038	1.81269e-05
2	1	0	1	1	227.01	1.34558	1.34523	0.0131513	2	0.000277485	41	62.7535	1.76915e-05
2	1	0	1	1	227.659	1.35857	1.35823	0.01274	2	0.000285898	41	63.4032	1.73039e-05
2	1	0	1	1	228.309	1.37157	1.37083	0.0123565	2	0.000294046	41	64.0528	1.69386e-05
2	1	0	1	1	228.959	1.38456	1.3844	0.0120217	2	0.000301965	41	64.7026	1.66428e-05
2	1	0	1	1	229.608	1.39755	1.3973	0.0117562	2	0.000309693	41	65.3522	1.6427e-05
2	1	0	1	1	230.258	1.41055	1.41044	0.0116102	2	0.000317295	41	66.0018	1.63756e-05
2	1	0	1	1	230.908	1.42354	1.42309	0.0116114	2	0.000324847	41	66.6516	1.6524e-05
2	1	0	1	1	231.557	1.43653	1.43596	0.0117313	2	0.000332429	41	67.3012	1.68457e-05
2	1	0	1	1	232.207	1.44953	1.44938	0.0119751	2	0.000340131	41	67.9509	1.73565e-05
2	1	0	1	1	232.857	1.46252	1.46207	0.0123341	2	0.00034803	41	68.6006	1.80334e-05
2	1	0	1	1	233.506	1.47551	1.47508	0.0128137	2	0.000356202	41	69.2502	1.89013e-05
2	1	0	1	1	234.156	1.48851	1.48834	0.0133369	2	0.000364703	41	69.9	1.98498e-05
2	1	0	1	1	234.756	1.4994	1.49906	0.0134907	2	0.000372871	41	70.5002	2.02233e-05
2	1	0	1	1	235.406	1.48641	1.48609	0.00956839	2	0.000380252	41	71.1498	1.42195e-05
2	1	0	1	1	236.056	1.47342	1.4732	0.00700638	2	0.000385571	41	71.7995	1.03218e-05
2	1	0	1	1	236.705	1.46042	1.46017	0.00528494	2	0.000389525	41	72.4492	7.71688e-06
2	1	0	1	1	237.385	1.44683	1.44644	0.00401378	2	0.000392654	42	73.1288	5.80569e-06
2	1	0	1	1	238.035	1.43384	1.43325	0.00312785	2	0.000394956	42	73.7786	4.48301e-06
2	1	0	1	1	238.684	1.42084	1.42033	0.00247025	2	0.000396761	42	74.4282	3.50857e-06
2	1	0	1	1	239.334	1.40785	1.40772	0.0019654	2	0.000398191	42	75.0778	2.76672e-06
2	1	0	1	1	239.984	1.39486	1.3944	0.0015706	2	0.000399333	42	75.7276	2.19004e-06
2	1	0	1	1	240.633	1.38186	1.38151	0.00126533	2	0.000400248	42	76.3772	1.74806e-06
2	1	0	1	1	241.283	1.36887	1.36843	0.00101614	2	0.000400982	42	77.0268	1.39051e-06
2	1	0	1	1	241.933	1.35587	1.35549	0.000824638	2	0.000401574	42	77.6766	1.11779e-06
2	1	0	1	1	242.582	1.34288	1.34252	0.000659054	2	0.00040205	42	78.3262	8.84794e-07
2	1	0	1	1	243.232	1.32989	1.32934	0.000529384	2	0.000402433	42	78.9759	7.03729e-07
2	1	0	1	1	243.912	1.31629	1.31603	0.000438668	2	0.000402751	43	79.6556	5.77303e-07
2	1	0	1	1	244.681	1.3009	1.30038	0.000299107	2	0.000403034	43	80.4252	3.88953e-07
2	1	0	1	1	245.331	1.28791	1.28732	0.000239964	2	0.000403213	43	81.0748	3.08911e-07
2	1	0	1	1	245.981	1.27492	1.27455	0.000178706	2	0.000403347	43	81.7246	2.27769e-07
2	1	0	1	1	246.63	1.26192	1.26161	0.000119969	2	0.000403443	43	82.3742	1.51354e-07
2	1	0	1	1	247.28	1.24893	1.24868	6.75454e-05	2	0.000403504	43	83.0238	8.43424e-08
2	1	0	1	1	247.93	1.23594	1.23575	2.16454e-05	2	0.000403533	43	83.6736	2.67483e-08
2	0	0	1	1	248.579	1.22294	1.22268	-2.58077e-05	2	0.000403531	43	0.2998	-3.15545e-08
2	0	0	1	1	249.229	1.20995	1.20983	-7.08439e-05	2	0.0004035	43	0.9495	-8.57092e-08
2	0	0	1	1	249.879	1.19695	1.1966	-0.000119151	2	0.000403438	43	1.5992	-1.42577e-07
2	0	0	1	1	250.528	1.18396	1.18366	-0.000167977	2	0.000403345	43	2.2488	-1.98828e-07
2	0	0	1	1	251.178	1.17097	1.17057	-0.000223525	2	0.000403218	43	2.8986	-2.61652e-07
2	0	0	1	1	251.828	1.15797	1.15756	-0.000285347	2	0.000403053	43	3.5482	-3.30307e-07
2	0	0	1	1	252.477	1.14498	1.1446	-0.000361617	2	0.000402842	43	4.1978	-4.13907e-07
2	0	0	1	1	253.127	1.13199	1.13162	-0.000448684	2	0.00040258	43	4.8476	-5.07739e-07
2	0	0	1	1	253.777	1.11899	1.11851	-0.000557201	2	0.000402254	43	5.4972	-6.23233e-07
2	0	0	1	1	254.427	1.106	1.10583	-0.00069229	2	0.00040185	43	6.1469	-7.65553e-07
2	0	0	1	1	255.076	1.09301	1.09262	-0.00086232	2	0.000401348	43	6.7966	-9.42188e-07
2	0	0	1	1	255.726	1.08001	1.07966	-0.00108207	2	0.00040072	43	7.4462	-1.16827e-06
2	0	0	1	1	256.406	1.06642	1.06597	-0.00138132	2	0.000399884	42	8.1259	-1.47245e-06
2	0	0	1	1	257.055	1.05343	1.05279	-0.00177172	2	0.000398864	42	8.7756	-1.86525e-06
2	0	0	1	1	257.705	1.04043	1.03993	-0.00231484	2	0.000397543	42	9.4252	-2.40727e-06
2	0	0	1	1	258.355	1.02744	1.02675	-0.00307913	2	0.000395802	42	10.075	-3.16151e-06
2	0	0	1	1	259.004	1.01445	1.01422	-0.00420655	2	0.000393455	42	10.7246	-4.26636e-06
2	0	0	1	1	259.654	1.00145	1.00091	-0.00596339	2	0.00039019	42	11.3742	-5.96879e-06
2	0	0	1	1	260.304	0.988459	0.988034	-0.00889855	2	0.000385441	42	12.024	-8.79208e-06
2	0	0	1	1	260.983	0.974866	0.974208	-0.0138016	2	0.000377786	41	12.7036	-1.34456e-05
2	0	0	1	1	261.633	0.961872	0.961589	-0.0190746	2	0.000366944	41	13.3532	-1.83419e-05
2	0	0	1	1	262.283	0.948879	0.948529	-0.0209522	2	0.000353508	41	14.003	-1.98738e-05
2	0	0	1	1	262.932	0.935885	0.935222	-0.0169951	2	0.000340795	41	14.6526	-1.58942e-05
2	0	0	1	1	263.582	0.922893	0.922553	-0.0113359	2	0.000331534	41	15.3023	-1.0458e-05
2	0	0	1	1	264.232	0.909898	0.909259	-0.00780328	2	0.000325324	41	15.952	-7.0952e-06
2	0	0	1	1	264.881	0.896905	0.896687	-0.006172	2	0.000320735	41	16.6016	-5.53435e-06
2	0	0	1	1	265.531	0.883912	0.883462	-0.00550154	2	0.000316866	41	17.2514	-4.8604e-06
2	0	0	1	1	266.181	0.870918	0.870766	-0.00552776	2	0.000313196	41	17.901	-4.81338e-06
2	0	0	1	1	266.83	0.857925	0.857518	-0.00616431	2	0.000309293	41	18.5506	-5.28601e-06
2	0	0	1	1	267.48	0.844931	0.844776	-0.00737065	2	0.000304767	41	19.2004	-6.22654e-06
2	0	0	1	1	268.13	0.831938	0.83178	-0.00886711	2	0.000299339	41	19.85	-7.37549e-06
2	0	0	1	1	268.779	0.818944	0.818601	-0.0102021	2	0.000292937	41	20.4997	-8.35149e-06
2	0	0	1	1	269.429	0.805951	0.805559	-0.0109167	2	0.00028581	41	21.1494	-8.79408e-06
2	0	0	1	1	270.079	0.792957	0.79214	-0.0106764	2	0.000278498	41	21.799	-8.45718e-06
2	0	0	1	1	270.728	0.779964	0.779876	-0.00961511	2	0.000271604	41	22.4488	-7.49859e-06
2	0	0	1	1	271.378	0.76697	0.766664	-0.0083428	2	0.000265478	41	23.0984	-6.39613e-06
2	0	0	1	1	272.028	0.753977	0.753676	-0.00721269	2	0.000260125	41	23.748	-5.43603e-06
2	0	0	1	1	272.677	0.740983	0.740536	-0.00633891	2	0.000255411	41	24.3978	-4.69419e-06
2	0	0	1	1	273.327	0.72799	0.727741	-0.00564621	2	0.000251201	41	25.0474	-4.10898e-06
2	0	0	1	1	273.977	0.714995	0.714688	-0.00510729	2	0.000247389	41	25.6971	-3.65012e-06
2	0	0	1	1	274.626	0.702003	0.701745	-0.00467615	2	0.000243896	41	26.3468	-3.28147e-06
2	0	0	1	1	275.276	0.689009	0.688754	-0.00431537	2	0.000240666	41	26.9964	-2.97223e-06
2	0	0	1	1	275.926	0.676016	0.675942	-0.00403673	2	0.000237651	41	27.6462	-2.7286e-06
2	0	0	1	1	276.605	0.662423	0.661973	-0.00422278	2	0.000234698	42	28.3258	-2.79537e-06
2	0	0	1	1	277.255	0.649429	0.649362	-0.00397458	2	0.000232035	42	28.9754	-2.58094e-06
2	0	0	1	1	277.905	0.636436	0.635941	-0.00378166	2	0.000229514	42	29.6252	-2.40492e-06
2	0	0	1	1	278.554	0.623442	0.623226	-0.00357716	2	0.000227121	42	30.2748	-2.22938e-06
2	0	0	1	1	279.204	0.610449	0.60992	-0.00342985	2	0.000224842	42	30.9244	-2.09194e-06
2	0	0	1	1	279.854	0.597455	0.597213	-0.00326564	2	0.000222667	42	31.5742	-1.95028e-06
2	0	0	1	1	280.503	0.584462	0.583926	-0.00314743	2	0.000220584	42	32.2238	-1.83787e-06
2	0	0	1	1	281.153	0.571467	0.571086	-0.00301704	2	0.000218583	42	32.8735	-1.72299e-06
2	0	0	1	1	281.803	0.558475	0.55813	-0.00292984	2	0.000216653	42	33.5232	-1.63523e-06
2	0	0	1	1	282.452	0.545481	0.545108	-0.00281551	2	0.000214787	42	34.1728	-1.53476e-06
2	0	0	1	1	283.102	0.532488	0.532072	-0.00275317	2	0.000212975	42	34.8226	-1.46489e-06
2	0	0	1	1	283.752	0.519494	0.519056	-0.0026778	2	0.000211208	42	35.4722	-1.38993e-06
2	0	0	1	1	284.401	0.506501	0.505889	-0.0026409	2	0.000209479	42	36.1218	-1.336e-06
2	0	0	1	1	285.051	0.493507	0.493177	-0.00259983	2	0.000207776	42	36.7716	-1.28218e-06
2	0	0	1	1	285.701	0.480514	0.480224	-0.00258808	2	0.000206089	42	37.4212	-1.24286e-06
2	0	0	1	1	286.351	0.467519	0.46706	-0.00259458	2	0.000204405	42	38.0709	-1.21182e-06
2	0	0	1	1	287	0.454527	0.453842	-0.00260586	2	0.000202716	42	38.7206	-1.18265e-06
2	0	0	1	1	287.65	0.441534	0.44117	-0.00260793	2	0.000201021	42	39.3702	-1.15054e-06
2	0	0	1	1	288.3	0.42854	0.42811	-0.0025927	2	0.000199327	42	40.02	-1.10996e-06
2	0	0	1	1	288.949	0.415547	0.415218	-0.00255287	2	0.000197651	42	40.6696	-1.06e-06
2	0	0	1	1	289.599	0.402553	0.402278	-0.00247891	2	0.000196012	42	41.3192	-9.97213e-07
2	0	0	1	1	290.249	0.38956	0.389131	-0.00240171	2	0.000194423	42	41.969	-9.3458e-07
2	0	0	1	1	290.898	0.376566	0.376145	-0.00229515	2	0.000192897	42	42.6186	-8.63308e-07
2	0	0	1	1	291.548	0.363573	0.3631	-0.00220472	2	0.000191434	42	43.2682	-8.00535e-07
2	0	0	1	1	292.198	0.350579	0.350271	-0.00209922	2	0.000190037	42	43.918	-7.35298e-07
2	0	0	1	1	292.847	0.337586	0.337276	-0.00200861	2	0.0001887	42	44.5676	-6.77456e-07
2	0	0	1	1	293.497	0.324593	0.324362	-0.00193111	2	0.000187419	42	45.2173	-6.26378e-07
2	0	0	1	1	294.147	0.311599	0.311121	-0.00186051	2	0.000186185	42	45.867	-5.78844e-07
2	0	0	1	1	294.796	0.298605	0.29824	-0.00180394	2	0.000184994	42	46.5166	-5.38005e-07
2	0	0	1	1	295.446	0.285612	0.285348	-0.0017499	2	0.000183838	42	47.1664	-4.99329e-07
2	0	0	1	1	296.096	0.272618	0.271998	-0.00169215	2	0.000182718	42	47.816	-4.60262e-07
2	0	0	1	1	296.745	0.259625	0.259361	-0.00163899	2	0.000181634	42	48.4656	-4.25091e-07
2	0	0	1	1	297.395	0.246631	0.246265	-0.0015789	2	0.000180586	42	49.1154	-3.88828e-07
2	0	0	1	1	298.045	0.233638	0.233272	-0.00153022	2	0.000179574	42	49.765	-3.56956e-07
2	0	0	1	1	298.694	0.220644	0.220347	-0.00147932	2	0.000178594	42	50.4147	-3.25964e-07
2	0	0	1	1	299.344	0.207651	0.207037	-0.00144694	2	0.000177643	42	51.0644	-2.9957e-07
2	0	0	1	1	299.994	0.194657	0.194152	-0.0014101	2	0.000176714	42	51.714	-2.73773e-07
2	0	0	1	1	300.643	0.181664	0.181408	-0.00139682	2	0.000175802	42	52.3638	-2.53395e-07
2	0	0	1	1	301.293	0.16867	0.168345	-0.00137883	2	0.000174898	42	53.0134	-2.32119e-07
2	0	0	1	1	301.943	0.155677	0.155212	-0.00140052	2	0.000173994	42	53.663	-2.17377e-07
2	0	0	1	1	302.592	0.142683	0.14194	-0.00142384	2	0.000173075	42	54.3128	-2.021e-07
2	0	0	1	1	303.242	0.12969	0.129063	-0.00149493	2	0.000172126	42	54.9624	-1.9294e-07
2	0	0	1	1	303.892	0.116696	0.116376	-0.00159392	2	0.000171123	42	55.6121	-1.85495e-07
2	0	0	1	1	304.541	0.103703	0.103448	-0.00175283	2	0.000170037	42	56.2618	-1.81326e-07
2	0	0	1	1	305.191	0.0907095	0.0901754	-0.00197616	2	0.000168827	42	56.9114	-1.78201e-07
2	0	0	1	1	305.841	0.077716	0.077207	-0.00229523	2	0.000167441	42	57.5612	-1.77208e-07
2	0	0	1	1	306.49	0.0647225	0.0646254	-0.00272614	2	0.000165815	42	58.2108	-1.76178e-07
2	0	0	1	1	307.14	0.051729	0.0514994	-0.00329618	2	0.000163864	42	58.8604	-1.69751e-07
2	0	0	1	1	307.79	0.0387355	0.0385755	-0.00404158	2	0.000161487	42	59.5102	-1.55906e-07
2	0	0	1	1	308.439	0.025742	0.0254806	-0.00496721	2	0.000158569	42	60.1598	-1.26568e-07
2	0	0	1	1	309.089	0.0127468	0.0122942	-0.0061087	2	0.000154978	42	60.8095	-7.51014e-08
2	0	0	1	1	309.739	-0.000246016	-0.000621071	-0.00742413	2	0.000150586	42	61.4592	4.61091e-09
2	0	0	1	1	310.388	-0.0132384	-0.0134483	-0.00889774	2	0.000145285	42	62.1088	1.19659e-07
2	0	0	1	1	311.038	-0.0262319	-0.0264528	-0.0104034	2	0.00013901	42	62.7586	2.75198e-07
2	0	0	1	1	311.718	-0.0398251	-0.0399816	-0.0113487	2	0.000131421	41	63.4382	4.53738e-07
2	0	0	1	1	312.367	-0.0528186	-0.0532802	-0.0125451	2	0.000123294	41	64.0878	6.68408e-07
2	0	0	1	1	313.017	-0.0658121	-0.066262	-0.0133945	2	0.000114508	41	64.7376	8.87546e-07
2	0	0	1	1	313.667	-0.0788055	-0.0791448	-0.0138886	2	0.000105315	41	65.3872	1.09921e-06
2	0	0	1	1	314.316	-0.091799	-0.0919186	-0.0139957	2	9.59495e-05	41	66.0368	1.28647e-06
2	0	0	1	1	314.966	-0.104793	-0.10508	-0.0138994	2	8.65961e-05	41	66.6866	1.46056e-06
2	0	0	1	1	315.616	-0.117786	-0.117817	-0.0136486	2	7.73898e-05	41	67.3362	1.60805e-06
2	0	0	1	1	316.266	-0.130781	-0.131012	-0.0133116	2	6.83951e-05	41	67.9859	1.74398e-06
2	0	0	1	1	316.915	-0.143773	-0.143884	-0.0129837	2	5.96334e-05	41	68.6356	1.86816e-06
2	0	0	1	1	317.565	-0.156766	-0.156888	-0.01269	2	5.11017e-05	41	69.2852	1.99091e-06
2	0	0	1	1	318.215	-0.16976	-0.170313	-0.0124253	2	4.27643e-05	41	69.935	2.11619e-06
2	0	0	1	1	318.864	-0.182753	-0.182963	-0.0122513	2	3.45889e-05	41	70.5846	2.24153e-06
2	0	0	1	1	319.514	-0.195747	-0.196028	-0.0121231	2	2.65317e-05	41	71.2342	2.37647e-06
2	0	0	1	1	320.164	-0.20874	-0.20911	-0.0120781	2	1.855e-05	41	71.884	2.52565e-06
2	0	0	1	1	320.813	-0.221734	-0.221944	-0.012061	2	1.06055e-05	41	72.5336	2.67686e-06
2	0	0	1	1	321.463	-0.234727	-0.23524	-0.0121319	2	2.65623e-06	41	73.1832	2.85389e-06
2	0	0	1	1	322.113	-0.247721	-0.247824	-0.0122562	2	-5.34565e-06	41	73.833	3.03739e-06
2	0	0	1	1	322.762	-0.260714	-0.260992	-0.0124325	2	-1.34322e-05	41	74.4826	3.24479e-06
2	0	0	1	1	323.412	-0.273706	-0.27411	-0.0126673	2	-2.16463e-05	41	75.1323	3.47224e-06
2	0	0	1	1	324.062	-0.286701	-0.287187	-0.0129559	2	-3.00301e-05	41	75.782	3.72075e-06
2	0	0	1	1	324.706	-0.299595	-0.300005	-0.0133127	2	-3.85546e-05	41	76.4266	3.99389e-06
2	0	0	1	0	325.301	-0.2885	-0.288658	-0.0119947	2	-4.59837e-05	41	77.0218	3.46237e-06
2	0	0	1	0	325.951	-0.275507	-0.275759	-0.0110232	2	-5.33925e-05	41	77.6716	3.03976e-06
2	0	0	1	0	326.601	-0.262513	-0.262829	-0.0102587	2	-6.02435e-05	41	78.3212	2.69628e-06
2	0	0	1	0	327.25	-0.24952	-0.250058	-0.00961327	2	-6.66308e-05	41	78.9708	2.40388e-06
2	0	0	1	0	327.9	-0.236526	-0.236772	-0.00905773	2	-7.26255e-05	41	79.6206	2.14462e-06
2	0	0	1	0	328.55	-0.223533	-0.224086	-0.00856335	2	-7.82716e-05	41	80.2702	1.91893e-06
2	0	0	1	0	329.2	-0.21054	-0.211054	-0.00812628	2	-8.36082e-05	41	80.9199	1.71508e-06
2	0	0	1	0	329.849	-0.197546	-0.198306	-0.00767316	2	-8.86603e-05	41	81.5696	1.52163e-06
2	0	0	1	0	330.499	-0.184553	-0.184865	-0.00729927	2	-9.34449e-05	41	82.2192	1.34938e-06
2	0	0	1	0	331.149	-0.171559	-0.172015	-0.00695393	2	-9.79797e-05	41	82.869	1.19618e-06
2	0	0	1	0	331.798	-0.158566	-0.158845	-0.00657117	2	-0.000102269	41	83.5186	1.0438e-06
2	0	0	1	0	332.448	-0.145572	-0.145866	-0.00623207	2	-0.000106316	41	84.1682	9.09048e-07
2	0	0	1	0	333.098	-0.132579	-0.132688	-0.00586742	2	-0.000110122	41	84.818	7.78536e-07
2	0	0	1	0	333.747	-0.119585	-0.120099	-0.00548218	2	-0.000113684	41	85.4676	6.58403e-07
2	0	0	1	0	334.397	-0.106592	-0.107049	-0.00511288	2	-0.000116993	41	86.1173	5.4733e-07
2	0	0	1	0	335.062	-0.0932983	-0.0935299	-0.00467649	2	-0.000120104	41	86.782	4.37392e-07
2	0	0	1	0	335.726	-0.0800049	-0.0799276	-0.00403695	2	-0.000122931	42	87.4466	3.22664e-07
2	0	0	1	0	336.376	-0.0670128	-0.0673623	-0.0035836	2	-0.000125405	42	88.0963	2.41399e-07
2	0	0	1	0	337.026	-0.054018	-0.0545971	-0.00311848	2	-0.000127579	42	88.746	1.7026e-07
2	0	0	1	0	337.675	-0.0410245	-0.0412176	-0.00264703	2	-0.000129447	42	89.3956	1.09104e-07
2	0	0	1	0	338.325	-0.028031	-0.0282152	-0.00220883	2	-0.000131019	42	90.0454	6.23226e-08
2	0	0	1	0	338.975	-0.0150375	-0.0152608	-0.00180285	2	-0.000132316	42	90.695	2.7513e-08
2	0	0	1	0	339.624	-0.00204401	-0.00216042	-0.00144603	2	-0.000133365	42	91.3446	3.12403e-09
2	0	0	1	0	340.274	0.0109495	0.0107035	-0.00112357	2	-0.000134196	42	91.9944	-1.20261e-08
2	0	0	1	0	340.924	0.023943	0.0235682	-0.000855008	2	-0.000134833	42	92.644	-2.0151e-08
2	0	0	1	0	341.573	0.036936	0.0365303	-0.000613202	2	-0.000135306	42	93.2937	-2.24004e-08
2	0	0	1	0	342.223	0.0499299	0.0496989	-0.000426684	2	-0.00013564	42	93.9434	-2.12057e-08
2	0	0	1	0	342.903	0.0635231	0.0631425	-0.00025706	2	-0.000135873	43	94.623	-1.62314e-08
2	0	0	1	0	343.552	0.0765148	0.0762652	-0.000133457	2	-0.000135998	43	95.2727	-1.01781e-08
2	0	0	1	0	344.202	0.0895101	0.0893402	-3.30787e-05	2	-0.00013605	43	95.9224	-2.95526e-09
2	1	0	1	0	344.852	0.102504	0.102269	4.63768e-05	2	-0.000136044	43	0.3498	4.7429e-09
2	1	0	1	0	345.501	0.115497	0.11522	0.000109187	2	-0.000135992	43	0.9996	1.25805e-08
2	1	0	1	0	346.151	0.128491	0.128454	0.000158533	2	-0.000135905	43	1.6492	2.03642e-08
2	1	0	1	0	346.801	0.141484	0.141031	0.000197471	2	-0.00013579	43	2.2988	2.78494e-08
2	1	0	1	0	347.45	0.154477	0.15435	0.00022731	2	-0.000135652	43	2.9486	3.50852e-08
2	1	0	1	0	348.1	0.167471	0.167334	0.000252774	2	-0.000135495	43	3.5982	4.22977e-08
2	1	0	1	0	348.75	0.180464	0.18029	0.000276138	2	-0.000135322	43	4.2479	4.9785e-08
2	1	0	1	0	349.399	0.193458	0.193202	0.000303006	2	-0.000135133	43	4.8976	5.85413e-08
2	1	0	1	0	350.049	0.206451	0.206457	0.000340749	2	-0.000134924	43	5.5472	7.035e-08
2	1	0	1	0	350.699	0.219445	0.219107	0.000397058	2	-0.000134685	43	6.197	8.69982e-08
2	1	0	1	0	351.348	0.232438	0.232259	0.000480069	2	-0.000134402	43	6.8466	1.115e-07
2	1	0	1	0	351.998	0.245432	0.245267	0.000599805	2	-0.000134052	43	7.4962	1.47113e-07
2	1	0	1	0	352.648	0.258425	0.258139	0.000739484	2	-0.000133618	43	8.146	1.9089e-07
2	1	0	1	0	353.297	0.271419	0.271009	0.00084594	2	-0.0001331	43	8.7956	2.29257e-07
2	1	0	1	0	353.947	0.284413	0.283952	0.000871085	2	-0.000132538	43	9.4453	2.47346e-07
2	1	0	1	0	354.597	0.297406	0.2972	0.000806186	2	-0.000131987	43	10.095	2.39599e-07
2	1	0	1	0	355.246	0.310399	0.310011	0.00071299	2	-0.000131491	43	10.7446	2.21035e-07
2	1	0	1	0	355.896	0.323393	0.322891	0.000638818	2	-0.000131053	43	11.3944	2.06268e-07
2	1	0	1	0	356.546	0.336386	0.336344	0.000614399	2	-0.000130648	43	12.044	2.06649e-07
2	1	0	1	0	357.195	0.34938	0.34912	0.000622115	2	-0.00013025	43	12.6936	2.17192e-07
2	1	0	1	0	357.845	0.362373	0.362016	0.000655677	2	-0.000129838	43	13.3434	2.37365e-07
2	1	0	1	0	358.495	0.375367	0.375069	0.000700898	2	-0.0001294	43	13.993	2.62885e-07
2	1	0	1	0	359.145	0.388362	0.387973	0.000767781	2	-0.000128925	43	14.6427	2.97878e-07
2	1	0	1	0	359.794	0.401354	0.401027	0.000845246	2	-0.0001284	43	15.2924	3.38966e-07
2	1	0	0	0	359.933	0.404202	0.403111	0.000877528	2	-0.00012828	43	15.4309	3.53741e-07