File: Python/Data/GoldElectrode/240308/240308-CVEIS_Activation-0p5H2SO4-Ag_AgCl_BLF8-Au_RDE-80cycles-C15_04_PEIS_C15.mpt
EC-Lab ASCII FILE
Nb header lines : 66

Potentio Electrochemical Impedance Spectroscopy

Run on channel : 15 (SN 19485)
User :
Electrode connection : standard
Potential control : Ewe
Ewe ctrl range : min = -2.50 V, max = 2.50 V
Ewe,I filtering : 50 kHz
Safety Limits :
	Do not start on E overload
Channel : Floating
Acquisition started on : 03/08/2024 16:29:18.805
Loaded Setting File :  NONE
Saved on :
	File : 240308-CVEIS_Activation-0p5H2SO4-Ag_AgCl_BLF8-Au_RDE-80cycles-C15_04_PEIS_C15.mpr
	Directory : C:\Data\mathias\GoldElectrode\
	Host : 192.168.0.1
Device : VMP-300 (SN 0826)
Address : USB
EC-Lab for windows v11.52 (software)
Internet server v11.52 (firmware)
Command interpretor v11.52 (firmware)
Electrode material :
Initial state :
Electrolyte :
Comments :
Cable : special
Electrode surface area : 0.001 cm²
Characteristic mass : 0.001 g
Equivalent Weight : 0.000 g/eq.
Density : 0.000 g/cm3
Volume (V) : 0.001 cm³
Record EIS quality indicators
Cycle Definition : Charge/Discharge alternance
Mode                Single sine
E (V)               0.0000
vs.                 Eoc
tE (h:m:s)          0:00:0.0000
record              0
dI                  0.000
unit dI             mA
dt (s)              0.000
fi                  100.000
unit fi             kHz
ff                  100.000
unit ff             Hz
Nd                  10
Points              per decade
spacing             Logarithmic
Va (mV)             5.0
pw                  0.10
Na                  2
corr                0
E range min (V)     -2.500
E range max (V)     2.500
I Range             Auto
Bandwidth           8
nc cycles           1
goto Ns'            0
nr cycles           0
inc. cycle          0

freq/Hz	Re(Z)/Ohm	-Im(Z)/Ohm	|Z|/Ohm	Phase(Z)/deg	time/s	<Ewe>/V	<I>/mA	Cs/µF	Cp/µF	cycle number	I Range	|Ewe|/V	|I|/A	Ns	(Q-Qo)/mA.h	THD Ewe/%	NSD Ewe/%	NSR Ewe/%	|Ewe h2|/V	|Ewe h3|/V	|Ewe h4|/V	|Ewe h5|/V	|Ewe h6|/V	|Ewe h7|/V	THD I/%	NSD I/%	NSR I/%	|I h2|/A	|I h3|/A	|I h4|/A	|I h5|/A	|I h6|/A	|I h7|/A	Re(Y)/Ohm-1	Im(Y)/Ohm-1	|Y|/Ohm-1	Phase(Y)/deg	Re(C)/nF	Im(C)/nF	|C|/nF	Phase(C)/deg	Re(M)	Im(M)	|M|	Phase(M)/deg	Re(Permittivity)	Im(Permittivity)	|Permittivity|	Phase(Permittivity)/deg	Re(Resistivity)/Ohm.cm	Im(Resistivity)/Ohm.cm	|Resistivity|/Ohm.cm	Phase(Resistivity)/deg	Re(Conductivity)/mS/cm	Im(Conductivity)/mS/cm	|Conductivity|/mS/cm	Phase(Conductivity)/deg	Tan(Delta)	Loss Angle(Delta)/deg	dq/mA.h
100004	6.15399	0.664888	6.18981	-6.16641	774.134	0.399127	-0.0221592	2.39362	0.0276184	1	38	0.00488152	0.000788638	0	-8.79009e-06	1.27305	1.06534	31.7816	2.30168e-05	2.60212e-05	2.68735e-05	1.91252e-05	2.17507e-05	2.58516e-05	0.249283	0.121356	3.98591	2.81833e-07	7.99728e-07	8.11406e-07	5.73832e-07	9.0169e-07	7.61957e-07	0.160621	0.0173538	0.161556	6.16641	27.6184	255.627	257.115	-83.8336	0.0000000E+000	0.0000000E+000	0.0000000E+000	83.8336	0.0000000E+000	0.0000000E+000	0.0000000E+000	-83.8336	0.0000000E+000	0.0000000E+000	0.0000000E+000	-6.16641	0.0000000E+000	0.0000000E+000	0.0000000E+000	6.16641	9.25569	83.8336	-8.79009e-06
79433.3	6.16744	0.669128	6.20364	-6.19201	774.948	0.399142	-0.0123766	2.99439	0.0348365	1	38	0.00511554	0.000824604	0	-1.13647e-05	1.31199	0.747347	30.5885	2.7731e-05	3.05158e-05	2.50727e-05	1.43991e-05	2.63991e-05	1.72874e-05	0.175585	0.0903609	3.68868	7.93852e-07	5.47153e-07	4.45933e-07	4.71542e-07	4.66231e-07	5.59321e-07	0.160255	0.0173867	0.161196	6.19201	34.8365	321.093	322.977	-83.808	0.0000000E+000	0.0000000E+000	0.0000000E+000	83.808	0.0000000E+000	0.0000000E+000	0.0000000E+000	-83.808	0.0000000E+000	0.0000000E+000	0.0000000E+000	-6.19201	0.0000000E+000	0.0000000E+000	0.0000000E+000	6.19201	9.21713	83.808	-2.57461e-06
63093.8	6.17572	0.689021	6.21403	-6.36612	775.762	0.399124	-0.0118031	3.66101	0.0450109	1	38	0.00515674	0.000829854	0	-1.52966e-05	1.76683	0.7563	29.0146	5.36925e-05	2.94461e-05	2.85134e-05	2.55956e-05	3.97603e-05	3.58935e-05	0.206352	0.0863735	3.8321	1.02405e-06	5.63265e-07	4.63983e-07	5.59326e-07	7.11153e-07	5.85176e-07	0.159934	0.0178437	0.160926	6.36612	45.011	403.435	405.938	-83.6339	0.0000000E+000	0.0000000E+000	0.0000000E+000	83.6339	0.0000000E+000	0.0000000E+000	0.0000000E+000	-83.6339	0.0000000E+000	0.0000000E+000	0.0000000E+000	-6.36612	0.0000000E+000	0.0000000E+000	0.0000000E+000	6.36612	8.96304	83.6339	-3.93188e-06
50122.5	6.17821	0.718441	6.21984	-6.63292	776.576	0.39913	-0.0118161	4.41974	0.0589685	1	38	0.00512815	0.000824482	0	-1.72065e-05	1.82675	0.961174	29.405	3.11144e-05	2.97489e-05	3.1501e-05	4.38822e-05	3.34063e-05	4.45498e-05	0.17399	0.174092	3.74774	2.38654e-07	7.18924e-07	6.4589e-07	4.18336e-07	6.60971e-07	4.83187e-07	0.1597	0.0185709	0.160776	6.63292	58.9685	507.098	510.515	-83.3671	0.0000000E+000	0.0000000E+000	0.0000000E+000	83.3671	0.0000000E+000	0.0000000E+000	0.0000000E+000	-83.3671	0.0000000E+000	0.0000000E+000	0.0000000E+000	-6.63292	0.0000000E+000	0.0000000E+000	0.0000000E+000	6.63292	8.59947	83.3671	-1.90997e-06
39814.1	6.25003	0.878922	6.31153	-8.00483	777.39	0.399159	-0.0112836	4.54813	0.0881992	1	38	0.00513311	0.000813291	0	-1.9639e-05	1.74188	0.82818	30.6678	2.15207e-05	1.93573e-05	1.67869e-05	5.62886e-05	4.82237e-05	3.02218e-05	0.284653	0.139976	3.76754	7.6123e-07	1.20006e-06	5.25218e-07	1.34737e-06	8.20709e-07	7.37479e-07	0.156896	0.0220638	0.15844	8.00483	88.1992	627.186	633.358	-81.9952	0.0000000E+000	0.0000000E+000	0.0000000E+000	81.9952	0.0000000E+000	0.0000000E+000	0.0000000E+000	-81.9952	0.0000000E+000	0.0000000E+000	0.0000000E+000	-8.00483	0.0000000E+000	0.0000000E+000	0.0000000E+000	8.00483	7.11102	81.9952	-2.43248e-06
31621.1	6.26689	0.987107	6.34415	-8.9512	778.204	0.399125	-0.0109038	5.09892	0.123441	1	38	0.00514046	0.000810268	0	-2.27074e-05	1.69491	1.05203	29.5922	3.41059e-05	3.82568e-05	3.76365e-05	2.9344e-05	2.98751e-05	2.83181e-05	0.185763	0.0915965	3.92483	4.92443e-07	5.26369e-07	6.0107e-07	5.66674e-07	6.08119e-07	7.3517e-07	0.155706	0.0245254	0.157625	8.9512	123.441	783.695	793.357	-81.0488	0.0000000E+000	0.0000000E+000	0.0000000E+000	81.0488	0.0000000E+000	0.0000000E+000	0.0000000E+000	-81.0488	0.0000000E+000	0.0000000E+000	0.0000000E+000	-8.9512	0.0000000E+000	0.0000000E+000	0.0000000E+000	8.9512	6.34875	81.0488	-3.06839e-06
25116.9	6.35987	1.19242	6.47069	-10.6192	779.019	0.399138	-0.0106394	5.31404	0.18046	1	38	0.00517732	0.000800118	0	-2.47634e-05	1.20351	0.868127	29.4261	2.06431e-05	2.37897e-05	1.09557e-05	1.62366e-05	2.34074e-05	3.79957e-05	0.23744	0.152395	3.81357	9.54974e-07	7.26261e-07	6.47825e-07	1.13906e-06	4.17527e-07	4.04815e-07	0.151896	0.0284792	0.154543	10.6192	180.46	962.501	979.273	-79.3808	0.0000000E+000	0.0000000E+000	0.0000000E+000	79.3808	0.0000000E+000	0.0000000E+000	0.0000000E+000	-79.3808	0.0000000E+000	0.0000000E+000	0.0000000E+000	-10.6192	0.0000000E+000	0.0000000E+000	0.0000000E+000	10.6192	5.33358	79.3808	-2.05594e-06
19948.8	6.46658	1.37755	6.61168	-12.0257	779.833	0.399135	-0.010254	5.79157	0.251413	1	38	0.00518342	0.000783979	0	-2.61791e-05	2.54543	0.866957	29.0466	4.5253e-05	4.90649e-05	9.97726e-05	1.61535e-05	2.75344e-05	2.4979e-05	0.285001	0.0900389	3.96404	3.38186e-07	5.79545e-07	1.83692e-06	3.33232e-07	5.55524e-07	3.84612e-07	0.147928	0.0315126	0.151247	12.0257	251.413	1180.2	1206.68	-77.9743	0.0000000E+000	0.0000000E+000	0.0000000E+000	77.9743	0.0000000E+000	0.0000000E+000	0.0000000E+000	-77.9743	0.0000000E+000	0.0000000E+000	0.0000000E+000	-12.0257	0.0000000E+000	0.0000000E+000	0.0000000E+000	12.0257	4.69426	77.9743	-1.41578e-06
15847.7	6.56089	1.59516	6.75202	-13.6653	780.647	0.399148	-0.0107809	6.29578	0.351392	1	38	0.00512891	0.000759611	0	-2.85111e-05	1.31932	0.903561	29.1764	2.24284e-05	2.84248e-05	2.07405e-05	2.38879e-05	1.82922e-05	3.74663e-05	0.277337	0.118806	4.06186	5.90214e-07	5.45109e-07	6.08624e-07	9.46283e-07	8.41527e-07	1.09326e-06	0.143911	0.0349895	0.148104	13.6653	351.392	1445.27	1487.38	-76.3347	0.0000000E+000	0.0000000E+000	0.0000000E+000	76.3347	0.0000000E+000	0.0000000E+000	0.0000000E+000	-76.3347	0.0000000E+000	0.0000000E+000	0.0000000E+000	-13.6653	0.0000000E+000	0.0000000E+000	0.0000000E+000	13.6653	4.11299	76.3347	-2.33197e-06
12590.9	6.70869	1.91798	6.97747	-15.9549	781.461	0.399124	-0.010064	6.59051	0.497977	1	38	0.00504463	0.000722988	0	-3.05556e-05	1.51028	1.03866	30.2528	4.53016e-05	3.20582e-05	2.57622e-05	2.80332e-05	2.53978e-05	1.77476e-05	0.314095	0.156453	4.38048	1.23368e-06	7.61097e-07	7.32883e-07	3.41784e-07	7.16568e-07	1.22727e-06	0.137797	0.0393955	0.143318	15.9549	497.977	1741.82	1811.61	-74.0451	0.0000000E+000	0.0000000E+000	0.0000000E+000	74.0451	0.0000000E+000	0.0000000E+000	0.0000000E+000	-74.0451	0.0000000E+000	0.0000000E+000	0.0000000E+000	-15.9549	0.0000000E+000	0.0000000E+000	0.0000000E+000	15.9549	3.49779	74.0451	-2.04454e-06
10002.2	6.87031	2.25899	7.23217	-18.2011	782.275	0.399105	-0.0101758	7.04382	0.687229	1	38	0.00511897	0.000707806	0	-3.24708e-05	1.9146	0.868652	30.9399	2.26673e-05	3.43024e-05	3.92187e-05	5.41812e-05	3.67813e-05	1.53869e-05	0.28537	0.106522	4.36981	2.29117e-07	9.96586e-07	6.29441e-07	1.29699e-06	4.1651e-07	8.75463e-07	0.131353	0.0431895	0.138271	18.2011	687.229	2090.08	2200.16	-71.7989	0.0000000E+000	0.0000000E+000	0.0000000E+000	71.7989	0.0000000E+000	0.0000000E+000	0.0000000E+000	-71.7989	0.0000000E+000	0.0000000E+000	0.0000000E+000	-18.2011	0.0000000E+000	0.0000000E+000	0.0000000E+000	18.2011	3.04131	71.7989	-1.91515e-06
7944	7.06309	2.67274	7.55187	-20.7271	783.124	0.39903	-0.0101162	7.49592	0.938919	1	38	0.00512487	0.000678623	0	-3.38973e-05	1.55033	0.826113	29.58	2.01636e-05	5.89038e-05	2.42006e-05	1.30659e-05	2.16878e-05	1.86949e-05	0.231198	0.110141	4.77226	3.79082e-07	6.42264e-07	9.48069e-07	5.80246e-07	3.76005e-07	3.49228e-07	0.123847	0.0468648	0.132418	20.7271	938.919	2481.23	2652.94	-69.2729	0.0000000E+000	0.0000000E+000	0.0000000E+000	69.2729	0.0000000E+000	0.0000000E+000	0.0000000E+000	-69.2729	0.0000000E+000	0.0000000E+000	0.0000000E+000	-20.7271	0.0000000E+000	0.0000000E+000	0.0000000E+000	20.7271	2.64264	69.2729	-1.42653e-06
6307.74	7.38821	3.15624	8.03415	-23.1322	784.023	0.399026	-0.00947195	7.99423	1.23378	1	38	0.00513624	0.000639301	0	-3.64418e-05	1.68908	0.487574	28.9673	2.68732e-05	3.04661e-05	3.96942e-05	2.28371e-05	3.67961e-05	3.93331e-05	0.255082	0.207032	4.83803	2.93807e-07	1.05085e-06	2.41648e-07	5.18994e-07	4.63108e-07	8.46158e-07	0.114462	0.0488979	0.124469	23.1322	1233.78	2888.06	3140.56	-66.8678	0.0000000E+000	0.0000000E+000	0.0000000E+000	66.8678	0.0000000E+000	0.0000000E+000	0.0000000E+000	-66.8678	0.0000000E+000	0.0000000E+000	0.0000000E+000	-23.1322	0.0000000E+000	0.0000000E+000	0.0000000E+000	23.1322	2.34083	66.8678	-2.54451e-06
5011.6	7.65796	3.68184	8.49707	-25.6776	784.779	0.399006	-0.00971587	8.62539	1.61946	1	38	0.00543896	0.000640098	0	-3.80355e-05	1.28541	0.626294	27.5886	2.51967e-05	3.03562e-05	3.43156e-05	2.03922e-05	2.01578e-05	3.25505e-05	0.251553	0.187947	5.00133	6.36897e-07	3.46345e-07	1.09759e-06	3.61008e-07	4.62844e-07	5.84888e-07	0.106066	0.0509948	0.117688	25.6776	1619.46	3368.35	3737.44	-64.3224	0.0000000E+000	0.0000000E+000	0.0000000E+000	64.3224	0.0000000E+000	0.0000000E+000	0.0000000E+000	-64.3224	0.0000000E+000	0.0000000E+000	0.0000000E+000	-25.6776	0.0000000E+000	0.0000000E+000	0.0000000E+000	25.6776	2.07993	64.3224	-1.59369e-06
3981.28	7.98179	4.25759	9.04633	-28.076	785.744	0.399008	-0.00936955	9.38931	2.07978	1	38	0.00510246	0.000564036	0	-4.07985e-05	1.52229	0.994564	29.5518	1.10222e-05	1.46351e-05	3.20486e-05	5.17516e-05	4.0398e-05	1.24556e-05	0.306399	0.173683	5.63327	6.81824e-07	8.54503e-07	8.0185e-07	6.77074e-07	4.69967e-07	5.01776e-07	0.0975339	0.0520258	0.110542	28.076	2079.78	3899	4419.01	-61.924	0.0000000E+000	0.0000000E+000	0.0000000E+000	61.924	0.0000000E+000	0.0000000E+000	0.0000000E+000	-61.924	0.0000000E+000	0.0000000E+000	0.0000000E+000	-28.076	0.0000000E+000	0.0000000E+000	0.0000000E+000	28.076	1.87472	61.924	-2.763e-06
3163.04	8.34041	4.96898	9.70841	-30.7853	786.487	0.399037	-0.00961533	10.1262	2.65269	1	38	0.00514993	0.000530461	0	-4.30298e-05	1.75821	1.06878	28.8218	2.96886e-05	4.90777e-05	3.22048e-05	3.61022e-05	2.50978e-05	4.07327e-05	0.287304	0.15126	6.00736	3.43141e-07	4.98302e-07	8.86676e-07	7.17712e-07	2.09096e-07	6.55583e-07	0.0884894	0.0527195	0.103003	30.7853	2652.69	4452.53	5182.83	-59.2147	0.0000000E+000	0.0000000E+000	0.0000000E+000	59.2147	0.0000000E+000	0.0000000E+000	0.0000000E+000	-59.2147	0.0000000E+000	0.0000000E+000	0.0000000E+000	-30.7853	0.0000000E+000	0.0000000E+000	0.0000000E+000	30.7853	1.67849	59.2147	-2.23126e-06
2512.41	8.76658	5.83646	10.5317	-33.6542	787.23	0.399003	-0.00939934	10.8538	3.33334	1	38	0.00516977	0.000490876	0	-4.48916e-05	1.50493	1.54696	29.2207	1.98375e-05	3.45504e-05	2.15782e-05	2.76079e-05	4.06219e-05	3.20922e-05	0.465846	0.290858	6.43574	4.31745e-07	1.4364e-06	8.71196e-07	6.36365e-07	5.31136e-07	9.94347e-07	0.0790372	0.05262	0.0949512	33.6542	3333.34	5006.81	6014.92	-56.3458	0.0000000E+000	0.0000000E+000	0.0000000E+000	56.3458	0.0000000E+000	0.0000000E+000	0.0000000E+000	-56.3458	0.0000000E+000	0.0000000E+000	0.0000000E+000	-33.6542	0.0000000E+000	0.0000000E+000	0.0000000E+000	33.6542	1.50204	56.3458	-1.86185e-06
1995.64	9.13657	6.76354	11.3676	-36.5115	787.973	0.399012	-0.00958926	11.7914	4.17421	1	38	0.00509734	0.000448409	0	-4.70631e-05	1.67326	1.01445	29.716	3.71964e-05	3.57419e-05	4.96339e-06	5.45096e-05	1.74323e-05	3.52162e-05	0.503178	0.194349	7.18069	7.8666e-07	6.81426e-07	6.15653e-07	1.3534e-06	6.07598e-07	1.03095e-06	0.0707042	0.0523403	0.0879693	36.5115	4174.21	5638.76	7015.67	-53.4885	0.0000000E+000	0.0000000E+000	0.0000000E+000	53.4885	0.0000000E+000	0.0000000E+000	0.0000000E+000	-53.4885	0.0000000E+000	0.0000000E+000	0.0000000E+000	-36.5115	0.0000000E+000	0.0000000E+000	0.0000000E+000	36.5115	1.35086	53.4885	-2.17143e-06
1584.49	9.70089	7.95017	12.5424	-39.3356	788.716	0.399022	-0.00813323	12.6344	5.07625	1	38	0.00510851	0.000407299	0	-4.89747e-05	1.18745	0.985679	27.8846	2.53727e-05	3.85363e-05	2.59321e-05	1.00365e-05	1.70151e-05	1.69553e-05	0.447953	0.263204	7.54897	1.23635e-06	5.06896e-07	4.29686e-07	8.7223e-07	6.58257e-07	3.63932e-07	0.0616664	0.0505374	0.0797294	39.3356	5076.25	6194.1	8008.45	-50.6644	0.0000000E+000	0.0000000E+000	0.0000000E+000	50.6644	0.0000000E+000	0.0000000E+000	0.0000000E+000	-50.6644	0.0000000E+000	0.0000000E+000	0.0000000E+000	-39.3356	0.0000000E+000	0.0000000E+000	0.0000000E+000	39.3356	1.22021	50.6644	-1.91158e-06
1258.79	10.1263	9.38147	13.8041	-42.8136	789.459	0.398995	-0.0082524	13.4771	6.22475	1	38	0.00504897	0.000365759	0	-5.06148e-05	1.3096	1.29331	30.5078	1.76975e-05	3.1275e-05	2.95465e-05	2.5225e-05	2.22492e-05	2.74091e-05	0.474261	0.363405	8.54023	1.16103e-06	8.28725e-07	1.18072e-07	3.38458e-07	5.09005e-07	6.76021e-07	0.0531414	0.0492329	0.0724423	42.8136	6224.75	6718.92	9159.22	-47.1864	0.0000000E+000	0.0000000E+000	0.0000000E+000	47.1864	0.0000000E+000	0.0000000E+000	0.0000000E+000	-47.1864	0.0000000E+000	0.0000000E+000	0.0000000E+000	-42.8136	0.0000000E+000	0.0000000E+000	0.0000000E+000	42.8136	1.07939	47.1864	-1.6401e-06
999.682	10.7197	11.131	15.4535	-46.0783	790.203	0.399006	-0.00799917	14.303	7.42059	1	38	0.00502051	0.000324879	0	-5.24035e-05	1.62403	0.984802	29.8115	2.50759e-05	2.72438e-05	5.11192e-05	1.17773e-05	3.62915e-05	1.91274e-05	0.716271	0.355454	9.60152	1.36293e-06	1.25607e-06	7.5534e-07	4.9998e-07	7.57172e-07	5.00966e-07	0.044888	0.0466101	0.0647103	46.0783	7420.59	7146.42	10302.3	-43.9217	0.0000000E+000	0.0000000E+000	0.0000000E+000	43.9217	0.0000000E+000	0.0000000E+000	0.0000000E+000	-43.9217	0.0000000E+000	0.0000000E+000	0.0000000E+000	-46.0783	0.0000000E+000	0.0000000E+000	0.0000000E+000	46.0783	0.963053	43.9218	-1.78876e-06
794.239	11.1275	13.34	17.3717	-50.167	790.948	0.398988	-0.0080029	15.0215	8.85806	1	38	0.00498134	0.00028675	0	-5.40409e-05	1.98866	1.11894	31.252	4.60475e-05	2.66977e-05	4.25125e-05	2.39417e-05	3.28578e-05	3.62897e-05	0.771609	0.412423	10.9296	1.82873e-06	4.40512e-07	2.58846e-07	9.47587e-07	4.38831e-07	2.57198e-07	0.0368733	0.0442048	0.0575648	50.167	8858.06	7388.91	11535.2	-39.833	0.0000000E+000	0.0000000E+000	0.0000000E+000	39.833	0.0000000E+000	0.0000000E+000	0.0000000E+000	-39.833	0.0000000E+000	0.0000000E+000	0.0000000E+000	-50.167	0.0000000E+000	0.0000000E+000	0.0000000E+000	50.167	0.834146	39.833	-1.63736e-06
631.01	11.878	15.8738	19.8259	-53.1935	791.69	0.399064	-0.00618007	15.8892	10.186	1	38	0.00496811	0.000250587	0	-5.49415e-05	1.66001	0.721497	31.1393	4.11407e-05	3.07067e-05	2.89197e-05	1.57875e-05	3.70454e-05	3.56517e-05	0.840235	0.316362	12.4938	1.37152e-06	1.02075e-06	6.89943e-07	6.30297e-07	2.89384e-07	5.65062e-07	0.0302189	0.0403848	0.0504392	53.1935	10186	7621.88	12721.9	-36.8065	0.0000000E+000	0.0000000E+000	0.0000000E+000	36.8065	0.0000000E+000	0.0000000E+000	0.0000000E+000	-36.8065	0.0000000E+000	0.0000000E+000	0.0000000E+000	-53.1935	0.0000000E+000	0.0000000E+000	0.0000000E+000	53.1935	0.748273	36.8065	-9.00646e-07
501.122	12.5465	19.1911	22.9285	-56.8246	792.433	0.399059	-0.00506849	16.5492	11.5938	1	38	0.00495407	0.000216066	0	-5.59087e-05	1.79689	0.490401	30.1214	2.13769e-05	3.84344e-05	3.89597e-05	3.22659e-05	2.90755e-05	4.56823e-05	1.0331	0.431184	14.7592	1.26789e-06	7.26796e-07	7.90346e-07	7.50833e-07	4.73936e-07	1.09099e-06	0.0238657	0.0365048	0.0436139	56.8246	11593.8	7579.67	13851.6	-33.1754	0.0000000E+000	0.0000000E+000	0.0000000E+000	33.1754	0.0000000E+000	0.0000000E+000	0.0000000E+000	-33.1754	0.0000000E+000	0.0000000E+000	0.0000000E+000	-56.8246	0.0000000E+000	0.0000000E+000	0.0000000E+000	56.8246	0.653767	33.1754	-9.67208e-07
398.089	13.2043	23.2718	26.7568	-60.4297	793.178	0.399061	-0.00649846	17.1795	12.9957	1	38	0.00493363	0.000184387	0	-5.69398e-05	1.67723	0.976136	31.015	1.12049e-05	2.88411e-05	1.97277e-05	3.02435e-05	3.01708e-05	4.37283e-05	0.929852	0.64196	17.3444	9.39705e-07	4.88582e-07	7.67143e-07	5.59507e-07	2.56954e-07	7.99426e-07	0.0184436	0.0325057	0.0373736	60.4297	12995.7	7373.69	14941.9	-29.5703	0.0000000E+000	0.0000000E+000	0.0000000E+000	29.5703	0.0000000E+000	0.0000000E+000	0.0000000E+000	-29.5703	0.0000000E+000	0.0000000E+000	0.0000000E+000	-60.4297	0.0000000E+000	0.0000000E+000	0.0000000E+000	60.4297	0.567394	29.5703	-1.03105e-06
316.316	14.314	28.6593	32.035	-63.46	794.172	0.399059	-0.000946274	17.5564	14.0512	1	39	0.00514075	0.000160473	0	-5.77347e-05	1.61324	0.888108	28.1291	4.25322e-05	2.35261e-05	2.7404e-05	2.68433e-05	2.94604e-05	4.21171e-05	0.8987	0.236212	8.77739	1.04286e-06	3.59077e-07	1.48806e-07	7.68121e-07	1.96062e-07	3.01771e-07	0.0139479	0.0279264	0.0312158	63.46	14051.2	7017.93	15706.3	-26.54	0.0000000E+000	0.0000000E+000	0.0000000E+000	26.54	0.0000000E+000	0.0000000E+000	0.0000000E+000	-26.54	0.0000000E+000	0.0000000E+000	0.0000000E+000	-63.46	0.0000000E+000	0.0000000E+000	0.0000000E+000	63.46	0.499454	26.54	-7.94901e-07
251.206	14.8529	34.8462	37.8797	-66.9143	794.915	0.399028	-0.00105587	18.1817	15.3863	1	39	0.00504422	0.000133164	0	-5.80996e-05	1.34671	0.838748	28.9386	3.18003e-05	2.11012e-05	3.51205e-05	1.65223e-05	2.65761e-05	2.00491e-05	0.826437	0.247057	10.8459	8.07893e-07	4.66471e-07	2.12429e-07	4.74448e-07	1.41613e-07	1.66086e-07	0.0103514	0.0242853	0.0263994	66.9143	15386.3	6558.26	16725.7	-23.0857	0.0000000E+000	0.0000000E+000	0.0000000E+000	23.0857	0.0000000E+000	0.0000000E+000	0.0000000E+000	-23.0857	0.0000000E+000	0.0000000E+000	0.0000000E+000	-66.9143	0.0000000E+000	0.0000000E+000	0.0000000E+000	66.9143	0.426241	23.0857	-3.64908e-07
199.553	15.9851	42.7496	45.6405	-69.4981	795.661	0.399039	-0.00105102	18.6564	16.3679	1	39	0.00500342	0.000109627	0	-5.84032e-05	1.34169	1.09333	28.8623	3.47346e-05	2.71574e-05	3.17294e-05	1.92463e-05	2.35426e-05	1.11885e-05	1.02074	0.455899	12.0451	5.95248e-07	3.73444e-07	3.44507e-07	6.17209e-07	3.17919e-07	1.75069e-07	0.00767387	0.0205226	0.0219104	69.4981	16367.9	6120.34	17474.7	-20.5019	0.0000000E+000	0.0000000E+000	0.0000000E+000	20.5019	0.0000000E+000	0.0000000E+000	0.0000000E+000	-20.5019	0.0000000E+000	0.0000000E+000	0.0000000E+000	-69.4981	0.0000000E+000	0.0000000E+000	0.0000000E+000	69.4981	0.373923	20.502	-3.0359e-07
158.529	17.2658	52.2393	55.0187	-71.7106	796.407	0.399046	-0.00101244	19.2183	17.3256	1	39	0.00496413	9.02263e-05	0	-5.84998e-05	1.31236	0.483083	28.8732	2.57804e-05	2.68194e-05	9.07266e-06	2.06362e-05	3.30892e-05	3.14853e-05	0.644606	0.455577	15.4081	2.64335e-07	2.86351e-07	1.45178e-07	1.77218e-07	2.30392e-07	2.35022e-07	0.00570384	0.0172575	0.0181757	71.7106	17325.6	5726.36	18247.4	-18.2894	0.0000000E+000	0.0000000E+000	0.0000000E+000	18.2894	0.0000000E+000	0.0000000E+000	0.0000000E+000	-18.2894	0.0000000E+000	0.0000000E+000	0.0000000E+000	-71.7106	0.0000000E+000	0.0000000E+000	0.0000000E+000	71.7106	0.330514	18.2894	-9.65801e-08
125.927	18.954	64.2451	66.9827	-73.5625	797.149	0.399007	-0.000870607	19.6726	18.0974	1	39	0.0049505	7.39072e-05	0	-5.87298e-05	1.30727	0.956178	29.0175	2.96441e-05	2.17693e-05	2.93583e-05	3.16218e-05	2.43319e-05	1.0624e-05	1.16945	0.727669	19.0833	6.03552e-07	2.77542e-07	2.6518e-07	2.61191e-07	1.90822e-07	3.2926e-07	0.00422451	0.0143191	0.0149292	73.5625	18097.4	5339.23	18868.6	-16.4375	0.0000000E+000	0.0000000E+000	0.0000000E+000	16.4375	0.0000000E+000	0.0000000E+000	0.0000000E+000	-16.4375	0.0000000E+000	0.0000000E+000	0.0000000E+000	-73.5625	0.0000000E+000	0.0000000E+000	0.0000000E+000	73.5625	0.295027	16.4375	-2.30026e-07
99.9682	20.3322	78.8868	81.4649	-75.5472	797.88	0.399031	-0.00112818	20.1815	18.9244	1	39	0.00491438	6.03251e-05	0	-5.89063e-05	1.52923	0.855741	29.3607	3.44788e-05	2.33147e-05	2.38844e-05	4.49682e-05	2.98567e-05	1.27559e-05	1.12081	0.567984	22.9369	2.94111e-07	3.50768e-07	1.89959e-07	2.03987e-07	2.04972e-07	3.16573e-07	0.00306368	0.0118868	0.0122752	75.5472	18924.4	4877.55	19542.8	-14.4528	0.0000000E+000	0.0000000E+000	0.0000000E+000	14.4528	0.0000000E+000	0.0000000E+000	0.0000000E+000	-14.4528	0.0000000E+000	0.0000000E+000	0.0000000E+000	-75.5472	0.0000000E+000	0.0000000E+000	0.0000000E+000	75.5472	0.257739	14.4528	-1.76466e-07
100004	6.16216	0.648666	6.19621	-6.00916	799.323	0.399131	-0.00639231	2.45348	0.0268889	2	38	0.00486415	0.00078502	0	-6.03619e-05	1.32618	0.750067	30.8518	2.54094e-05	1.66864e-05	3.9062e-05	1.59833e-05	2.31482e-05	2.32704e-05	0.215577	0.144753	4.04214	5.83673e-07	8.29242e-07	5.8492e-07	7.09158e-07	7.17633e-07	2.11436e-07	0.160502	0.0168954	0.161389	6.00916	26.8889	255.438	256.849	-83.9908	0.0000000E+000	0.0000000E+000	0.0000000E+000	83.9908	0.0000000E+000	0.0000000E+000	0.0000000E+000	-83.9908	0.0000000E+000	0.0000000E+000	0.0000000E+000	-6.00916	0.0000000E+000	0.0000000E+000	0.0000000E+000	6.00916	9.49975	83.9908	-1.45564e-06
79433.3	6.12354	0.67006	6.16009	-6.24467	800.137	0.399134	-0.00688758	2.99023	0.03538	2	38	0.00506113	0.000821601	0	-6.27377e-05	1.65313	0.938565	30.5384	3.07675e-05	4.60063e-05	2.55472e-05	2.90718e-05	9.82927e-06	4.56155e-05	0.224286	0.109199	3.81058	2.41545e-07	6.42084e-07	5.40994e-07	8.46828e-07	6.73537e-07	1.04905e-06	0.161372	0.0176579	0.162335	6.24467	35.38	323.33	325.26	-83.7553	0.0000000E+000	0.0000000E+000	0.0000000E+000	83.7553	0.0000000E+000	0.0000000E+000	0.0000000E+000	-83.7553	0.0000000E+000	0.0000000E+000	0.0000000E+000	-6.24467	0.0000000E+000	0.0000000E+000	0.0000000E+000	6.24467	9.13879	83.7553	-2.3758e-06
63093.8	6.20487	0.743315	6.24923	-6.83123	800.951	0.399136	-0.00758395	3.3936	0.0480124	2	38	0.00515568	0.00082501	0	-6.2504e-05	1.53988	0.86957	29.4525	1.33173e-05	3.33066e-05	2.18178e-05	2.04924e-05	3.6832e-05	4.97844e-05	0.211928	0.148449	3.77024	6.45843e-07	1.04197e-06	6.86466e-07	3.18152e-07	5.58379e-07	6.33256e-07	0.158884	0.0190336	0.16002	6.83123	48.0124	400.786	403.652	-83.1688	0.0000000E+000	0.0000000E+000	0.0000000E+000	83.1688	0.0000000E+000	0.0000000E+000	0.0000000E+000	-83.1688	0.0000000E+000	0.0000000E+000	0.0000000E+000	-6.83123	0.0000000E+000	0.0000000E+000	0.0000000E+000	6.83123	8.34756	83.1688	2.33686e-07
50122.5	6.17787	0.790464	6.22823	-7.29143	801.765	0.399122	-0.00706819	4.01703	0.0647053	2	38	0.00516853	0.000829855	0	-6.51922e-05	1.2884	1.31864	30.0629	3.70548e-05	2.25946e-05	3.3208e-05	2.87499e-05	6.2245e-06	5.6391e-06	0.176991	0.125267	3.77005	4.98932e-07	4.71295e-07	7.03731e-07	6.17986e-07	4.91294e-07	6.05478e-07	0.159261	0.0203776	0.160559	7.29143	64.7053	505.704	509.827	-82.7086	0.0000000E+000	0.0000000E+000	0.0000000E+000	82.7086	0.0000000E+000	0.0000000E+000	0.0000000E+000	-82.7086	0.0000000E+000	0.0000000E+000	0.0000000E+000	-7.29143	0.0000000E+000	0.0000000E+000	0.0000000E+000	7.29143	7.8155	82.7086	-2.68819e-06
39814.1	6.26175	0.899255	6.32599	-8.17241	802.579	0.399122	-0.00646679	4.4453	0.0898274	2	38	0.0051848	0.000819602	0	-6.54126e-05	1.39406	0.772573	29.7185	2.27124e-05	2.8731e-05	4.50674e-05	3.07789e-05	2.75818e-05	4.77631e-06	0.231003	0.1072	3.87145	7.60346e-07	7.37852e-07	5.48472e-07	1.07609e-06	7.07711e-07	5.99487e-07	0.156473	0.0224711	0.158078	8.17241	89.8274	625.492	631.909	-81.8276	0.0000000E+000	0.0000000E+000	0.0000000E+000	81.8276	0.0000000E+000	0.0000000E+000	0.0000000E+000	-81.8276	0.0000000E+000	0.0000000E+000	0.0000000E+000	-8.17241	0.0000000E+000	0.0000000E+000	0.0000000E+000	8.17241	6.96327	81.8276	-2.20436e-07
31621.1	6.32994	1.02166	6.41186	-9.16855	803.393	0.399135	-0.00654313	4.92647	0.125078	2	38	0.00516369	0.000805334	0	-6.61861e-05	1.79454	0.875373	30.3152	5.00486e-05	3.52178e-05	4.28761e-05	3.31123e-05	3.09583e-05	1.09106e-05	0.18982	0.0791001	3.90917	8.64347e-07	5.11288e-07	4.64466e-07	6.17543e-07	2.25694e-07	7.0489e-07	0.153968	0.0248507	0.155961	9.16855	125.078	774.951	784.98	-80.8315	0.0000000E+000	0.0000000E+000	0.0000000E+000	80.8315	0.0000000E+000	0.0000000E+000	0.0000000E+000	-80.8315	0.0000000E+000	0.0000000E+000	0.0000000E+000	-9.16855	0.0000000E+000	0.0000000E+000	0.0000000E+000	9.16855	6.19573	80.8315	-7.73444e-07
25116.9	6.38719	1.16317	6.49224	-10.321	804.207	0.399101	-0.00704027	5.44768	0.174867	2	38	0.00519851	0.000800726	0	-6.74675e-05	1.64845	1.46866	29.7933	4.00964e-05	1.72435e-05	3.99278e-05	4.5865e-05	2.95343e-05	1.45256e-05	0.239664	0.164512	3.88935	4.41971e-07	6.74749e-07	8.92887e-07	7.03292e-07	9.70588e-07	6.36697e-07	0.151538	0.0275964	0.15403	10.321	174.867	960.229	976.021	-79.679	0.0000000E+000	0.0000000E+000	0.0000000E+000	79.679	0.0000000E+000	0.0000000E+000	0.0000000E+000	-79.679	0.0000000E+000	0.0000000E+000	0.0000000E+000	-10.321	0.0000000E+000	0.0000000E+000	0.0000000E+000	10.321	5.49121	79.679	-1.28146e-06
19948.8	6.44323	1.38997	6.59145	-12.1736	805.021	0.399109	-0.00690062	5.73981	0.255239	2	38	0.00511748	0.000776382	0	-6.98016e-05	1.48565	1.09084	29.89	1.94494e-05	4.30967e-05	4.12193e-05	9.99798e-06	3.09533e-05	1.13645e-05	0.247881	0.0985526	4.08225	3.96144e-07	6.71358e-07	1.4158e-06	4.99074e-07	4.97456e-07	5.82248e-07	0.1483	0.0319922	0.151712	12.1736	255.239	1183.17	1210.38	-77.8264	0.0000000E+000	0.0000000E+000	0.0000000E+000	77.8264	0.0000000E+000	0.0000000E+000	0.0000000E+000	-77.8264	0.0000000E+000	0.0000000E+000	0.0000000E+000	-12.1736	0.0000000E+000	0.0000000E+000	0.0000000E+000	12.1736	4.63551	77.8264	-2.33404e-06
15847.7	6.54829	1.61805	6.74523	-13.8795	805.835	0.399127	-0.00686338	6.20672	0.357152	2	38	0.00513435	0.000761182	0	-7.09807e-05	1.51693	0.894325	29.3448	1.45082e-05	2.51691e-05	1.58417e-05	3.28932e-05	3.4406e-05	5.04523e-05	0.223705	0.0937742	4.17206	6.09944e-07	5.15097e-07	7.79868e-07	6.54822e-07	4.40673e-07	9.93045e-07	0.143924	0.035563	0.148253	13.8795	357.152	1445.4	1488.87	-76.1205	0.0000000E+000	0.0000000E+000	0.0000000E+000	76.1205	0.0000000E+000	0.0000000E+000	0.0000000E+000	-76.1205	0.0000000E+000	0.0000000E+000	0.0000000E+000	-13.8795	0.0000000E+000	0.0000000E+000	0.0000000E+000	13.8795	4.04702	76.1205	-1.17912e-06
12590.9	6.66062	1.95768	6.94236	-16.379	806.65	0.399147	-0.00675167	6.45685	0.513439	2	38	0.00511098	0.000736203	0	-7.19017e-05	1.30195	1.1277	29.9356	1.12185e-05	3.26688e-05	3.74544e-05	2.10066e-05	2.06401e-05	2.34441e-05	0.262268	0.184537	4.32553	6.96616e-07	5.53887e-07	7.32943e-07	7.4741e-07	3.60636e-07	1.13396e-06	0.138198	0.0406188	0.144043	16.379	513.44	1746.88	1820.77	-73.621	0.0000000E+000	0.0000000E+000	0.0000000E+000	73.621	0.0000000E+000	0.0000000E+000	0.0000000E+000	-73.621	0.0000000E+000	0.0000000E+000	0.0000000E+000	-16.379	0.0000000E+000	0.0000000E+000	0.0000000E+000	16.379	3.40231	73.621	-9.20968e-07
10002.2	6.86627	2.26274	7.2295	-18.2393	807.464	0.399129	-0.00684476	7.03217	0.688875	2	38	0.00501703	0.000693966	0	-7.48585e-05	1.73362	0.957629	30.9289	3.39854e-05	3.62658e-05	2.54136e-05	4.70518e-05	2.05475e-05	3.67005e-05	0.292165	0.108987	4.51457	5.15679e-07	4.51714e-07	5.81174e-07	1.55303e-06	5.12624e-07	6.02876e-07	0.131372	0.0432929	0.138322	18.2393	688.875	2090.39	2200.97	-71.7607	0.0000000E+000	0.0000000E+000	0.0000000E+000	71.7607	0.0000000E+000	0.0000000E+000	0.0000000E+000	-71.7607	0.0000000E+000	0.0000000E+000	0.0000000E+000	-18.2393	0.0000000E+000	0.0000000E+000	0.0000000E+000	18.2393	3.0345	71.7607	-2.95686e-06
7944	7.0895	2.67572	7.57762	-20.6775	808.313	0.399017	-0.00679635	7.48757	0.933587	2	38	0.00526935	0.000695383	0	-7.71958e-05	1.61302	0.555236	29.2788	2.29259e-05	2.60264e-05	2.4753e-05	4.3714e-05	3.23337e-05	3.37228e-05	0.209823	0.137428	4.3508	5.8896e-07	3.52612e-07	5.82997e-07	6.40705e-07	5.67376e-07	6.24508e-07	0.123466	0.0465987	0.131967	20.6775	933.587	2473.6	2643.92	-69.3225	0.0000000E+000	0.0000000E+000	0.0000000E+000	69.3225	0.0000000E+000	0.0000000E+000	0.0000000E+000	-69.3225	0.0000000E+000	0.0000000E+000	0.0000000E+000	-20.6775	0.0000000E+000	0.0000000E+000	0.0000000E+000	20.6775	2.64957	69.3225	-2.33731e-06
6307.74	7.34735	3.13985	7.99013	-23.1392	809.212	0.399017	-0.00728418	8.03595	1.24093	2	38	0.00496111	0.000620904	0	-7.99253e-05	1.64221	0.68752	29.282	4.03459e-05	3.20277e-05	1.4233e-05	3.14833e-05	3.54193e-05	3.28402e-05	0.241801	0.141018	4.87172	4.70985e-07	6.03407e-07	4.20313e-07	2.66999e-07	1.00036e-06	6.1241e-07	0.115086	0.0491815	0.125154	23.1392	1240.93	2903.82	3157.86	-66.8608	0.0000000E+000	0.0000000E+000	0.0000000E+000	66.8608	0.0000000E+000	0.0000000E+000	0.0000000E+000	-66.8608	0.0000000E+000	0.0000000E+000	0.0000000E+000	-23.1392	0.0000000E+000	0.0000000E+000	0.0000000E+000	23.1392	2.34003	66.8608	-2.72944e-06
5011.6	7.63428	3.70006	8.48367	-25.8578	809.968	0.399012	-0.00715385	8.58292	1.63262	2	38	0.00526677	0.000620813	0	-8.16589e-05	1.61676	0.594104	28.5686	3.46469e-05	2.59285e-05	1.27315e-05	4.37798e-05	5.43067e-05	1.31667e-05	0.297578	0.141967	5.10838	5.88595e-07	6.95697e-07	8.5267e-07	4.40172e-07	5.13083e-07	1.07603e-06	0.106072	0.0514092	0.117874	25.8578	1632.62	3368.56	3743.35	-64.1422	0.0000000E+000	0.0000000E+000	0.0000000E+000	64.1422	0.0000000E+000	0.0000000E+000	0.0000000E+000	-64.1422	0.0000000E+000	0.0000000E+000	0.0000000E+000	-25.8578	0.0000000E+000	0.0000000E+000	0.0000000E+000	25.8578	2.06329	64.1422	-1.73364e-06
3981.28	7.99526	4.30252	9.07942	-28.2862	810.711	0.399014	-0.00664554	9.29126	2.08643	2	38	0.00543157	0.000598228	0	-8.30198e-05	1.52767	0.991364	28.1815	3.95193e-05	4.3555e-05	1.63944e-05	3.71756e-05	2.56795e-05	2.6393e-05	0.313846	0.154624	5.34724	8.19168e-07	6.51673e-07	1.15977e-06	5.51042e-07	6.29614e-07	4.15154e-07	0.0969876	0.0521923	0.110139	28.2862	2086.43	3877.16	4402.91	-61.7138	0.0000000E+000	0.0000000E+000	0.0000000E+000	61.7138	0.0000000E+000	0.0000000E+000	0.0000000E+000	-61.7138	0.0000000E+000	0.0000000E+000	0.0000000E+000	-28.2862	0.0000000E+000	0.0000000E+000	0.0000000E+000	28.2862	1.85827	61.7138	-1.36092e-06
3163.04	8.35378	4.94622	9.70828	-30.6295	811.454	0.399029	-0.00687269	10.1728	2.64061	2	38	0.00545436	0.000561825	0	-8.41297e-05	1.45628	1.105	28.6433	1.34777e-05	3.07106e-05	2.27515e-05	3.21326e-05	2.74382e-05	4.73015e-05	0.324135	0.210291	5.60607	7.63742e-07	1.07013e-06	4.58886e-07	4.39387e-07	7.19341e-07	4.14274e-07	0.0886336	0.0524794	0.103005	30.6295	2640.61	4459.78	5182.9	-59.3705	0.0000000E+000	0.0000000E+000	0.0000000E+000	59.3705	0.0000000E+000	0.0000000E+000	0.0000000E+000	-59.3705	0.0000000E+000	0.0000000E+000	0.0000000E+000	-30.6295	0.0000000E+000	0.0000000E+000	0.0000000E+000	30.6295	1.68892	59.3705	-1.10983e-06
2512.41	8.73737	5.82178	10.4993	-33.6758	812.197	0.398994	-0.00665113	10.8811	3.34555	2	38	0.00545065	0.000519145	0	-8.57683e-05	1.35445	1.11726	29.1351	4.05951e-05	3.01427e-05	2.08897e-05	1.87994e-05	2.20748e-05	3.41201e-05	0.225001	0.264303	5.95307	6.9183e-07	3.80374e-07	1.84569e-07	5.69491e-07	3.88065e-07	2.09605e-07	0.0792615	0.0528126	0.0952447	33.6758	3345.55	5021.02	6033.51	-56.3242	0.0000000E+000	0.0000000E+000	0.0000000E+000	56.3242	0.0000000E+000	0.0000000E+000	0.0000000E+000	-56.3242	0.0000000E+000	0.0000000E+000	0.0000000E+000	-33.6758	0.0000000E+000	0.0000000E+000	0.0000000E+000	33.6758	1.50081	56.3242	-1.63866e-06
1995.64	9.15304	6.88317	11.4523	-36.9435	812.94	0.399039	-0.00626198	11.5864	4.18541	2	38	0.00543257	0.000474363	0	-8.66935e-05	1.75746	0.834544	27.2453	3.73987e-05	6.04791e-05	2.69498e-05	2.48144e-05	2.61786e-05	4.03679e-05	0.43725	0.308923	6.49193	1.07335e-06	4.6822e-07	6.23503e-07	1.26937e-06	4.07317e-07	6.48848e-07	0.0697873	0.0524807	0.0873183	36.9435	4185.41	5565.64	6963.76	-53.0565	0.0000000E+000	0.0000000E+000	0.0000000E+000	53.0565	0.0000000E+000	0.0000000E+000	0.0000000E+000	-53.0565	0.0000000E+000	0.0000000E+000	0.0000000E+000	-36.9435	0.0000000E+000	0.0000000E+000	0.0000000E+000	36.9435	1.32977	53.0565	-9.25143e-07
1584.49	9.66579	7.99855	12.5461	-39.6081	813.684	0.399032	-0.00550976	12.5579	5.10416	2	38	0.00539274	0.000429834	0	-8.78921e-05	1.27072	0.506724	28.0511	1.93888e-05	2.59724e-05	3.03862e-05	3.6235e-05	2.3868e-05	2.16145e-05	0.43386	0.194282	7.27272	1.4814e-06	2.14148e-07	4.62207e-07	5.39175e-07	6.087e-07	2.67618e-07	0.0614074	0.0508153	0.0797061	39.6081	5104.16	6168.09	8006.11	-50.3919	0.0000000E+000	0.0000000E+000	0.0000000E+000	50.3919	0.0000000E+000	0.0000000E+000	0.0000000E+000	-50.3919	0.0000000E+000	0.0000000E+000	0.0000000E+000	-39.6081	0.0000000E+000	0.0000000E+000	0.0000000E+000	39.6081	1.20844	50.3919	-1.19862e-06
1258.79	10.1417	9.44434	13.8582	-42.9608	814.427	0.399008	-0.00621171	13.3874	6.21762	2	38	0.00534465	0.000385666	0	-8.93986e-05	1.12804	1.21236	27.7498	1.63287e-05	2.53718e-05	1.83733e-05	8.6114e-06	2.45324e-05	3.14312e-05	0.556573	0.195419	8.27228	1.29337e-06	5.60744e-07	4.45314e-07	1.02227e-06	6.72108e-07	7.16781e-07	0.0528077	0.0491765	0.0721594	42.9608	6217.62	6676.73	9123.46	-47.0392	0.0000000E+000	0.0000000E+000	0.0000000E+000	47.0392	0.0000000E+000	0.0000000E+000	0.0000000E+000	-47.0392	0.0000000E+000	0.0000000E+000	0.0000000E+000	-42.9608	0.0000000E+000	0.0000000E+000	0.0000000E+000	42.9608	1.07384	47.0392	-1.50655e-06
999.682	10.7199	11.1883	15.495	-46.2249	815.17	0.399029	-0.00606648	14.2296	7.41893	2	38	0.0053248	0.000343647	0	-9.05178e-05	1.31776	1.04719	28.5435	2.92253e-05	3.18154e-05	3.34668e-05	3.17292e-05	1.52591e-05	1.17765e-05	0.542395	0.143598	9.26701	1.10459e-06	5.9592e-07	3.51321e-07	7.17751e-07	7.27536e-07	7.41515e-07	0.0446487	0.0465997	0.0645371	46.2249	7418.93	7108.32	10274.7	-43.7751	0.0000000E+000	0.0000000E+000	0.0000000E+000	43.7751	0.0000000E+000	0.0000000E+000	0.0000000E+000	-43.7751	0.0000000E+000	0.0000000E+000	0.0000000E+000	-46.2249	0.0000000E+000	0.0000000E+000	0.0000000E+000	46.2249	0.958133	43.7751	-1.11917e-06
794.239	11.3167	13.2965	17.4604	-49.5987	815.913	0.398991	-0.00532544	15.0706	8.73974	2	38	0.00529088	0.000303022	0	-9.1834e-05	1.19606	0.91641	28.5935	4.00748e-05	1.72065e-05	1.20256e-05	9.67661e-06	1.54422e-05	3.81562e-05	0.744249	0.367559	10.3963	1.5841e-06	5.83606e-07	7.34975e-07	7.88667e-07	7.81903e-07	3.82366e-07	0.0371204	0.0436144	0.0572725	49.5987	8739.74	7438.43	11476.6	-40.4013	0.0000000E+000	0.0000000E+000	0.0000000E+000	40.4013	0.0000000E+000	0.0000000E+000	0.0000000E+000	-40.4013	0.0000000E+000	0.0000000E+000	0.0000000E+000	-49.5987	0.0000000E+000	0.0000000E+000	0.0000000E+000	49.5987	0.851105	40.4013	-1.31617e-06
631.01	11.8688	16.0199	19.9376	-53.466	816.656	0.399038	-0.0054595	15.7443	10.1648	2	38	0.00527081	0.000264365	0	-9.27758e-05	1.7814	0.57284	28.781	3.20905e-05	4.46472e-05	3.24518e-05	3.15698e-05	4.68341e-05	2.25963e-05	0.929314	0.202499	12.011	1.73003e-06	9.15471e-07	7.55825e-07	4.82175e-07	7.77806e-07	6.72281e-07	0.0298581	0.0403009	0.0501565	53.466	10164.8	7530.89	12650.6	-36.534	0.0000000E+000	0.0000000E+000	0.0000000E+000	36.534	0.0000000E+000	0.0000000E+000	0.0000000E+000	-36.534	0.0000000E+000	0.0000000E+000	0.0000000E+000	-53.466	0.0000000E+000	0.0000000E+000	0.0000000E+000	53.466	0.740879	36.534	-9.41855e-07
501.122	12.4441	19.3271	22.9868	-57.2239	817.399	0.399058	-0.00312277	16.4327	11.6168	2	38	0.00523713	0.000227832	0	-9.3395e-05	1.90925	0.6407	28.433	2.48294e-05	3.70285e-05	3.47407e-05	4.42195e-05	4.88714e-05	3.34739e-05	1.04751	0.296743	13.8834	1.50395e-06	8.35178e-07	7.60925e-07	1.15929e-06	3.80008e-07	6.67295e-07	0.0235508	0.0365772	0.0435033	57.2239	11616.8	7479.67	13816.5	-32.7761	0.0000000E+000	0.0000000E+000	0.0000000E+000	32.7761	0.0000000E+000	0.0000000E+000	0.0000000E+000	-32.7761	0.0000000E+000	0.0000000E+000	0.0000000E+000	-57.2239	0.0000000E+000	0.0000000E+000	0.0000000E+000	57.2239	0.643866	32.7761	-6.19132e-07
398.089	13.3486	23.3957	26.9359	-60.2926	818.144	0.399077	-0.00155688	17.0885	12.8918	2	38	0.00522411	0.000193946	0	-9.42169e-05	1.53096	1.81102	29.8111	4.05904e-05	3.84443e-05	3.58471e-05	2.22098e-05	1.27287e-05	2.62631e-05	1.55702	0.615412	16.2467	2.13477e-06	5.71234e-07	6.81228e-07	1.4366e-06	8.67321e-07	5.32365e-07	0.0183981	0.0322457	0.0371252	60.2926	12891.8	7355.52	14842.5	-29.7074	0.0000000E+000	0.0000000E+000	0.0000000E+000	29.7074	0.0000000E+000	0.0000000E+000	0.0000000E+000	-29.7074	0.0000000E+000	0.0000000E+000	0.0000000E+000	-60.2926	0.0000000E+000	0.0000000E+000	0.0000000E+000	60.2926	0.57056	29.7074	-8.21943e-07
316.316	14.1767	28.9368	32.2229	-63.8988	819.138	0.399054	-0.000591221	17.388	14.0223	2	39	0.00544413	0.000168952	0	-9.46992e-05	1.37409	0.838383	26.9262	3.20294e-05	1.17423e-05	3.20657e-05	2.35971e-05	2.68008e-05	4.08945e-05	0.676785	0.255244	8.22458	8.72527e-07	2.72859e-07	2.37293e-07	4.5636e-07	1.18186e-07	3.12392e-07	0.0136536	0.0278689	0.0310338	63.8988	14022.3	6869.82	15614.7	-26.1012	0.0000000E+000	0.0000000E+000	0.0000000E+000	26.1012	0.0000000E+000	0.0000000E+000	0.0000000E+000	-26.1012	0.0000000E+000	0.0000000E+000	0.0000000E+000	-63.8988	0.0000000E+000	0.0000000E+000	0.0000000E+000	63.8988	0.489921	26.1012	-4.82287e-07
251.206	15.2618	34.9147	38.1046	-66.389	819.881	0.399079	-0.000498406	18.146	15.235	2	39	0.00534508	0.000140274	0	-9.49442e-05	1.13957	0.508189	26.7348	2.48775e-05	2.73643e-05	2.67182e-05	1.51979e-05	2.38177e-05	2.21742e-05	0.754617	0.171911	9.85246	5.97153e-07	3.56655e-07	4.38296e-07	5.29701e-07	1.74519e-07	2.95884e-07	0.0105112	0.0240466	0.0262435	66.389	15235	6659.5	16626.9	-23.611	0.0000000E+000	0.0000000E+000	0.0000000E+000	23.611	0.0000000E+000	0.0000000E+000	0.0000000E+000	-23.611	0.0000000E+000	0.0000000E+000	0.0000000E+000	-66.389	0.0000000E+000	0.0000000E+000	0.0000000E+000	66.389	0.437117	23.611	-2.44956e-07
199.553	16.1398	42.6631	45.614	-69.2779	820.627	0.399011	-0.000383783	18.6943	16.3538	2	39	0.00527885	0.000115729	0	-9.49356e-05	1.83341	0.862928	26.9791	4.28892e-05	5.53927e-05	3.31333e-05	3.66163e-05	1.8978e-05	1.75336e-05	0.819803	0.385378	11.9627	6.27942e-07	3.61372e-07	2.56406e-07	2.21244e-07	3.20998e-07	3.21624e-07	0.00775716	0.0205048	0.0219231	69.2779	16353.8	6186.76	17484.9	-20.7221	0.0000000E+000	0.0000000E+000	0.0000000E+000	20.7221	0.0000000E+000	0.0000000E+000	0.0000000E+000	-20.7221	0.0000000E+000	0.0000000E+000	0.0000000E+000	-69.2779	0.0000000E+000	0.0000000E+000	0.0000000E+000	69.2779	0.378308	20.722	8.57325e-09
158.529	17.3466	52.4708	55.2639	-71.7063	821.373	0.399055	-0.000667079	19.1335	17.2483	2	39	0.00526342	9.52416e-05	0	-9.49282e-05	1.87484	0.779716	28.2946	4.63666e-05	3.18443e-05	3.0987e-05	3.96797e-05	3.49487e-05	3.59115e-05	1.11889	0.452394	14.4757	5.04079e-07	3.76985e-07	3.02341e-07	4.46544e-07	3.50684e-07	4.38333e-07	0.0056798	0.0171805	0.018095	71.7063	17248.3	5702.23	18166.5	-18.2937	0.0000000E+000	0.0000000E+000	0.0000000E+000	18.2937	0.0000000E+000	0.0000000E+000	0.0000000E+000	-18.2937	0.0000000E+000	0.0000000E+000	0.0000000E+000	-71.7063	0.0000000E+000	0.0000000E+000	0.0000000E+000	71.7063	0.330596	18.2937	7.43281e-09
125.927	18.7626	64.9226	67.5794	-73.8808	822.115	0.399046	-0.000732872	19.4673	17.9667	2	39	0.00526868	7.79628e-05	0	-9.5135e-05	1.44779	0.871095	28.1069	3.33963e-05	3.13747e-05	3.80013e-05	3.34492e-05	1.65623e-05	2.26244e-05	1.35382	0.423617	18.1462	8.02499e-07	3.08376e-07	2.8597e-07	3.33043e-07	1.87032e-07	2.20655e-07	0.00410831	0.0142157	0.0147974	73.8808	17966.7	5192.37	18702	-16.1192	0.0000000E+000	0.0000000E+000	0.0000000E+000	16.1192	0.0000000E+000	0.0000000E+000	0.0000000E+000	-16.1192	0.0000000E+000	0.0000000E+000	0.0000000E+000	-73.8808	0.0000000E+000	0.0000000E+000	0.0000000E+000	73.8808	0.288999	16.1192	-2.06844e-07
99.9682	20.7494	79.9917	82.639	-75.4583	822.846	0.399023	-0.000445848	19.9028	18.648	2	39	0.0052513	6.3545e-05	0	-9.52144e-05	1.51638	0.816291	27.5417	3.32637e-05	3.74102e-05	3.27742e-05	3.79741e-05	1.55093e-05	2.16947e-05	1.30518	0.727147	21.7643	5.79658e-07	2.62741e-07	2.43772e-07	1.71177e-07	2.37372e-07	2.99326e-07	0.00303833	0.0117132	0.0121008	75.4583	18648	4837.19	19265.2	-14.5417	0.0000000E+000	0.0000000E+000	0.0000000E+000	14.5417	0.0000000E+000	0.0000000E+000	0.0000000E+000	-14.5417	0.0000000E+000	0.0000000E+000	0.0000000E+000	-75.4583	0.0000000E+000	0.0000000E+000	0.0000000E+000	75.4583	0.259394	14.5417	-7.93598e-08