File: Python/Data/GoldElectrode/240308/240308-CV_Activation-0p5H2SO4-Ag_AgCl_BLF8-Au_RDE-Initial-C15_C15.mpt
EC-Lab ASCII FILE
Nb header lines : 59

Cyclic Voltammetry

Run on channel : 15 (SN 19485)
User :
Electrode connection : standard
Potential control : Ewe
Ewe ctrl range : min = -2.50 V, max = 2.50 V
Ewe,I filtering : <None>
Safety Limits :
	Do not start on E overload
Channel : Floating
Acquisition started on : 03/08/2024 16:03:14.034
Loaded Setting File :  C:\Data\mathias\RDE-RPM-variation\240219-CV-EIS-Fe2Fe3_5mM-HCl1M-0RPM-Ag_AgCl_BLF8-GC-RDE_01_CV_C15.mpr
Saved on :
	File : 240308-CV_Activation-0p5H2SO4-Ag_AgCl_BLF8-Au_RDE-Initial-C15_C15.mpr
	Directory : C:\Data\mathias\GoldElectrode\
	Host : 192.168.0.1
Device : VMP-300 (SN 0826)
Address : USB
EC-Lab for windows v11.52 (software)
Internet server v11.52 (firmware)
Command interpretor v11.52 (firmware)
Electrode material :
Initial state :
Electrolyte :
Comments :
Cable : special
Electrode surface area : 0.001 cm²
Characteristic mass : 0.001 g
Equivalent Weight : 0.000 g/eq.
Density : 0.000 g/cm3
Volume (V) : 0.001 cm³
Cycle Definition : Charge/Discharge alternance
Ei (V)              0.000
vs.                 Eoc
dE/dt               20.000
dE/dt unit          mV/s
E1 (V)              1.500
vs.                 Ref
Step percent        50
N                   10
E range min (V)     -2.500
E range max (V)     2.500
I Range             Auto
I Range min         Unset
I Range max         Unset
I Range init        Unset
Bandwidth           8
E2 (V)              -0.300
vs.                 Ref
nc cycles           0
Reverse Scan        1
Ef (V)              0.000
vs.                 Eoc

mode	ox/red	error	control changes	counter inc.	time/s	control/V	Ewe/V	<I>/mA	cycle number	(Q-Qo)/C	I Range	step time/s	P/W
2	1	1	0	0	0.000000000000000E+000	0.391809	0.391456	0.000185866	1	0.0000000E+000	43	0.000000000000000E+000	7.27584e-08
2	1	0	1	0	0.3274	0.398355	0.398008	0.000259486	1	7.61107e-08	43	0.2999	1.03278e-07
2	1	0	1	0	0.6773	0.405352	0.405123	0.000287972	1	1.71768e-07	43	0.6498	1.16664e-07
2	1	0	1	0	1.0271	0.412348	0.411847	0.000312142	1	2.7668e-07	43	0.9996	1.28555e-07
2	1	0	1	0	1.3769	0.419345	0.419069	0.000333071	1	3.89412e-07	43	1.3494	1.39579e-07
2	1	0	1	0	1.7267	0.426341	0.42602	0.000354034	1	5.09778e-07	43	1.6992	1.50826e-07
2	1	0	1	0	2.0765	0.433338	0.433007	0.000377291	1	6.37654e-07	43	2.049	1.6337e-07
2	1	0	1	0	2.4263	0.440334	0.439872	0.000399912	1	7.73732e-07	43	2.3988	1.7591e-07
2	1	0	1	0	2.7761	0.447331	0.446849	0.000427555	1	9.18543e-07	43	2.7486	1.91052e-07
2	1	0	1	0	3.126	0.454328	0.454133	0.000455278	1	1.0729e-06	43	3.0985	2.06757e-07
2	1	0	1	0	3.4759	0.461324	0.46146	0.000487419	1	1.23726e-06	43	3.4484	2.24924e-07
2	1	0	1	0	3.8257	0.46832	0.46803	0.000518452	1	1.41296e-06	43	3.7982	2.42651e-07
2	1	0	1	0	4.1755	0.475316	0.474937	0.000553708	1	1.60076e-06	43	4.148	2.62976e-07
2	1	0	1	0	4.5253	0.482313	0.481965	0.000593435	1	1.80148e-06	43	4.4978	2.86015e-07
2	1	0	1	0	4.8751	0.489309	0.48884	0.000632124	1	2.016e-06	43	4.8476	3.09008e-07
2	1	0	1	0	5.2249	0.496306	0.495852	0.000677363	1	2.24546e-06	43	5.1974	3.35872e-07
2	1	0	1	0	5.5747	0.503302	0.503306	0.000722761	1	2.49008e-06	43	5.5472	3.6377e-07
2	1	0	1	0	5.9246	0.510299	0.510091	0.000768108	1	2.75043e-06	43	5.8971	3.91805e-07
2	1	0	1	0	6.2745	0.517295	0.517066	0.000811694	1	3.0264e-06	43	6.247	4.197e-07
2	1	0	1	0	6.6243	0.524292	0.523955	0.000854259	1	3.3184e-06	43	6.5968	4.47594e-07
2	1	0	1	0	6.9741	0.531288	0.530904	0.000898648	1	3.62573e-06	43	6.9466	4.77096e-07
2	1	0	1	0	7.3239	0.538285	0.538066	0.000940521	1	3.94758e-06	43	7.2964	5.06062e-07
2	1	0	1	0	7.6737	0.545281	0.545043	0.00097623	1	4.28339e-06	43	7.6462	5.32087e-07
2	1	0	1	0	8.0235	0.552278	0.551772	0.00101092	1	4.63226e-06	43	7.996	5.578e-07
2	1	0	1	0	8.3733	0.559274	0.559179	0.00104704	1	4.99314e-06	43	8.3458	5.85482e-07
2	1	0	1	0	8.7232	0.566272	0.566253	0.00107792	1	5.36506e-06	43	8.6957	6.10378e-07
2	1	0	1	0	9.103	0.573867	0.573461	0.00109005	1	5.77956e-06	42	9.0755	6.25102e-07
2	1	0	1	0	9.4529	0.580864	0.580518	0.00111744	1	6.17115e-06	42	9.4254	6.48695e-07
2	1	0	1	0	9.8027	0.58786	0.587808	0.00113752	1	6.5704e-06	42	9.7752	6.68645e-07
2	1	0	1	0	10.1525	0.594857	0.594568	0.0011534	1	6.97628e-06	42	10.125	6.85776e-07
2	1	0	1	0	10.5023	0.601853	0.601099	0.00116908	1	7.38809e-06	42	10.4748	7.02731e-07
2	1	0	1	0	10.8521	0.608849	0.608245	0.00118447	1	7.80488e-06	42	10.8246	7.20449e-07
2	1	0	1	0	11.2019	0.615846	0.615339	0.00119544	1	8.22598e-06	42	11.1744	7.35601e-07
2	1	0	1	0	11.5517	0.622842	0.622219	0.00120491	1	8.65053e-06	42	11.5242	7.49716e-07
2	1	0	1	0	11.9016	0.629839	0.629528	0.0012106	1	9.07828e-06	42	11.8741	7.62106e-07
2	1	0	1	0	12.2515	0.636835	0.636465	0.00121326	1	9.50826e-06	42	12.224	7.72197e-07
2	1	0	1	0	12.6013	0.643832	0.64349	0.00122148	1	9.94034e-06	42	12.5738	7.86012e-07
2	1	0	1	0	12.9511	0.650828	0.650358	0.00123437	1	1.03748e-05	42	12.9236	8.02784e-07
2	1	0	1	0	13.3009	0.657825	0.657578	0.00123775	1	1.08118e-05	42	13.2734	8.13918e-07
2	1	0	1	0	13.6507	0.664822	0.664564	0.00124747	1	1.12515e-05	42	13.6232	8.29024e-07
2	1	0	1	0	14.0005	0.671818	0.671456	0.00125588	1	1.16946e-05	42	13.973	8.43265e-07
2	1	0	1	0	14.3503	0.678814	0.678429	0.0012712	1	1.21415e-05	42	14.3228	8.62418e-07
2	1	0	1	0	14.7002	0.685811	0.685722	0.00128137	1	1.25931e-05	42	14.6727	8.78666e-07
2	1	0	1	0	15.0501	0.692807	0.692233	0.0012973	1	1.30502e-05	42	15.0226	8.98032e-07
2	1	0	1	0	15.3999	0.699804	0.699393	0.00131765	1	1.35134e-05	42	15.3724	9.21556e-07
2	1	0	1	0	15.7497	0.7068	0.706387	0.0013384	1	1.39834e-05	42	15.7222	9.45427e-07
2	1	0	1	0	16.0995	0.713797	0.713436	0.00135654	1	1.446e-05	42	16.072	9.67802e-07
2	1	0	1	0	16.4493	0.720793	0.720688	0.00137349	1	1.49431e-05	42	16.4218	9.8986e-07
2	1	0	1	0	16.7991	0.72779	0.727588	0.00138913	1	1.5432e-05	42	16.7716	1.01072e-06
2	1	0	1	0	17.1489	0.734786	0.734255	0.00140266	1	1.59262e-05	42	17.1214	1.02991e-06
2	1	0	1	0	17.4988	0.741784	0.741546	0.00141474	1	1.64248e-05	42	17.4713	1.0491e-06
2	1	0	1	0	17.8487	0.748779	0.748476	0.00142263	1	1.69268e-05	42	17.8212	1.06481e-06
2	1	0	1	0	18.1985	0.755776	0.755055	0.00142749	1	1.74308e-05	42	18.171	1.07783e-06
2	1	0	1	0	18.5483	0.762772	0.762277	0.00142808	1	1.79353e-05	42	18.5208	1.08859e-06
2	1	0	1	0	18.8981	0.769769	0.76937	0.00142169	1	1.84392e-05	42	18.8706	1.0938e-06
2	1	0	1	0	19.2479	0.776765	0.776368	0.00141658	1	1.89417e-05	42	19.2204	1.09979e-06
2	1	0	1	0	19.5977	0.783762	0.783684	0.00140732	1	1.94418e-05	42	19.5702	1.10289e-06
2	1	0	1	0	19.9475	0.790758	0.790749	0.0013991	1	1.9939e-05	42	19.92	1.10634e-06
2	1	0	1	0	20.2974	0.797757	0.797505	0.00138732	1	2.04329e-05	42	20.2699	1.1064e-06
2	1	0	1	0	20.6473	0.804751	0.804451	0.00137777	1	2.09233e-05	42	20.6198	1.10835e-06
2	1	0	1	0	20.9971	0.811748	0.811721	0.00136543	1	2.14099e-05	42	20.9696	1.10835e-06
2	1	0	1	0	21.3469	0.818744	0.818482	0.00135528	1	2.18928e-05	42	21.3194	1.10927e-06
2	1	0	1	0	21.6967	0.825741	0.825584	0.00134536	1	2.23718e-05	42	21.6692	1.11071e-06
2	1	0	1	0	22.0465	0.832737	0.832596	0.00133546	1	2.28472e-05	42	22.019	1.1119e-06
2	1	0	1	0	22.3963	0.839734	0.839448	0.00132191	1	2.33186e-05	42	22.3688	1.10968e-06
2	1	0	1	0	22.7461	0.84673	0.846224	0.0013127	1	2.37863e-05	42	22.7186	1.11083e-06
2	1	0	1	0	23.0959	0.853727	0.853389	0.00130077	1	2.42503e-05	42	23.0684	1.11006e-06
2	1	0	1	0	23.4458	0.860721	0.860258	0.00129096	1	2.47111e-05	42	23.4183	1.11056e-06
2	1	0	1	0	23.7957	0.86772	0.867307	0.00127916	1	2.51683e-05	42	23.7682	1.10942e-06
2	1	0	1	0	24.1455	0.874716	0.874569	0.00126873	1	2.56223e-05	42	24.118	1.10959e-06
2	1	0	1	0	24.4953	0.881713	0.881552	0.00126446	1	2.60733e-05	42	24.4678	1.11469e-06
2	1	0	1	0	24.8451	0.888709	0.888317	0.0012563	1	2.65217e-05	42	24.8176	1.11599e-06
2	1	0	1	0	25.1949	0.895706	0.895167	0.00125165	1	2.69682e-05	42	25.1674	1.12044e-06
2	1	0	1	0	25.5447	0.902702	0.902382	0.00124803	1	2.74135e-05	42	25.5172	1.1262e-06
2	1	0	1	0	25.8945	0.909699	0.909208	0.00124819	1	2.78591e-05	42	25.867	1.13486e-06
2	1	0	1	0	26.2444	0.916693	0.916587	0.00125445	1	2.8306e-05	42	26.2169	1.14981e-06
2	1	0	1	0	26.5943	0.923692	0.923339	0.0012666	1	2.87563e-05	42	26.5668	1.1695e-06
2	1	0	1	0	26.9441	0.930688	0.930653	0.00128665	1	2.92121e-05	42	26.9166	1.19742e-06
2	1	0	1	0	27.2939	0.937684	0.937353	0.001314	1	2.96762e-05	42	27.2664	1.23168e-06
2	1	0	1	0	27.6437	0.944681	0.944086	0.00135698	1	3.01525e-05	42	27.6162	1.28111e-06
2	1	0	1	0	27.9935	0.951677	0.951563	0.00141176	1	3.06456e-05	42	27.966	1.34338e-06
2	1	0	1	0	28.3433	0.958674	0.958554	0.0014863	1	3.11612e-05	42	28.3158	1.4247e-06
2	1	0	1	0	28.6931	0.96567	0.965343	0.00157718	1	3.17059e-05	42	28.6656	1.52252e-06
2	1	0	1	0	29.043	0.972666	0.972579	0.00169941	1	3.22888e-05	42	29.0155	1.65281e-06
2	1	0	1	0	29.3929	0.979663	0.979124	0.00185128	1	3.29193e-05	42	29.3654	1.81264e-06
2	1	0	1	0	29.7427	0.98666	0.986424	0.00204321	1	3.36094e-05	42	29.7152	2.01547e-06
2	1	0	1	0	30.0925	0.993656	0.993222	0.00227326	1	3.43731e-05	42	30.065	2.25786e-06
2	1	0	1	0	30.4423	1.00065	1.00045	0.00255787	1	3.5227e-05	42	30.4148	2.55903e-06
2	1	0	1	0	30.7921	1.00765	1.00754	0.00289692	1	3.61894e-05	42	30.7646	2.91877e-06
2	1	0	1	0	31.1419	1.01465	1.01432	0.00330131	1	3.72818e-05	42	31.1144	3.34859e-06
2	1	0	1	0	31.4917	1.02164	1.02132	0.00377377	1	3.85272e-05	42	31.4642	3.85422e-06
2	1	0	1	0	31.8416	1.02864	1.0283	0.00432336	1	3.99521e-05	42	31.8141	4.44571e-06
2	1	0	1	0	32.1915	1.03564	1.03533	0.00495196	1	4.15828e-05	42	32.164	5.12693e-06
2	1	0	1	0	32.5413	1.04263	1.04232	0.00566167	1	4.34473e-05	42	32.5138	5.90127e-06
2	1	0	1	0	32.8911	1.04963	1.0495	0.00644751	1	4.5573e-05	42	32.8636	6.7667e-06
2	1	0	1	0	33.2409	1.05662	1.05651	0.00729674	1	4.79855e-05	42	33.2134	7.70908e-06
2	1	0	1	0	33.5907	1.06362	1.06334	0.00821141	1	5.07074e-05	42	33.5632	8.73147e-06
2	1	0	1	0	33.9405	1.07062	1.07048	0.00916108	1	5.37558e-05	42	33.913	9.80674e-06
2	1	0	1	0	34.2903	1.07761	1.07752	0.0101388	1	5.71417e-05	42	34.2628	1.09247e-05
2	1	0	1	0	34.6701	1.08521	1.08482	0.0111828	1	6.1207e-05	41	34.6426	1.21313e-05
2	1	0	1	0	35.02	1.09221	1.09188	0.0121278	1	6.53064e-05	41	34.9925	1.32422e-05
2	1	0	1	0	35.3699	1.0992	1.09896	0.0130454	1	6.97314e-05	41	35.3424	1.43364e-05
2	1	0	1	0	35.7197	1.1062	1.106	0.013907	1	7.44679e-05	41	35.6922	1.53811e-05
2	1	0	1	0	36.0695	1.1132	1.11286	0.0147371	1	7.94984e-05	41	36.042	1.64003e-05
2	1	0	1	0	36.4193	1.12019	1.11994	0.0155454	1	8.48071e-05	41	36.3918	1.74099e-05
2	1	0	1	0	36.7691	1.12719	1.12691	0.0162762	1	9.03983e-05	41	36.7416	1.83417e-05
2	1	0	1	0	37.1189	1.13419	1.13369	0.0168996	1	9.62192e-05	41	37.0914	1.91589e-05
2	1	0	1	0	37.4687	1.14118	1.141	0.0173515	1	0.000102223	41	37.4412	1.97981e-05
2	1	0	1	0	37.8186	1.14818	1.14802	0.0178441	1	0.000108404	41	37.7911	2.04854e-05
2	1	0	1	0	38.1685	1.15518	1.1548	0.0182736	1	0.000114743	41	38.141	2.11024e-05
2	1	0	1	0	38.5183	1.16217	1.16212	0.0185834	1	0.00012121	41	38.4908	2.15962e-05
2	1	0	1	0	38.8681	1.16917	1.16887	0.0188311	1	0.000127773	41	38.8406	2.20111e-05
2	1	0	1	0	39.2179	1.17616	1.17554	0.018985	1	0.000134406	41	39.1904	2.23176e-05
2	1	0	1	0	39.5677	1.18316	1.18292	0.01904	1	0.000141075	41	39.5402	2.25228e-05
2	1	0	1	0	39.9175	1.19016	1.1898	0.0189582	1	0.00014774	41	39.89	2.25564e-05
2	1	0	1	0	40.2673	1.19715	1.19671	0.0187645	1	0.000154366	41	40.2398	2.24557e-05
2	1	0	1	0	40.6172	1.20415	1.20378	0.01849	1	0.000160912	41	40.5897	2.2258e-05
2	1	0	1	0	40.9671	1.21115	1.21086	0.0181544	1	0.000167355	41	40.9396	2.19823e-05
2	1	0	1	0	41.3169	1.21814	1.21784	0.0176384	1	0.000173634	41	41.2894	2.14807e-05
2	1	0	1	0	41.6667	1.22514	1.22496	0.0170781	1	0.000179723	41	41.6392	2.09199e-05
2	1	0	1	0	42.0165	1.23214	1.2318	0.0164402	1	0.000185601	41	41.989	2.0251e-05
2	1	0	1	0	42.3663	1.23913	1.23897	0.0157461	1	0.00019125	41	42.3388	1.95089e-05
2	1	0	1	0	42.7161	1.24613	1.24577	0.0150976	1	0.000196672	41	42.6886	1.88082e-05
2	1	0	1	0	43.0659	1.25313	1.25302	0.0143586	1	0.00020184	41	43.0384	1.79917e-05
2	1	0	1	0	43.4158	1.26012	1.25939	0.0137155	1	0.000206763	41	43.3883	1.72733e-05
2	1	0	1	0	43.7657	1.26712	1.26656	0.0128407	1	0.000211407	41	43.7382	1.62635e-05
2	1	0	1	0	44.1155	1.27412	1.27359	0.0122522	1	0.000215805	41	44.088	1.56043e-05
2	1	0	1	0	44.4653	1.28111	1.28087	0.0118069	1	0.000220022	41	44.4378	1.51231e-05
2	1	0	1	0	44.8151	1.28811	1.28793	0.0115174	1	0.00022411	41	44.7876	1.48336e-05
2	1	0	1	0	45.1649	1.29511	1.29479	0.0113798	1	0.000228124	41	45.1374	1.47344e-05
2	1	0	1	0	45.5147	1.3021	1.30193	0.011396	1	0.000232118	41	45.4872	1.48368e-05
2	1	0	1	0	45.8645	1.3091	1.30886	0.0115849	1	0.00023615	41	45.837	1.5163e-05
2	1	0	1	0	46.2144	1.3161	1.31565	0.0119272	1	0.000240274	41	46.1869	1.56921e-05
2	1	0	1	0	46.5643	1.32309	1.32276	0.0123874	1	0.000244536	41	46.5368	1.63855e-05
2	1	0	1	0	46.9141	1.33009	1.32987	0.0129134	1	0.000248972	41	46.8866	1.7173e-05
2	1	0	1	0	47.2639	1.33708	1.33665	0.013488	1	0.000253599	41	47.2364	1.80288e-05
2	1	0	1	0	47.6137	1.34408	1.34374	0.0141106	1	0.000258438	41	47.5862	1.89609e-05
2	1	0	1	0	47.9635	1.35108	1.35074	0.0146453	1	0.000263482	41	47.936	1.9782e-05
2	1	0	1	0	48.3133	1.35807	1.35786	0.0148476	1	0.000268676	41	48.2858	2.0161e-05
2	1	0	1	0	48.6631	1.36507	1.36437	0.0150911	1	0.000273919	41	48.6356	2.05898e-05
2	1	0	1	0	49.013	1.37207	1.37163	0.0153172	1	0.000279253	41	48.9855	2.10095e-05
2	1	0	1	0	49.3629	1.37906	1.37874	0.0154692	1	0.000284648	41	49.3354	2.1328e-05
2	1	0	1	0	49.7127	1.38606	1.38581	0.015557	1	0.000290083	41	49.6852	2.15591e-05
2	1	0	1	0	50.0625	1.39306	1.39244	0.0156107	1	0.000295544	41	50.035	2.17369e-05
2	1	0	1	0	50.4123	1.40005	1.39958	0.0156595	1	0.000301022	41	50.3848	2.19168e-05
2	1	0	1	0	50.7621	1.40705	1.40685	0.0156987	1	0.000306516	41	50.7346	2.20857e-05
2	1	0	1	0	51.1119	1.41405	1.41398	0.0157712	1	0.000312027	41	51.0844	2.23002e-05
2	1	0	1	0	51.4617	1.42104	1.42054	0.0158454	1	0.000317563	41	51.4342	2.2509e-05
2	1	0	1	0	51.8116	1.42804	1.42783	0.0159503	1	0.000323133	41	51.7841	2.27744e-05
2	1	0	1	0	52.1615	1.43504	1.43453	0.0160906	1	0.000328745	41	52.134	2.30824e-05
2	1	0	1	0	52.5113	1.44203	1.44165	0.0162498	1	0.00033441	41	52.4838	2.34266e-05
2	1	0	1	0	52.8611	1.44903	1.44858	0.0164262	1	0.000340132	41	52.8336	2.37947e-05
2	1	0	1	0	53.2109	1.45602	1.45588	0.0166124	1	0.000345918	41	53.1834	2.41856e-05
2	1	0	1	0	53.5607	1.46302	1.46259	0.0168336	1	0.000351773	41	53.5332	2.46205e-05
2	1	0	1	0	53.9105	1.47002	1.46997	0.0170352	1	0.000357703	41	53.883	2.50413e-05
2	1	0	1	0	54.2603	1.47701	1.4768	0.0172156	1	0.000363707	41	54.2328	2.5424e-05
2	1	0	1	0	54.6102	1.48401	1.48377	0.0174012	1	0.000369771	41	54.5827	2.58194e-05
2	1	0	1	0	54.96	1.49101	1.49058	0.0175756	1	0.000375901	41	54.9325	2.61977e-05
2	1	0	1	0	55.3099	1.498	1.49773	0.0177202	1	0.000382084	41	55.2824	2.654e-05
2	1	0	1	0	55.5851	1.4964	1.49618	0.0158669	1	0.00038678	41	55.5576	2.37397e-05
2	1	0	1	0	55.9349	1.48941	1.48936	0.013024	1	0.000391804	41	55.9074	1.93974e-05
2	1	0	1	0	56.2847	1.48241	1.48195	0.0108271	1	0.000395956	41	56.2572	1.60452e-05
2	1	0	1	0	56.6346	1.47541	1.47492	0.00910693	1	0.000399425	41	56.6071	1.3432e-05
2	1	0	1	0	56.9845	1.46842	1.46793	0.00771258	1	0.000402355	41	56.957	1.13216e-05
2	1	0	1	0	57.3343	1.46142	1.4609	0.00661117	1	0.000404849	41	57.3068	9.65828e-06
2	1	0	1	0	57.6841	1.45443	1.45399	0.0056859	1	0.00040699	41	57.6566	8.26726e-06
2	1	0	1	0	58.0339	1.44743	1.44692	0.00494678	1	0.00040884	41	58.0064	7.15761e-06
2	1	0	1	0	58.4137	1.43983	1.43956	0.00424683	1	0.000410577	42	58.3862	6.11356e-06
2	1	0	1	0	58.7635	1.43284	1.43237	0.00371929	1	0.000411965	42	58.736	5.32738e-06
2	1	0	1	0	59.1133	1.42584	1.42538	0.0032544	1	0.000413179	42	59.0858	4.63877e-06
2	1	0	1	0	59.4631	1.41884	1.41844	0.00286702	1	0.000414246	42	59.4356	4.06669e-06
2	1	0	1	0	59.813	1.41185	1.41124	0.00253355	1	0.000415187	42	59.7855	3.57544e-06
2	1	0	1	0	60.1629	1.40485	1.40412	0.00224724	1	0.00041602	42	60.1354	3.1554e-06
2	1	0	1	0	60.5127	1.39785	1.39735	0.0019964	1	0.000416759	42	60.4852	2.78966e-06
2	1	0	1	0	60.8625	1.39086	1.39032	0.00177818	1	0.000417416	42	60.835	2.47223e-06
2	1	0	1	0	61.2123	1.38386	1.38337	0.00158254	1	0.000418001	42	61.1848	2.18925e-06
2	1	0	1	0	61.5621	1.37686	1.37627	0.00141728	1	0.000418524	42	61.5346	1.95056e-06
2	1	0	1	0	61.9119	1.36987	1.36943	0.00126637	1	0.00041899	42	61.8844	1.73421e-06
2	1	0	1	0	62.2617	1.36287	1.36255	0.00113145	1	0.000419407	42	62.2342	1.54166e-06
2	1	0	1	0	62.6116	1.35587	1.3551	0.0010176	1	0.000419781	42	62.5841	1.37896e-06
2	1	0	1	0	62.9615	1.34888	1.34857	0.000912425	1	0.000420116	42	62.934	1.23047e-06
2	1	0	1	0	63.3113	1.34188	1.34152	0.000819106	1	0.000420417	42	63.2838	1.09885e-06
2	1	0	1	0	63.6611	1.33489	1.3348	0.000737571	1	0.000420687	42	63.6336	9.84509e-07
2	1	0	1	0	64.0109	1.32789	1.32784	0.000663405	1	0.000420931	42	63.9834	8.80894e-07
2	1	0	1	0	64.3607	1.32089	1.32057	0.000601495	1	0.00042115	42	64.3332	7.94314e-07
2	1	0	1	0	64.7105	1.3139	1.31356	0.000534566	1	0.000421346	42	64.683	7.02183e-07
2	1	0	1	0	65.0603	1.3069	1.3066	0.00047931	1	0.000421522	42	65.0328	6.26266e-07
2	0	0	1	0	65.4701	1.2987	1.29815	0.000418793	1	0.000421705	42	65.4426	5.43655e-07
2	1	0	1	0	65.8799	1.29051	1.28994	0.000364181	1	0.000421864	42	65.8524	4.69772e-07
2	1	0	1	0	66.2597	1.28291	1.28227	0.000311913	1	0.000421991	43	66.2322	3.99955e-07
2	1	0	1	0	66.6096	1.27591	1.27568	0.00027093	1	0.000422093	43	66.5821	3.45619e-07
2	1	0	1	0	66.9595	1.26892	1.2687	0.000234193	1	0.000422182	43	66.932	2.97121e-07
2	1	0	1	0	67.3093	1.26192	1.26156	0.000202309	1	0.000422258	43	67.2818	2.55224e-07
2	1	0	1	0	67.6591	1.25493	1.25441	0.000167532	1	0.000422322	43	67.6316	2.10155e-07
2	1	0	1	0	68.0089	1.24793	1.24741	0.000135953	1	0.000422375	43	67.9814	1.6959e-07
2	1	0	1	0	68.3587	1.24093	1.24049	0.000105591	1	0.000422418	43	68.3312	1.30984e-07
2	1	0	1	0	68.7085	1.23394	1.23351	7.73639e-05	1	0.00042245	43	68.681	9.54288e-08
2	1	0	1	0	69.0583	1.22694	1.22692	4.69249e-05	1	0.000422472	43	69.0308	5.75729e-08
2	1	0	1	0	69.4082	1.21994	1.21925	2.02291e-05	1	0.000422484	43	69.3807	2.46644e-08
2	0	0	1	0	69.7581	1.21295	1.21235	-7.60901e-06	1	0.000422486	43	0.05	-9.22479e-09
2	0	0	1	0	70.1079	1.20595	1.20531	-3.47505e-05	1	0.000422478	43	0.3998	-4.18852e-08
2	0	0	1	0	70.4577	1.19895	1.19866	-6.40854e-05	1	0.00042246	43	0.7496	-7.68167e-08
2	0	0	1	0	70.8075	1.19196	1.19178	-9.42503e-05	1	0.000422433	43	1.0994	-1.12325e-07
2	0	0	1	0	71.1573	1.18496	1.18475	-0.000122686	1	0.000422394	43	1.4492	-1.45352e-07
2	0	0	1	0	71.5071	1.17796	1.17769	-0.00015575	1	0.000422345	43	1.799	-1.83426e-07
2	0	0	1	0	71.8569	1.17097	1.17059	-0.000189364	1	0.000422285	43	2.1488	-2.21667e-07
2	0	0	1	0	72.2067	1.16397	1.16372	-0.000224712	1	0.000422212	43	2.4986	-2.61502e-07
2	0	0	1	0	72.5566	1.15698	1.15667	-0.000262601	1	0.000422127	43	2.8485	-3.03743e-07
2	0	0	1	0	72.9065	1.14998	1.14958	-0.000303796	1	0.000422028	43	3.1984	-3.49237e-07
2	0	0	1	0	73.2563	1.14298	1.14236	-0.000347876	1	0.000421914	43	3.5482	-3.97399e-07
2	0	0	1	0	73.6061	1.13599	1.13567	-0.000398077	1	0.000421784	43	3.898	-4.52086e-07
2	0	0	1	0	73.9559	1.12899	1.12844	-0.000450011	1	0.000421635	43	4.2478	-5.07811e-07
2	0	0	1	0	74.3057	1.12199	1.12143	-0.000509699	1	0.000421467	43	4.5976	-5.71591e-07
2	0	0	1	0	74.6555	1.115	1.11456	-0.000576379	1	0.000421277	43	4.9474	-6.42411e-07
2	0	0	1	0	75.0053	1.108	1.10771	-0.000650412	1	0.000421063	43	5.2972	-7.2047e-07
2	0	0	1	0	75.3552	1.101	1.10084	-0.0007341	1	0.000420821	43	5.6471	-8.08127e-07
2	0	0	1	0	75.7051	1.09401	1.09379	-0.000827675	1	0.000420548	43	5.997	-9.05302e-07
2	0	0	1	0	76.0549	1.08701	1.08665	-0.000934642	1	0.00042024	43	6.3468	-1.01563e-06
2	0	0	1	0	76.4047	1.08001	1.07945	-0.00105881	1	0.000419891	43	6.6966	-1.14293e-06
2	0	0	1	0	76.7845	1.07242	1.07204	-0.0012074	1	0.000419459	42	7.0764	-1.29438e-06
2	0	0	1	0	77.1343	1.06542	1.06523	-0.00137192	1	0.000419006	42	7.4262	-1.46141e-06
2	0	0	1	0	77.4841	1.05842	1.05815	-0.00156667	1	0.000418491	42	7.776	-1.65777e-06
2	0	0	1	0	77.8339	1.05143	1.05109	-0.00179292	1	0.000417902	42	8.1258	-1.88452e-06
2	0	0	1	0	78.1838	1.04443	1.04365	-0.00206143	1	0.000417227	42	8.4757	-2.15142e-06
2	0	0	1	0	78.5337	1.03743	1.03726	-0.0023805	1	0.000416449	42	8.8256	-2.4692e-06
2	0	0	1	0	78.8835	1.03044	1.02979	-0.00276508	1	0.000415549	42	9.1754	-2.84745e-06
2	0	0	1	0	79.2333	1.02344	1.02326	-0.00322705	1	0.000414501	42	9.5252	-3.30212e-06
2	0	0	1	0	79.5831	1.01645	1.01585	-0.00379756	1	0.000413273	42	9.875	-3.85775e-06
2	0	0	1	0	79.9329	1.00945	1.00913	-0.00449862	1	0.000411823	42	10.2248	-4.53967e-06
2	0	0	1	0	80.2827	1.00245	1.00234	-0.0053779	1	0.000410099	42	10.5746	-5.39048e-06
2	0	0	1	0	80.6325	0.995456	0.99508	-0.00649166	1	0.000408028	42	10.9244	-6.45972e-06
2	0	0	1	0	80.9824	0.988457	0.987783	-0.00791628	1	0.000405514	42	11.2743	-7.81957e-06
2	0	0	1	0	81.3323	0.981463	0.981182	-0.00973427	1	0.000402434	42	11.6242	-9.55109e-06
2	0	0	1	0	81.7121	0.973866	0.973542	-0.0120583	1	0.000398286	41	12.004	-1.17393e-05
2	0	0	1	0	82.0619	0.96687	0.966871	-0.0144895	1	0.000393602	41	12.3538	-1.40095e-05
2	0	0	1	0	82.4117	0.959873	0.959328	-0.0167508	1	0.000388081	41	12.7036	-1.60695e-05
2	0	0	1	0	82.7615	0.952877	0.952536	-0.0183361	1	0.000381871	41	13.0534	-1.74658e-05
2	0	0	1	0	83.1113	0.94588	0.945555	-0.0188404	1	0.000375285	41	13.4032	-1.78146e-05
2	0	0	1	0	83.4611	0.938884	0.938738	-0.0180908	1	0.000368745	41	13.753	-1.69825e-05
2	0	0	1	0	83.8109	0.931887	0.931744	-0.0163463	1	0.000362658	41	14.1028	-1.52305e-05
2	0	0	1	0	84.1608	0.92489	0.924582	-0.014177	1	0.000357272	41	14.4527	-1.31078e-05
2	0	0	1	0	84.5107	0.917894	0.917792	-0.012108	1	0.000352642	41	14.8026	-1.11126e-05
2	0	0	1	0	84.8605	0.910898	0.910381	-0.0103892	1	0.00034868	41	15.1524	-9.45812e-06
2	0	0	1	0	85.2103	0.903901	0.903487	-0.00903267	1	0.000345257	41	15.5022	-8.1609e-06
2	0	0	1	0	85.5601	0.896905	0.896502	-0.00794365	1	0.00034226	41	15.852	-7.1215e-06
2	0	0	1	0	85.9099	0.889909	0.889785	-0.00707891	1	0.000339604	41	16.2018	-6.29871e-06
2	0	0	1	0	86.2597	0.882912	0.882646	-0.00638009	1	0.000337218	41	16.5516	-5.63136e-06
2	0	0	1	0	86.6095	0.875916	0.87558	-0.00586731	1	0.000335043	41	16.9014	-5.1373e-06
2	0	0	1	0	86.9594	0.868917	0.86857	-0.00551927	1	0.000333017	41	17.2513	-4.79387e-06
2	0	0	1	0	87.3093	0.861923	0.861748	-0.00534503	1	0.000331083	41	17.6012	-4.60607e-06
2	0	0	1	0	87.6591	0.854926	0.854318	-0.00533455	1	0.000329179	41	17.951	-4.5574e-06
2	0	0	1	0	88.0089	0.84793	0.847462	-0.00548696	1	0.000327248	41	18.3008	-4.64999e-06
2	0	0	1	0	88.3587	0.840933	0.840264	-0.00577972	1	0.000325237	41	18.6506	-4.85649e-06
2	0	0	1	0	88.7085	0.833937	0.833589	-0.00620019	1	0.000323096	41	19.0004	-5.16841e-06
2	0	0	1	0	89.0583	0.82694	0.826394	-0.00670329	1	0.00032079	41	19.3502	-5.53956e-06
2	0	0	1	0	89.4081	0.819944	0.819657	-0.0072531	1	0.000318297	41	19.7	-5.94506e-06
2	0	0	1	0	89.7579	0.812947	0.812797	-0.00778069	1	0.000315611	41	20.0498	-6.32413e-06
2	0	0	1	0	90.1079	0.805951	0.805633	-0.00820997	1	0.000312749	41	20.3998	-6.61422e-06
2	0	0	1	0	90.4577	0.798954	0.798778	-0.0085399	1	0.000309751	41	20.7496	-6.82148e-06
2	0	0	1	0	90.8075	0.791958	0.791941	-0.00867309	1	0.00030667	41	21.0994	-6.86857e-06
2	0	0	1	0	91.1573	0.784961	0.784765	-0.00863427	1	0.00030357	41	21.4492	-6.77587e-06
2	0	0	1	0	91.5071	0.777965	0.777074	-0.00836289	1	0.000300512	41	21.799	-6.49858e-06
2	0	0	1	0	91.8569	0.770968	0.770634	-0.00807614	1	0.000297548	41	22.1488	-6.22375e-06
2	0	0	1	0	92.2067	0.763972	0.76367	-0.00763569	1	0.000294712	41	22.4986	-5.83115e-06
2	0	0	1	0	92.5565	0.756975	0.756889	-0.00720707	1	0.000292019	41	22.8484	-5.45495e-06
2	0	0	1	0	92.9064	0.74998	0.749477	-0.00679838	1	0.00028947	41	23.1983	-5.09523e-06
2	0	0	1	0	93.2563	0.742982	0.742449	-0.00638892	1	0.000287063	41	23.5482	-4.74345e-06
2	0	0	1	0	93.6061	0.735986	0.735549	-0.00599659	1	0.000284786	41	23.898	-4.41079e-06
2	0	0	1	0	93.9559	0.728989	0.72867	-0.0056427	1	0.000282633	41	24.2478	-4.11167e-06
2	0	0	1	0	94.3057	0.721993	0.722018	-0.00532705	1	0.000280593	41	24.5976	-3.84623e-06
2	0	0	1	0	94.6555	0.714996	0.714873	-0.0050431	1	0.000278656	41	24.9474	-3.60518e-06
2	0	0	1	0	95.0053	0.708	0.707806	-0.00477142	1	0.000276817	41	25.2972	-3.37723e-06
2	0	0	1	0	95.3551	0.701003	0.700599	-0.00451348	1	0.000275063	41	25.647	-3.16214e-06
2	0	0	1	0	95.705	0.694008	0.693679	-0.00430503	1	0.000273392	41	25.9969	-2.98631e-06
2	0	0	1	0	96.0549	0.68701	0.686482	-0.00407635	1	0.000271796	41	26.3468	-2.79835e-06
2	0	0	1	0	96.4347	0.679414	0.679213	-0.00426619	1	0.000270138	42	26.7266	-2.89765e-06
2	0	0	1	0	96.7845	0.672418	0.672362	-0.0041042	1	0.000268672	42	27.0764	-2.75951e-06
2	0	0	1	0	97.1343	0.665421	0.665117	-0.0039597	1	0.00026726	42	27.4262	-2.63366e-06
2	0	0	1	0	97.4841	0.658425	0.657797	-0.00381449	1	0.0002659	42	27.776	-2.50916e-06
2	0	0	1	0	97.8339	0.651428	0.651354	-0.00369707	1	0.000264586	42	28.1258	-2.4081e-06
2	0	0	1	0	98.1837	0.644432	0.643825	-0.00356182	1	0.000263315	42	28.4756	-2.29319e-06
2	0	0	1	0	98.5335	0.637435	0.63698	-0.00346529	1	0.000262084	42	28.8254	-2.20732e-06
2	0	0	1	0	98.8835	0.630439	0.630047	-0.00335636	1	0.00026089	42	29.1754	-2.11466e-06
2	0	0	1	0	99.2333	0.623442	0.622858	-0.00326423	1	0.000259731	42	29.5252	-2.03315e-06
2	0	0	1	0	99.5831	0.616446	0.616022	-0.00316862	1	0.000258604	42	29.875	-1.95194e-06
2	0	0	1	0	99.9329	0.609449	0.608963	-0.00309464	1	0.000257507	42	30.2248	-1.88452e-06
2	0	0	1	0	100.283	0.602453	0.602341	-0.00300122	1	0.000256438	42	30.5746	-1.80776e-06
2	0	0	1	0	100.632	0.595456	0.595265	-0.00294622	1	0.000255395	42	30.9244	-1.75378e-06
2	0	0	1	0	100.982	0.58846	0.588125	-0.00286457	1	0.000254376	42	31.2742	-1.68472e-06
2	0	0	1	0	101.332	0.581463	0.581184	-0.00282466	1	0.000253379	42	31.624	-1.64164e-06
2	0	0	1	0	101.682	0.574469	0.574186	-0.0027613	1	0.000252403	42	31.9739	-1.5855e-06
2	0	0	1	0	102.032	0.56747	0.567338	-0.00270831	1	0.000251446	42	32.3238	-1.53653e-06
2	0	0	1	0	102.382	0.560474	0.560279	-0.00264738	1	0.000250506	42	32.6736	-1.48327e-06
2	0	0	1	0	102.731	0.553477	0.552947	-0.00260887	1	0.000249583	42	33.0234	-1.44257e-06
2	0	0	1	0	103.081	0.546481	0.54594	-0.00256604	1	0.000248674	42	33.3732	-1.40091e-06
2	0	0	1	0	103.431	0.539484	0.53902	-0.00254486	1	0.000247779	42	33.723	-1.37173e-06
2	0	0	1	0	103.781	0.532488	0.53201	-0.00250124	1	0.000246897	42	34.0728	-1.33068e-06
2	0	0	1	0	104.131	0.525491	0.524835	-0.00247329	1	0.000246025	42	34.4226	-1.29807e-06
2	0	0	1	0	104.481	0.518496	0.518041	-0.00244705	1	0.000245163	42	34.7725	-1.26767e-06
2	0	0	1	0	104.83	0.511498	0.510954	-0.00242458	1	0.00024431	42	35.1224	-1.23885e-06
2	0	0	1	0	105.18	0.504502	0.504025	-0.00240098	1	0.000243465	42	35.4722	-1.21015e-06
2	0	0	1	0	105.53	0.497505	0.497047	-0.00239892	1	0.000242627	42	35.822	-1.19237e-06
2	0	0	1	0	105.88	0.490509	0.489978	-0.00237569	1	0.000241792	42	36.1718	-1.16404e-06
2	0	0	1	0	106.23	0.483512	0.483038	-0.00236695	1	0.000240962	42	36.5216	-1.14333e-06
2	0	0	1	0	106.579	0.476516	0.476335	-0.00236962	1	0.000240133	42	36.8714	-1.12873e-06
2	0	0	1	0	106.929	0.469519	0.468949	-0.00236276	1	0.000239305	42	37.2212	-1.10801e-06
2	0	0	1	0	107.279	0.462524	0.462429	-0.00238069	1	0.000238475	42	37.5711	-1.1009e-06
2	0	0	1	0	107.629	0.455526	0.455244	-0.00236957	1	0.000237643	42	37.921	-1.07873e-06
2	0	0	1	0	107.979	0.44853	0.448019	-0.00238642	1	0.00023681	42	38.2708	-1.06916e-06
2	0	0	1	0	108.329	0.441534	0.440974	-0.00237727	1	0.000235975	42	38.6206	-1.04831e-06
2	0	0	1	0	108.678	0.434537	0.43418	-0.00238628	1	0.00023514	42	38.9704	-1.03608e-06
2	0	0	1	0	109.028	0.427541	0.427265	-0.00236869	1	0.000234308	42	39.3202	-1.01206e-06
2	0	0	1	0	109.378	0.420544	0.420172	-0.00236641	1	0.000233479	42	39.67	-9.94299e-07
2	0	0	1	0	109.728	0.413548	0.413086	-0.00232563	1	0.000232657	42	40.0198	-9.60687e-07
2	0	0	1	0	110.078	0.406551	0.406058	-0.00231164	1	0.000231843	42	40.3697	-9.3866e-07
2	0	0	1	0	110.428	0.399554	0.399334	-0.0022634	1	0.000231041	42	40.7196	-9.03853e-07
2	0	0	1	0	110.777	0.392558	0.392202	-0.00224105	1	0.000230251	42	41.0694	-8.78945e-07
2	0	0	1	0	111.127	0.385562	0.385274	-0.00217833	1	0.000229477	42	41.4192	-8.39254e-07
2	0	0	1	0	111.477	0.378565	0.378179	-0.00214924	1	0.000228717	42	41.769	-8.12797e-07
2	0	0	1	0	111.827	0.371569	0.370975	-0.0020925	1	0.000227974	42	42.1188	-7.76267e-07
2	0	0	1	0	112.177	0.364572	0.364304	-0.00205784	1	0.000227246	42	42.4686	-7.49681e-07
2	0	0	1	0	112.526	0.357576	0.357266	-0.00200082	1	0.000226536	42	42.8184	-7.14825e-07
2	0	0	1	0	112.876	0.350579	0.349796	-0.00197158	1	0.00022584	42	43.1683	-6.8965e-07
2	0	0	1	0	113.226	0.343583	0.343413	-0.00191648	1	0.00022516	42	43.5182	-6.58145e-07
2	0	0	1	0	113.576	0.336586	0.336087	-0.00188438	1	0.000224494	42	43.868	-6.33314e-07
2	0	0	1	0	113.926	0.32959	0.328977	-0.00183273	1	0.000223842	42	44.2178	-6.02926e-07
2	0	0	1	0	114.276	0.322593	0.322135	-0.00180991	1	0.000223203	42	44.5676	-5.83035e-07
2	0	0	1	0	114.625	0.315597	0.315111	-0.00176758	1	0.000222576	42	44.9174	-5.56983e-07
2	0	0	1	0	114.975	0.3086	0.308325	-0.0017451	1	0.00022196	42	45.2672	-5.3806e-07
2	0	0	1	0	115.325	0.301604	0.301371	-0.00170881	1	0.000221355	42	45.617	-5.14986e-07
2	0	0	1	0	115.675	0.294606	0.294474	-0.00169362	1	0.000220759	42	45.9669	-4.98729e-07
2	0	0	1	0	116.025	0.287611	0.287092	-0.00165599	1	0.000220173	42	46.3168	-4.75422e-07
2	0	0	1	0	116.375	0.280614	0.280464	-0.00164032	1	0.000219595	42	46.6666	-4.60049e-07
2	0	0	1	0	116.724	0.273618	0.273276	-0.00160369	1	0.000219026	42	47.0164	-4.3825e-07
2	0	0	1	0	117.074	0.266621	0.266168	-0.00158987	1	0.000218466	42	47.3662	-4.23173e-07
2	0	0	1	0	117.424	0.259625	0.259435	-0.00155365	1	0.000217915	42	47.716	-4.0307e-07
2	0	0	1	0	117.774	0.252628	0.251962	-0.00153581	1	0.000217373	42	48.0658	-3.86965e-07
2	0	0	1	0	118.124	0.245632	0.245197	-0.00150178	1	0.000216841	42	48.4156	-3.68231e-07
2	0	0	1	0	118.474	0.238634	0.238459	-0.00148483	1	0.000216317	42	48.7655	-3.54072e-07
2	0	0	1	0	118.823	0.231639	0.231102	-0.00144922	1	0.000215802	42	49.1154	-3.34919e-07
2	0	0	1	0	119.173	0.224642	0.224406	-0.00143047	1	0.000215297	42	49.4652	-3.21007e-07
2	0	0	1	0	119.523	0.217646	0.217107	-0.00139856	1	0.0002148	42	49.815	-3.03636e-07
2	0	0	1	0	119.873	0.210649	0.210273	-0.00138542	1	0.00021431	42	50.1648	-2.91317e-07
2	0	0	1	0	120.223	0.203653	0.203412	-0.00136253	1	0.000213829	42	50.5146	-2.77156e-07
2	0	0	1	0	120.572	0.196656	0.196164	-0.00134619	1	0.000213353	42	50.8644	-2.64074e-07
2	0	0	1	0	120.922	0.18966	0.189216	-0.00132596	1	0.000212884	42	51.2142	-2.50894e-07
2	0	0	1	0	121.272	0.182663	0.182249	-0.00131713	1	0.000212421	42	51.564	-2.40045e-07
2	0	0	1	0	121.622	0.175667	0.175346	-0.00129744	1	0.000211962	42	51.914	-2.275e-07
2	0	0	1	0	121.972	0.16867	0.168446	-0.00129529	1	0.000211506	42	52.2638	-2.18186e-07
2	0	0	1	0	122.322	0.161674	0.161345	-0.00128548	1	0.000211054	42	52.6136	-2.07405e-07
2	0	0	1	0	122.671	0.154677	0.154419	-0.00128543	1	0.000210604	42	52.9634	-1.98495e-07
2	0	0	1	0	123.021	0.147681	0.147453	-0.0012817	1	0.000210154	42	53.3132	-1.8899e-07
2	0	0	1	0	123.371	0.140684	0.140355	-0.00128593	1	0.000209704	42	53.663	-1.80486e-07
2	0	0	1	0	123.721	0.133688	0.13371	-0.0012922	1	0.000209252	42	54.0128	-1.72781e-07
2	0	0	1	0	124.071	0.126691	0.126198	-0.00130637	1	0.000208796	42	54.3626	-1.64862e-07
2	0	0	1	0	124.421	0.119697	0.120028	-0.0013218	1	0.000208335	42	54.7125	-1.58653e-07
2	0	0	1	0	124.77	0.112698	0.112384	-0.00134741	1	0.000207867	42	55.0624	-1.51427e-07
2	0	0	1	0	125.12	0.105702	0.105321	-0.00137888	1	0.000207389	42	55.4122	-1.45224e-07
2	0	0	1	0	125.47	0.0987054	0.0980365	-0.00141809	1	0.000206899	42	55.762	-1.39025e-07
2	0	0	1	0	125.82	0.091709	0.0912217	-0.00146634	1	0.000206393	42	56.1118	-1.33762e-07
2	0	0	1	0	126.17	0.0847125	0.0844643	-0.00152733	1	0.000205868	42	56.4616	-1.29004e-07
2	0	0	1	0	126.519	0.077716	0.0773098	-0.00160139	1	0.00020532	42	56.8114	-1.23803e-07
2	0	0	1	0	126.869	0.0707195	0.0703416	-0.00168815	1	0.000204743	42	57.1612	-1.18747e-07
2	0	0	1	0	127.219	0.0637243	0.0634245	-0.00179524	1	0.000204132	42	57.5111	-1.13863e-07
2	0	0	1	0	127.569	0.0567265	0.0562005	-0.00192461	1	0.00020348	42	57.861	-1.08164e-07
2	0	0	1	0	127.919	0.04973	0.0491978	-0.00207183	1	0.000202781	42	58.2108	-1.0193e-07
2	0	0	1	0	128.269	0.0427335	0.0424406	-0.00224401	1	0.000202025	42	58.5606	-9.52371e-08
2	0	0	1	0	128.618	0.035737	0.0355733	-0.00244832	1	0.000201203	42	58.9104	-8.70949e-08
2	0	0	1	0	128.968	0.0287405	0.0280539	-0.00268605	1	0.000200303	42	59.2602	-7.53541e-08
2	0	0	1	0	129.318	0.0217441	0.0213213	-0.00295971	1	0.000199314	42	59.61	-6.31049e-08
2	0	0	1	0	129.668	0.0147476	0.0144369	-0.00327513	1	0.000198223	42	59.9598	-4.72827e-08
2	0	0	1	0	130.018	0.00775197	0.0077547	-0.00363482	1	0.000197013	42	60.3097	-2.8187e-08
2	0	0	1	0	130.368	0.000754585	0.000547756	-0.00403606	1	0.00019567	42	60.6596	-2.21078e-09
2	0	0	1	0	130.717	-0.00624191	-0.00648175	-0.00448973	1	0.000194177	42	61.0094	2.91013e-08
2	0	0	1	0	131.067	-0.0132384	-0.0135265	-0.00498876	1	0.000192518	42	61.3592	6.74806e-08
2	0	0	1	0	131.417	-0.0202349	-0.0206163	-0.00554251	1	0.000190675	42	61.709	1.14266e-07
2	0	0	1	0	131.767	-0.0272314	-0.0273431	-0.00613224	1	0.000188631	42	62.0588	1.67675e-07
2	0	0	1	0	132.117	-0.0342279	-0.0343181	-0.00676956	1	0.000186373	42	62.4086	2.32319e-07
2	0	0	1	0	132.466	-0.0412244	-0.0414365	-0.00743324	1	0.000183887	42	62.7584	3.08007e-07
2	0	0	1	0	132.816	-0.0482209	-0.0488425	-0.00812708	1	0.000181162	42	63.1083	3.96947e-07
2	0	0	1	0	133.166	-0.0552174	-0.0555475	-0.00882235	1	0.000178194	42	63.4582	4.90059e-07
2	0	0	1	0	133.516	-0.0622139	-0.0626226	-0.00951287	1	0.000174984	42	63.808	5.9572e-07
2	0	0	1	0	133.866	-0.0692104	-0.0695306	-0.0101799	1	0.000171537	42	64.1578	7.07814e-07
2	0	0	1	0	134.216	-0.0762068	-0.0766578	-0.010806	1	0.000167863	42	64.5076	8.28366e-07
2	0	0	1	0	134.595	-0.083803	-0.0839088	-0.0113176	1	0.000163635	41	64.8874	9.49645e-07
2	0	0	1	0	134.945	-0.0907995	-0.0908874	-0.0118398	1	0.000159546	41	65.2372	1.07609e-06
2	0	0	1	0	135.295	-0.097796	-0.0981264	-0.0122641	1	0.000155291	41	65.587	1.20343e-06
2	0	0	1	0	135.645	-0.104793	-0.104989	-0.0126519	1	0.000150895	41	65.9368	1.32831e-06
2	0	0	1	0	135.995	-0.111788	-0.112006	-0.0129375	1	0.000146383	41	66.2867	1.44907e-06
2	0	0	1	0	136.345	-0.118786	-0.118918	-0.0131584	1	0.000141781	41	66.6366	1.56476e-06
2	0	0	1	0	136.694	-0.125782	-0.126084	-0.0133119	1	0.000137116	41	66.9864	1.67842e-06
2	0	0	1	0	137.044	-0.132778	-0.133141	-0.0134066	1	0.000132407	41	67.3362	1.78496e-06
2	0	0	1	0	137.394	-0.139775	-0.139946	-0.0134576	1	0.000127674	41	67.686	1.88333e-06
2	0	0	1	0	137.744	-0.146771	-0.146918	-0.0134696	1	0.000122934	41	68.0358	1.97893e-06
2	0	0	1	0	138.094	-0.153768	-0.153981	-0.0134354	1	0.0001182	41	68.3856	2.06879e-06
2	0	0	1	0	138.443	-0.160764	-0.160996	-0.0133791	1	0.000113484	41	68.7354	2.15398e-06
2	0	0	1	0	138.793	-0.16776	-0.167735	-0.0133087	1	0.000108793	41	69.0853	2.23234e-06
2	0	0	1	0	139.143	-0.174757	-0.175068	-0.0131902	1	0.000104136	41	69.4352	2.30918e-06
2	0	0	1	0	139.493	-0.181754	-0.18185	-0.0130816	1	9.95162e-05	41	69.785	2.37888e-06
2	0	0	1	0	139.843	-0.18875	-0.188931	-0.0129709	1	9.49359e-05	41	70.1348	2.45061e-06
2	0	0	1	0	140.193	-0.195747	-0.19602	-0.0128515	1	9.03978e-05	41	70.4846	2.51916e-06
2	0	0	1	0	140.542	-0.202743	-0.202901	-0.0127505	1	8.59011e-05	41	70.8344	2.5871e-06
2	0	0	1	0	140.892	-0.20974	-0.209974	-0.012632	1	8.14445e-05	41	71.1842	2.65241e-06
2	0	0	1	0	141.242	-0.216736	-0.217135	-0.012529	1	7.70269e-05	41	71.534	2.72049e-06
2	0	0	1	0	141.592	-0.223732	-0.224067	-0.0124237	1	7.26439e-05	41	71.8839	2.78375e-06
2	0	0	1	0	141.942	-0.230729	-0.231179	-0.0123399	1	6.82945e-05	41	72.2338	2.85274e-06
2	0	0	1	0	142.292	-0.237726	-0.238032	-0.0122736	1	6.39751e-05	41	72.5836	2.92152e-06
2	0	0	1	0	142.641	-0.244722	-0.245181	-0.0121933	1	5.96799e-05	41	72.9334	2.98957e-06
2	0	0	1	0	142.991	-0.251719	-0.251957	-0.0121529	1	5.5405e-05	41	73.2832	3.062e-06
2	0	0	1	0	143.341	-0.258715	-0.258897	-0.0121072	1	5.1146e-05	41	73.633	3.13453e-06
2	0	0	1	0	143.691	-0.265712	-0.265961	-0.0121004	1	4.68978e-05	41	73.9828	3.21823e-06
2	0	0	1	0	144.041	-0.272708	-0.273067	-0.0120811	1	4.26531e-05	41	74.3326	3.29896e-06
2	0	0	1	0	144.391	-0.279705	-0.279942	-0.0121138	1	3.84072e-05	41	74.6825	3.39115e-06
2	0	0	1	0	144.74	-0.286701	-0.28691	-0.0121385	1	3.41523e-05	41	75.0324	3.48265e-06
2	0	0	1	0	145.09	-0.293698	-0.293736	-0.0121894	1	2.98858e-05	41	75.3822	3.58046e-06
2	0	0	1	0	145.403	-0.300045	-0.300266	-0.0123117	1	2.60542e-05	41	75.6949	3.69679e-06
2	0	0	1	1	145.685	-0.294397	-0.294513	-0.0114482	1	2.27522e-05	41	75.9772	3.37163e-06
2	0	0	1	1	146.035	-0.287399	-0.287723	-0.0108684	1	1.88648e-05	41	76.3271	3.12707e-06
2	0	0	1	1	146.385	-0.280404	-0.280678	-0.0104152	1	1.51569e-05	41	76.677	2.92332e-06
2	0	0	1	1	146.735	-0.273408	-0.273734	-0.0100012	1	1.16032e-05	41	77.0268	2.73768e-06
2	0	0	1	1	147.085	-0.266412	-0.26684	-0.00961879	1	8.18755e-06	41	77.3766	2.56668e-06
2	0	0	1	1	147.434	-0.259415	-0.259672	-0.00928404	1	4.89568e-06	41	77.7264	2.4108e-06
2	0	0	1	1	147.784	-0.252419	-0.252657	-0.0089579	1	1.71686e-06	41	78.0762	2.26328e-06
2	0	0	1	1	148.134	-0.245422	-0.245875	-0.00869035	1	-1.35569e-06	41	78.426	2.13674e-06
2	0	0	1	1	148.484	-0.238426	-0.238907	-0.00839158	1	-4.32838e-06	41	78.7758	2.00481e-06
2	0	0	1	1	148.834	-0.231429	-0.231766	-0.00813	1	-7.20605e-06	41	79.1256	1.88426e-06
2	0	0	1	1	149.184	-0.224433	-0.224736	-0.0078816	1	-9.99384e-06	41	79.4756	1.77128e-06
2	0	0	1	1	149.533	-0.217436	-0.217964	-0.00763868	1	-1.26936e-05	41	79.8254	1.66496e-06
2	0	0	1	1	149.883	-0.21044	-0.210583	-0.00740767	1	-1.53085e-05	41	80.1752	1.55993e-06
2	0	0	1	1	150.233	-0.203443	-0.203467	-0.00715949	1	-1.78413e-05	41	80.525	1.45672e-06
2	0	0	1	1	150.583	-0.196447	-0.196825	-0.00694649	1	-2.0293e-05	41	80.8748	1.36725e-06
2	0	0	1	1	150.933	-0.18945	-0.189709	-0.00672061	1	-2.2664e-05	41	81.2246	1.27496e-06
2	0	0	1	1	151.282	-0.182454	-0.18279	-0.00648775	1	-2.49568e-05	41	81.5744	1.1859e-06
2	0	0	1	1	151.632	-0.175457	-0.175696	-0.0062879	1	-2.71706e-05	41	81.9242	1.10476e-06
2	0	0	1	1	151.982	-0.168462	-0.168753	-0.00604354	1	-2.93063e-05	41	82.2741	1.01986e-06
2	0	0	1	1	152.332	-0.161464	-0.161587	-0.00584194	1	-3.13629e-05	41	82.624	9.43983e-07
2	0	0	1	1	152.682	-0.154468	-0.154858	-0.0055968	1	-3.33409e-05	41	82.9738	8.66707e-07
2	0	0	1	1	153.032	-0.147471	-0.147663	-0.00537773	1	-3.52392e-05	41	83.3236	7.94091e-07
2	0	0	1	1	153.381	-0.140475	-0.140533	-0.00514713	1	-3.70566e-05	41	83.6734	7.23341e-07
2	0	0	1	1	153.731	-0.133478	-0.133471	-0.00492672	1	-3.87927e-05	41	84.0232	6.57572e-07
2	0	0	1	1	154.081	-0.126482	-0.126774	-0.0046673	1	-4.04456e-05	41	84.373	5.91691e-07
2	0	0	1	1	154.461	-0.118885	-0.119024	-0.00435814	1	-4.21481e-05	42	84.7528	5.18724e-07
2	0	0	1	1	154.811	-0.111888	-0.111946	-0.00412158	1	-4.36296e-05	42	85.1027	4.61395e-07
2	0	0	1	1	155.161	-0.104892	-0.104718	-0.00387769	1	-4.5027e-05	42	85.4526	4.06064e-07
2	0	0	1	1	155.51	-0.097896	-0.0981165	-0.00363582	1	-4.63387e-05	42	85.8024	3.56734e-07
2	0	0	1	1	155.86	-0.0908995	-0.0913676	-0.00338957	1	-4.75658e-05	42	86.1522	3.09697e-07
2	0	0	1	1	156.21	-0.083903	-0.0843194	-0.00314743	1	-4.87071e-05	42	86.502	2.65389e-07
2	0	0	1	1	156.56	-0.0769065	-0.0769293	-0.00290459	1	-4.97637e-05	42	86.8518	2.23448e-07
2	0	0	1	1	156.91	-0.06991	-0.0703804	-0.00266342	1	-5.07355e-05	42	87.2016	1.87453e-07
2	0	0	1	1	157.259	-0.0629135	-0.063357	-0.00242634	1	-5.16236e-05	42	87.5514	1.53726e-07
2	0	0	1	1	157.609	-0.0559152	-0.0558227	-0.00219532	1	-5.24297e-05	42	87.9013	1.22549e-07
2	0	0	1	1	157.959	-0.0489205	-0.0492064	-0.00197174	1	-5.31565e-05	42	88.2512	9.70225e-08
2	0	0	1	1	158.309	-0.041924	-0.0420694	-0.00176064	1	-5.38073e-05	42	88.601	7.40692e-08
2	0	0	1	1	158.659	-0.0349275	-0.0352477	-0.00156764	1	-5.43872e-05	42	88.9508	5.52556e-08
2	0	0	1	1	159.009	-0.027931	-0.0279633	-0.00138746	1	-5.49013e-05	42	89.3006	3.87979e-08
2	0	0	1	1	159.358	-0.0209345	-0.0210981	-0.00122361	1	-5.53549e-05	42	89.6504	2.5816e-08
2	0	0	1	1	159.708	-0.0139381	-0.0140322	-0.00106597	1	-5.57524e-05	42	90.0002	1.49579e-08
2	0	0	1	1	160.058	-0.00694156	-0.00707985	-0.000926761	1	-5.60987e-05	42	90.35	6.56133e-09
2	0	0	1	1	160.408	5.49362e-05	-0.0002251	-0.000794234	1	-5.63976e-05	42	90.6998	1.78782e-10
2	0	0	1	1	160.758	0.00704964	0.00700516	-0.000681241	1	-5.66538e-05	42	91.0497	-4.7722e-09
2	0	0	1	1	161.108	0.0140479	0.0136608	-0.000571864	1	-5.68704e-05	42	91.3996	-7.81215e-09
2	0	0	1	1	161.457	0.0210444	0.0208358	-0.000478267	1	-5.70517e-05	42	91.7494	-9.9651e-09
2	0	0	1	1	161.897	0.02984	0.0295498	-0.000360901	1	-5.72376e-05	43	92.1892	-1.06645e-08
2	0	0	1	1	162.247	0.0368365	0.0364959	-0.00028626	1	-5.73512e-05	43	92.539	-1.04473e-08
2	0	0	1	1	162.597	0.043833	0.0434915	-0.00021929	1	-5.74398e-05	43	92.8888	-9.53727e-09
2	0	0	1	1	162.947	0.0508295	0.0506198	-0.000160384	1	-5.75061e-05	43	93.2386	-8.11863e-09
2	0	0	1	1	163.296	0.057826	0.0575354	-0.000106383	1	-5.75523e-05	43	93.5884	-6.12081e-09
2	0	0	1	1	163.646	0.0648224	0.0647408	-5.79049e-05	1	-5.75808e-05	43	93.9382	-3.74881e-09
2	0	0	1	1	163.996	0.0718189	0.071583	-1.52303e-05	1	-5.75936e-05	43	94.288	-1.09023e-09
2	1	0	1	1	164.346	0.0788154	0.0783593	2.17214e-05	1	-5.75921e-05	43	0.15	1.70207e-09
2	1	0	1	1	164.696	0.0858119	0.0857173	5.57905e-05	1	-5.75782e-05	43	0.4998	4.78221e-09
2	1	0	1	1	165.046	0.0928084	0.0926883	8.56295e-05	1	-5.7553e-05	43	0.8496	7.93685e-09
2	1	0	1	1	165.395	0.0998049	0.099603	0.000114038	1	-5.7518e-05	43	1.1994	1.13585e-08
2	1	0	1	1	165.745	0.106801	0.106512	0.000135821	1	-5.74738e-05	43	1.5492	1.44666e-08
2	1	0	1	1	166.095	0.113798	0.113441	0.000161505	1	-5.74217e-05	43	1.899	1.83214e-08
2	1	0	1	1	166.445	0.120794	0.120455	0.000180225	1	-5.73621e-05	43	2.2488	2.1709e-08
2	1	0	1	1	166.795	0.127791	0.127925	0.000198832	1	-5.72959e-05	43	2.5986	2.54356e-08
2	1	0	1	1	167.145	0.134786	0.134346	0.000214275	1	-5.72236e-05	43	2.9485	2.87871e-08
2	1	0	1	1	167.494	0.141784	0.141611	0.000231376	1	-5.71456e-05	43	3.2984	3.27654e-08
2	1	0	1	1	167.844	0.14878	0.14854	0.000245899	1	-5.70623e-05	43	3.6482	3.65258e-08
2	1	0	1	1	168.194	0.155777	0.155672	0.00026107	1	-5.69738e-05	43	3.998	4.06414e-08
2	1	0	1	1	168.544	0.162773	0.162036	0.000273661	1	-5.68802e-05	43	4.3478	4.43429e-08
2	1	0	1	1	168.894	0.16977	0.169577	0.000289734	1	-5.67816e-05	43	4.6976	4.91323e-08
2	1	0	1	1	169.243	0.176766	0.176163	0.000303442	1	-5.66779e-05	43	5.0474	5.34552e-08
2	1	0	1	1	169.593	0.183763	0.183829	0.000320585	1	-5.65686e-05	43	5.3972	5.89328e-08
2	1	0	1	1	169.943	0.190758	0.190327	0.000339613	1	-5.6453e-05	43	5.7471	6.46376e-08
2	1	0	1	1	170.293	0.197756	0.197518	0.000363195	1	-5.63301e-05	43	6.097	7.17377e-08
2	1	0	1	1	170.643	0.204752	0.204308	0.000389041	1	-5.61988e-05	43	6.4468	7.94844e-08
2	1	0	1	1	170.993	0.211749	0.211545	0.000422208	1	-5.60572e-05	43	6.7966	8.93159e-08
2	1	0	1	1	171.342	0.218745	0.218434	0.000457552	1	-5.59033e-05	43	7.1464	9.99448e-08
2	1	0	1	1	171.692	0.225742	0.225873	0.000502157	1	-5.57348e-05	43	7.4962	1.13424e-07
2	1	0	1	1	172.042	0.232738	0.232585	0.000557115	1	-5.55492e-05	43	7.846	1.29577e-07
2	1	0	1	1	172.392	0.239735	0.239547	0.000613712	1	-5.53448e-05	43	8.1958	1.47013e-07
2	1	0	1	1	172.742	0.246731	0.246458	0.000673413	1	-5.51199e-05	43	8.5457	1.65968e-07
2	1	0	1	1	173.092	0.253728	0.253509	0.000724733	1	-5.48756e-05	43	8.8956	1.83726e-07
2	1	0	1	1	173.441	0.260724	0.260419	0.000771224	1	-5.46133e-05	43	9.2454	2.00841e-07
2	1	0	1	1	173.791	0.267721	0.267406	0.000801272	1	-5.43374e-05	43	9.5952	2.14264e-07
2	1	0	1	1	174.141	0.274717	0.274407	0.000820162	1	-5.4053e-05	43	9.945	2.25059e-07
2	1	0	1	1	174.491	0.281714	0.281421	0.000814511	1	-5.37667e-05	43	10.2948	2.2922e-07
2	1	0	1	1	174.841	0.28871	0.288201	0.000800646	1	-5.34841e-05	43	10.6446	2.30747e-07
2	1	0	1	1	175.19	0.295707	0.295616	0.000765723	1	-5.32093e-05	43	10.9944	2.2636e-07
2	1	0	1	1	175.54	0.302703	0.302426	0.000737207	1	-5.29457e-05	43	11.3443	2.22951e-07
2	1	0	1	1	175.89	0.3097	0.309526	0.000704734	1	-5.26935e-05	43	11.6942	2.18134e-07
2	1	0	1	1	176.24	0.316696	0.3163	0.00068108	1	-5.24514e-05	43	12.044	2.15426e-07
2	1	0	1	1	176.59	0.323693	0.32354	0.000662281	1	-5.22166e-05	43	12.3938	2.14274e-07
2	1	0	1	1	176.94	0.330689	0.330379	0.000653731	1	-5.19868e-05	43	12.7436	2.15979e-07
2	1	0	1	1	177.289	0.337686	0.337486	0.000645682	1	-5.17588e-05	43	13.0934	2.17909e-07
2	1	0	1	1	177.639	0.344682	0.344112	0.000655167	1	-5.15304e-05	43	13.4432	2.2545e-07
2	1	0	1	1	177.989	0.351679	0.35137	0.000661133	1	-5.13002e-05	43	13.793	2.32302e-07
2	1	0	1	1	178.339	0.358675	0.358323	0.000679034	1	-5.10659e-05	43	14.1429	2.43313e-07
2	1	0	1	1	178.689	0.365672	0.365322	0.000692324	1	-5.08264e-05	43	14.4928	2.52921e-07
2	1	0	1	1	179.039	0.372668	0.372531	0.00071198	1	-5.05802e-05	43	14.8426	2.65234e-07
2	1	0	1	1	179.388	0.379664	0.379687	0.000742719	1	-5.03252e-05	43	15.1924	2.82e-07
2	1	0	1	1	179.738	0.386661	0.386098	0.000779778	1	-5.00605e-05	43	15.5422	3.01071e-07
2	1	0	1	1	179.94	0.390709	0.39007	0.000799615	1	-4.99029e-05	43	15.7437	3.11906e-07