File: Python/Data/GoldElectrode/240308/240308-CVEIS_Activation-0p5H2SO4-Ag_AgCl_BLF8-Au_RDE-80cycles-C15_02_PEIS_C15.mpt
EC-Lab ASCII FILE
Nb header lines : 66

Potentio Electrochemical Impedance Spectroscopy

Run on channel : 15 (SN 19485)
User :
Electrode connection : standard
Potential control : Ewe
Ewe ctrl range : min = -2.50 V, max = 2.50 V
Ewe,I filtering : 50 kHz
Safety Limits :
	Do not start on E overload
Channel : Floating
Acquisition started on : 03/08/2024 16:29:18.805
Loaded Setting File :  NONE
Saved on :
	File : 240308-CVEIS_Activation-0p5H2SO4-Ag_AgCl_BLF8-Au_RDE-80cycles-C15_02_PEIS_C15.mpr
	Directory : C:\Data\mathias\GoldElectrode\
	Host : 192.168.0.1
Device : VMP-300 (SN 0826)
Address : USB
EC-Lab for windows v11.52 (software)
Internet server v11.52 (firmware)
Command interpretor v11.52 (firmware)
Electrode material :
Initial state :
Electrolyte :
Comments :
Cable : special
Electrode surface area : 0.001 cm²
Characteristic mass : 0.001 g
Equivalent Weight : 0.000 g/eq.
Density : 0.000 g/cm3
Volume (V) : 0.001 cm³
Record EIS quality indicators
Cycle Definition : Charge/Discharge alternance
Mode                Single sine
E (V)               0.0000
vs.                 Eoc
tE (h:m:s)          0:00:0.0000
record              0
dI                  0.000
unit dI             mA
dt (s)              0.000
fi                  100.000
unit fi             kHz
ff                  100.000
unit ff             Hz
Nd                  10
Points              per decade
spacing             Logarithmic
Va (mV)             5.0
pw                  0.10
Na                  2
corr                0
E range min (V)     -2.500
E range max (V)     2.500
I Range             Auto
Bandwidth           8
nc cycles           1
goto Ns'            0
nr cycles           0
inc. cycle          0

freq/Hz	Re(Z)/Ohm	-Im(Z)/Ohm	|Z|/Ohm	Phase(Z)/deg	time/s	<Ewe>/V	<I>/mA	Cs/µF	Cp/µF	cycle number	I Range	|Ewe|/V	|I|/A	Ns	(Q-Qo)/mA.h	THD Ewe/%	NSD Ewe/%	NSR Ewe/%	|Ewe h2|/V	|Ewe h3|/V	|Ewe h4|/V	|Ewe h5|/V	|Ewe h6|/V	|Ewe h7|/V	THD I/%	NSD I/%	NSR I/%	|I h2|/A	|I h3|/A	|I h4|/A	|I h5|/A	|I h6|/A	|I h7|/A	Re(Y)/Ohm-1	Im(Y)/Ohm-1	|Y|/Ohm-1	Phase(Y)/deg	Re(C)/nF	Im(C)/nF	|C|/nF	Phase(C)/deg	Re(M)	Im(M)	|M|	Phase(M)/deg	Re(Permittivity)	Im(Permittivity)	|Permittivity|	Phase(Permittivity)/deg	Re(Resistivity)/Ohm.cm	Im(Resistivity)/Ohm.cm	|Resistivity|/Ohm.cm	Phase(Resistivity)/deg	Re(Conductivity)/mS/cm	Im(Conductivity)/mS/cm	|Conductivity|/mS/cm	Phase(Conductivity)/deg	Tan(Delta)	Loss Angle(Delta)/deg	dq/mA.h
100004	6.14005	0.674188	6.17695	-6.26608	362.765	0.39917	-0.0223026	2.3606	0.0281214	1	38	0.00481371	0.000779302	0	-8.08917e-06	1.63699	0.977028	31.4608	1.35233e-05	2.18961e-05	3.68635e-05	3.37388e-05	4.5226e-05	2.68879e-05	0.215698	0.129949	4.09077	8.33648e-07	6.52481e-07	6.63057e-07	8.09707e-07	6.06235e-07	1.84679e-07	0.160925	0.0176699	0.161892	6.26608	28.1214	256.111	257.65	-83.7339	0.0000000E+000	0.0000000E+000	0.0000000E+000	83.7339	0.0000000E+000	0.0000000E+000	0.0000000E+000	-83.7339	0.0000000E+000	0.0000000E+000	0.0000000E+000	-6.26608	0.0000000E+000	0.0000000E+000	0.0000000E+000	6.26608	9.10732	83.7339	-8.08917e-06
79433.3	6.1507	0.680342	6.18821	-6.31195	363.579	0.399137	-0.0133969	2.94503	0.0355971	1	38	0.00507722	0.000820467	0	-1.03908e-05	1.21729	0.990187	30.4001	3.67032e-05	3.14831e-05	1.67124e-05	1.25827e-05	1.36197e-05	1.94695e-05	0.205448	0.124504	3.85186	6.23399e-07	8.12722e-07	6.0534e-07	6.40178e-07	7.77908e-07	5.38769e-07	0.160618	0.0177663	0.161598	6.31195	35.5971	321.819	323.782	-83.688	0.0000000E+000	0.0000000E+000	0.0000000E+000	83.688	0.0000000E+000	0.0000000E+000	0.0000000E+000	-83.688	0.0000000E+000	0.0000000E+000	0.0000000E+000	-6.31195	0.0000000E+000	0.0000000E+000	0.0000000E+000	6.31195	9.0406	83.688	-2.30165e-06
63093.8	6.19233	0.721959	6.23428	-6.65004	364.393	0.399171	-0.0115517	3.49398	0.0468569	1	38	0.00515244	0.000826469	0	-1.22882e-05	1.48398	0.867303	30.0236	3.92528e-05	1.96275e-05	3.14068e-05	3.8321e-05	5.01187e-06	3.46514e-05	0.205299	0.161176	3.80348	7.05273e-07	4.99717e-07	7.09386e-07	5.59707e-07	4.72379e-07	7.59638e-07	0.159324	0.0185755	0.160404	6.65004	46.8569	401.898	404.62	-83.35	0.0000000E+000	0.0000000E+000	0.0000000E+000	83.35	0.0000000E+000	0.0000000E+000	0.0000000E+000	-83.35	0.0000000E+000	0.0000000E+000	0.0000000E+000	-6.65004	0.0000000E+000	0.0000000E+000	0.0000000E+000	6.65004	8.57713	83.35	-1.89738e-06
50122.5	6.28785	0.774633	6.33539	-7.02317	365.208	0.399172	-0.0119595	4.09913	0.0612826	1	38	0.00524975	0.000828639	0	-1.53075e-05	1.67551	0.924225	28.1674	1.733e-05	3.37652e-05	4.17973e-05	3.09018e-05	2.7863e-05	4.81128e-05	0.21268	0.115483	3.81893	9.16136e-07	6.11942e-07	9.76562e-07	2.63034e-07	5.29377e-07	6.05889e-07	0.156659	0.0192997	0.157844	7.02317	61.2826	497.443	501.204	-82.9768	0.0000000E+000	0.0000000E+000	0.0000000E+000	82.9768	0.0000000E+000	0.0000000E+000	0.0000000E+000	-82.9768	0.0000000E+000	0.0000000E+000	0.0000000E+000	-7.02317	0.0000000E+000	0.0000000E+000	0.0000000E+000	7.02317	8.1172	82.9768	-3.0193e-06
39814.1	6.23921	0.899042	6.30365	-8.19962	366.022	0.399138	-0.0111384	4.44635	0.0904438	1	38	0.00516244	0.000818961	0	-1.87432e-05	1.60492	0.811225	29.0901	2.28094e-05	3.50301e-05	3.72139e-05	2.83408e-05	1.82608e-05	4.22336e-05	0.158702	0.107142	3.90039	7.96636e-07	3.74466e-07	3.73546e-07	6.0173e-07	4.47799e-07	3.44265e-07	0.157016	0.0226254	0.158638	8.19962	90.4438	627.666	634.149	-81.8004	0.0000000E+000	0.0000000E+000	0.0000000E+000	81.8004	0.0000000E+000	0.0000000E+000	0.0000000E+000	-81.8004	0.0000000E+000	0.0000000E+000	0.0000000E+000	-8.19962	0.0000000E+000	0.0000000E+000	0.0000000E+000	8.19962	6.93985	81.8004	-3.43572e-06
31621.1	6.3019	1.0393	6.38702	-9.36489	366.836	0.399147	-0.0118552	4.84283	0.12823	1	38	0.00509525	0.000797751	0	-2.0898e-05	1.32568	0.859063	30.0286	1.94507e-05	2.7687e-05	2.76856e-05	3.32319e-05	2.86929e-05	2.21197e-05	0.243732	0.114232	3.91458	6.61453e-07	9.01458e-07	9.77026e-07	5.3534e-07	7.70201e-07	3.58424e-07	0.154481	0.0254769	0.156567	9.36489	128.23	777.53	788.032	-80.6351	0.0000000E+000	0.0000000E+000	0.0000000E+000	80.6351	0.0000000E+000	0.0000000E+000	0.0000000E+000	-80.6351	0.0000000E+000	0.0000000E+000	0.0000000E+000	-9.36489	0.0000000E+000	0.0000000E+000	0.0000000E+000	9.36489	6.06357	80.6351	-2.15479e-06
25116.9	6.42359	1.22357	6.53909	-10.7845	367.65	0.399161	-0.011414	5.17876	0.181321	1	38	0.00519321	0.000794179	0	-2.31599e-05	1.93332	0.761057	30.0975	3.89476e-05	4.42017e-05	3.26856e-05	4.13251e-05	3.21217e-05	4.73658e-05	0.213532	0.168077	3.98179	9.04943e-07	4.1906e-07	5.31619e-07	4.34281e-07	9.39464e-07	6.78524e-07	0.150226	0.028615	0.152927	10.7845	181.321	951.914	969.029	-79.2155	0.0000000E+000	0.0000000E+000	0.0000000E+000	79.2155	0.0000000E+000	0.0000000E+000	0.0000000E+000	-79.2155	0.0000000E+000	0.0000000E+000	0.0000000E+000	-10.7845	0.0000000E+000	0.0000000E+000	0.0000000E+000	10.7845	5.24988	79.2155	-2.26189e-06
19948.8	6.46777	1.44632	6.62751	-12.6051	368.464	0.399169	-0.0104122	5.5162	0.262704	1	38	0.00514847	0.000776833	0	-2.46476e-05	2.45866	1.00872	29.4665	2.10473e-05	1.93672e-05	0.000105288	1.86331e-05	3.06071e-05	4.75716e-05	0.369227	0.062072	4.0644	2.37788e-07	7.88897e-07	2.20859e-06	7.54052e-07	6.21537e-07	1.18545e-06	0.14725	0.0329278	0.150886	12.6051	262.704	1174.78	1203.8	-77.3949	0.0000000E+000	0.0000000E+000	0.0000000E+000	77.3949	0.0000000E+000	0.0000000E+000	0.0000000E+000	-77.3949	0.0000000E+000	0.0000000E+000	0.0000000E+000	-12.6051	0.0000000E+000	0.0000000E+000	0.0000000E+000	12.6051	4.47189	77.3949	-1.48767e-06
15847.7	6.61587	1.7074	6.83263	-14.471	369.278	0.399167	-0.0106431	5.88191	0.367294	1	38	0.00513123	0.000750988	0	-2.73429e-05	2.18397	0.670142	30.7804	2.22437e-05	1.80739e-05	5.24385e-05	5.45376e-05	3.7941e-05	5.49598e-05	0.321639	0.0830154	4.26935	6.37811e-07	8.66817e-07	8.19906e-07	6.23914e-07	9.55572e-07	1.47376e-06	0.141713	0.0365729	0.146356	14.471	367.294	1423.2	1469.83	-75.529	0.0000000E+000	0.0000000E+000	0.0000000E+000	75.529	0.0000000E+000	0.0000000E+000	0.0000000E+000	-75.529	0.0000000E+000	0.0000000E+000	0.0000000E+000	-14.471	0.0000000E+000	0.0000000E+000	0.0000000E+000	14.471	3.87481	75.529	-2.69538e-06
12590.9	6.70523	2.0424	7.00938	-16.9407	370.092	0.399154	-0.010064	6.18901	0.525465	1	38	0.00507748	0.000724384	0	-2.93583e-05	1.69448	1.1834	30.3907	4.83448e-05	2.93137e-05	9.71717e-06	3.91565e-05	2.7023e-05	3.0799e-05	0.278468	0.156977	4.48058	5.95402e-07	9.31711e-07	9.80616e-07	4.44446e-07	7.96776e-07	8.56562e-07	0.136475	0.0415701	0.142666	16.9407	525.465	1725.11	1803.36	-73.0593	0.0000000E+000	0.0000000E+000	0.0000000E+000	73.0593	0.0000000E+000	0.0000000E+000	0.0000000E+000	-73.0593	0.0000000E+000	0.0000000E+000	0.0000000E+000	-16.9407	0.0000000E+000	0.0000000E+000	0.0000000E+000	16.9407	3.28301	73.0593	-2.01541e-06
10002.2	6.9558	2.43113	7.36841	-19.2651	370.906	0.399168	-0.00991323	6.54509	0.712497	1	38	0.00510797	0.000693226	0	-3.20256e-05	1.46828	0.793224	30.028	2.71399e-05	2.96133e-05	1.84269e-05	3.65957e-05	2.15786e-05	3.16731e-05	0.254526	0.0880799	4.56746	3.76346e-07	5.98878e-07	5.84033e-07	1.16009e-06	4.02293e-07	8.07967e-07	0.128115	0.0447775	0.135714	19.2651	712.497	2038.56	2159.48	-70.7349	0.0000000E+000	0.0000000E+000	0.0000000E+000	70.7349	0.0000000E+000	0.0000000E+000	0.0000000E+000	-70.7349	0.0000000E+000	0.0000000E+000	0.0000000E+000	-19.2651	0.0000000E+000	0.0000000E+000	0.0000000E+000	19.2651	2.86114	70.7349	-2.66729e-06
7944	7.15971	2.86238	7.71068	-21.791	371.755	0.399032	-0.0104997	6.9993	0.964545	1	38	0.00521148	0.000675878	0	-3.3596e-05	1.69173	0.908792	29.0379	3.44296e-05	2.00858e-05	3.57792e-05	4.40657e-05	4.59009e-05	2.71637e-05	0.292321	0.172873	4.65388	6.4819e-07	1.19578e-06	4.74184e-07	8.40421e-07	7.15635e-07	4.57497e-07	0.120423	0.0481439	0.12969	21.791	964.545	2412.63	2598.3	-68.209	0.0000000E+000	0.0000000E+000	0.0000000E+000	68.209	0.0000000E+000	0.0000000E+000	0.0000000E+000	-68.209	0.0000000E+000	0.0000000E+000	0.0000000E+000	-21.791	0.0000000E+000	0.0000000E+000	0.0000000E+000	21.791	2.50132	68.209	-1.57034e-06
6307.74	7.40874	3.39239	8.14848	-24.6026	372.654	0.399077	-0.00996723	7.43773	1.28914	1	38	0.00500433	0.000614142	0	-3.63715e-05	2.24107	0.288733	30.6	2.95962e-05	8.99355e-05	2.01453e-05	1.62103e-05	2.03973e-05	4.42172e-05	0.483622	0.121199	5.03733	3.61411e-07	2.4075e-06	5.8602e-07	1.03973e-06	7.7235e-07	7.36338e-07	0.111581	0.0510919	0.122722	24.6026	1289.14	2815.38	3096.49	-65.3974	0.0000000E+000	0.0000000E+000	0.0000000E+000	65.3974	0.0000000E+000	0.0000000E+000	0.0000000E+000	-65.3974	0.0000000E+000	0.0000000E+000	0.0000000E+000	-24.6026	0.0000000E+000	0.0000000E+000	0.0000000E+000	24.6026	2.18393	65.3974	-2.77549e-06
5011.6	7.84004	3.94759	8.77779	-26.726	373.41	0.399024	-0.00929135	8.04473	1.62707	1	38	0.00535159	0.000609673	0	-3.86959e-05	1.35864	1.16463	27.9653	4.06963e-05	1.99974e-05	2.65377e-05	3.69604e-05	2.75358e-05	1.399e-05	0.224955	0.102753	5.20225	7.06823e-07	5.16744e-07	7.49718e-07	2.96763e-07	5.53688e-07	3.48553e-07	0.101753	0.0512344	0.113924	26.726	1627.07	3231.4	3617.91	-63.274	0.0000000E+000	0.0000000E+000	0.0000000E+000	63.274	0.0000000E+000	0.0000000E+000	0.0000000E+000	-63.274	0.0000000E+000	0.0000000E+000	0.0000000E+000	-26.726	0.0000000E+000	0.0000000E+000	0.0000000E+000	26.726	1.98603	63.274	-2.32446e-06
3981.28	8.11253	4.59371	9.32284	-29.5206	374.153	0.399027	-0.00935838	8.7023	2.11283	1	38	0.00543621	0.000583107	0	-4.05979e-05	1.34058	0.80324	28.5305	9.01139e-06	1.27885e-05	3.09962e-05	4.93191e-05	2.34594e-05	2.99846e-05	0.310925	0.137008	5.4932	9.5655e-07	8.50505e-07	6.23826e-07	4.50184e-07	7.11709e-07	5.70877e-07	0.0933383	0.0528527	0.107263	29.5206	2112.83	3731.28	4287.95	-60.4794	0.0000000E+000	0.0000000E+000	0.0000000E+000	60.4794	0.0000000E+000	0.0000000E+000	0.0000000E+000	-60.4794	0.0000000E+000	0.0000000E+000	0.0000000E+000	-29.5206	0.0000000E+000	0.0000000E+000	0.0000000E+000	29.5206	1.76601	60.4794	-1.90197e-06
3163.04	8.60753	5.30677	10.1119	-31.6549	374.896	0.399034	-0.00963395	9.48168	2.61142	1	38	0.00549669	0.000543584	0	-4.22506e-05	1.47876	0.742857	26.7259	3.85899e-05	1.27537e-05	3.29446e-05	2.41016e-05	3.44884e-05	3.8677e-05	0.398361	0.150974	5.78369	1.41753e-06	8.26359e-07	4.31846e-07	7.83753e-07	5.41037e-07	6.71406e-07	0.0841801	0.0518992	0.098893	31.6549	2611.42	4235.7	4976.01	-58.3451	0.0000000E+000	0.0000000E+000	0.0000000E+000	58.3451	0.0000000E+000	0.0000000E+000	0.0000000E+000	-58.3451	0.0000000E+000	0.0000000E+000	0.0000000E+000	-31.6549	0.0000000E+000	0.0000000E+000	0.0000000E+000	31.6549	1.62199	58.3451	-1.65266e-06
2512.41	9.03802	6.12459	10.9177	-34.1234	375.639	0.399029	-0.00968794	10.3431	3.25494	1	38	0.00545545	0.000499688	0	-4.44432e-05	1.4202	0.787517	27.7003	2.67745e-05	3.6044e-05	4.12907e-05	2.13978e-05	2.07207e-05	3.30474e-05	0.325124	0.213223	6.42354	6.20604e-07	8.2846e-07	5.66341e-08	7.45946e-07	6.17606e-07	6.64437e-07	0.0758246	0.0513824	0.0915943	34.1234	3254.94	4803.3	5802.27	-55.8766	0.0000000E+000	0.0000000E+000	0.0000000E+000	55.8766	0.0000000E+000	0.0000000E+000	0.0000000E+000	-55.8766	0.0000000E+000	0.0000000E+000	0.0000000E+000	-34.1234	0.0000000E+000	0.0000000E+000	0.0000000E+000	34.1234	1.47569	55.8766	-2.19259e-06
1995.64	9.48004	7.10105	11.8447	-36.8351	376.382	0.399002	-0.00938072	11.2309	4.03659	1	38	0.00540034	0.00045593	0	-4.59497e-05	1.435	2.02304	28.0417	2.26443e-05	3.21091e-05	3.68999e-05	2.66624e-05	2.47055e-05	3.88786e-05	0.381948	0.512423	6.86051	9.43358e-07	7.20227e-07	5.14824e-07	4.2607e-07	6.60902e-07	5.1448e-07	0.0675717	0.0506147	0.0844262	36.8351	4036.59	5388.93	6733.11	-53.1649	0.0000000E+000	0.0000000E+000	0.0000000E+000	53.1649	0.0000000E+000	0.0000000E+000	0.0000000E+000	-53.1649	0.0000000E+000	0.0000000E+000	0.0000000E+000	-36.8351	0.0000000E+000	0.0000000E+000	0.0000000E+000	36.8351	1.33502	53.1649	-1.50651e-06
1584.49	10.0066	8.29657	12.9986	-39.6626	377.126	0.399035	-0.00937142	12.1068	4.93211	1	38	0.00536783	0.000412953	0	-4.79129e-05	1.50621	1.08872	28.1651	4.02716e-05	3.50413e-05	2.73095e-05	3.70707e-05	1.37717e-05	3.08322e-05	0.630529	0.212508	7.62725	1.27324e-06	8.28927e-07	7.71455e-07	1.5472e-06	8.00693e-07	6.66842e-07	0.0592229	0.0491024	0.0769311	39.6626	4932.11	5948.66	7727.38	-50.3374	0.0000000E+000	0.0000000E+000	0.0000000E+000	50.3374	0.0000000E+000	0.0000000E+000	0.0000000E+000	-50.3374	0.0000000E+000	0.0000000E+000	0.0000000E+000	-39.6626	0.0000000E+000	0.0000000E+000	0.0000000E+000	39.6626	1.20611	50.3374	-1.96322e-06
1258.79	10.5411	9.77524	14.376	-42.8413	377.869	0.39901	-0.00893945	12.9342	5.98024	1	38	0.00533666	0.000371221	0	-4.98327e-05	1.52224	0.902852	27.847	3.7671e-05	2.99356e-05	2.47726e-05	4.92277e-05	8.4298e-06	3.32866e-05	0.568081	0.240564	8.65162	1.22347e-06	8.87367e-07	2.87662e-07	1.12265e-06	7.01668e-07	4.91873e-07	0.0510045	0.047299	0.0695604	42.8413	5980.24	6448.74	8794.86	-47.1587	0.0000000E+000	0.0000000E+000	0.0000000E+000	47.1587	0.0000000E+000	0.0000000E+000	0.0000000E+000	-47.1587	0.0000000E+000	0.0000000E+000	0.0000000E+000	-42.8413	0.0000000E+000	0.0000000E+000	0.0000000E+000	42.8413	1.07834	47.1587	-1.9198e-06
999.682	11.1831	11.4998	16.0408	-45.7999	378.613	0.399041	-0.00871974	13.8442	7.11537	1	38	0.00531607	0.00033141	0	-5.14404e-05	1.1689	0.981652	29.0112	1.99775e-05	2.24411e-05	2.76546e-05	1.52024e-05	2.02879e-05	3.81699e-05	0.667959	0.20999	9.58773	1.54039e-06	4.79889e-07	1.0519e-06	6.7136e-07	3.83341e-07	2.85661e-07	0.0434621	0.0446929	0.0623411	45.7999	7115.37	6919.41	9925.05	-44.2001	0.0000000E+000	0.0000000E+000	0.0000000E+000	44.2001	0.0000000E+000	0.0000000E+000	0.0000000E+000	-44.2001	0.0000000E+000	0.0000000E+000	0.0000000E+000	-45.7999	0.0000000E+000	0.0000000E+000	0.0000000E+000	45.7999	0.972461	44.2001	-1.60775e-06
794.239	11.9295	13.7382	18.1948	-49.0308	379.358	0.399016	-0.0082915	14.5861	8.31579	1	38	0.00531406	0.000292064	0	-5.3375e-05	1.41483	0.952797	29.0078	4.65706e-05	1.68262e-05	3.11718e-05	2.11334e-05	2.42837e-05	2.91316e-05	0.790424	0.503529	10.9191	1.45722e-06	4.56399e-07	1.01423e-06	9.98849e-07	5.37966e-07	7.07626e-07	0.0360351	0.0414987	0.0549607	49.0308	8315.79	7220.96	11013.4	-40.9692	0.0000000E+000	0.0000000E+000	0.0000000E+000	40.9692	0.0000000E+000	0.0000000E+000	0.0000000E+000	-40.9692	0.0000000E+000	0.0000000E+000	0.0000000E+000	-49.0308	0.0000000E+000	0.0000000E+000	0.0000000E+000	49.0308	0.868343	40.9692	-1.93459e-06
631.01	12.5196	16.2981	20.5516	-52.4699	380.101	0.39906	-0.00689691	15.4755	9.73261	1	38	0.0052575	0.000255819	0	-5.47792e-05	1.74572	0.502217	29.2093	1.63081e-05	4.99551e-05	3.44151e-05	2.77171e-05	4.18421e-05	3.45498e-05	0.739119	0.230358	12.4292	1.31587e-06	5.21264e-07	2.66871e-07	4.92275e-07	1.02765e-06	2.95061e-07	0.0296413	0.0385874	0.0486579	52.4699	9732.61	7476.21	12272.6	-37.5301	0.0000000E+000	0.0000000E+000	0.0000000E+000	37.5301	0.0000000E+000	0.0000000E+000	0.0000000E+000	-37.5301	0.0000000E+000	0.0000000E+000	0.0000000E+000	-52.4699	0.0000000E+000	0.0000000E+000	0.0000000E+000	52.4699	0.768161	37.5301	-1.40421e-06
501.122	13.1704	19.8139	23.7918	-56.3878	380.844	0.399053	-0.00585795	16.029	11.1171	1	38	0.00526459	0.000221277	0	-5.59179e-05	1.42433	0.870124	29.4801	1.4713e-05	3.36993e-05	3.27781e-05	2.41624e-05	2.73991e-05	3.45233e-05	0.913795	0.3597	14.6877	1.18137e-06	6.08607e-07	6.80608e-07	8.0753e-07	5.46406e-07	7.70098e-07	0.0232672	0.0350038	0.0420312	56.3878	11117.1	7389.58	13349	-33.6122	0.0000000E+000	0.0000000E+000	0.0000000E+000	33.6122	0.0000000E+000	0.0000000E+000	0.0000000E+000	-33.6122	0.0000000E+000	0.0000000E+000	0.0000000E+000	-56.3878	0.0000000E+000	0.0000000E+000	0.0000000E+000	56.3878	0.664705	33.6122	-1.1387e-06
398.089	13.9115	23.8134	27.5791	-59.7071	381.589	0.399045	-0.00758024	16.7888	12.517	1	38	0.00524042	0.000190014	0	-5.73744e-05	1.21708	0.919415	29.6708	2.42625e-05	1.7957e-05	1.60463e-05	2.70539e-05	3.41002e-05	2.30931e-05	0.980191	0.449694	16.7978	5.15412e-07	8.44202e-07	6.20134e-07	7.97528e-07	9.70752e-07	5.29915e-07	0.01829	0.0313084	0.0362593	59.7071	12517	7312.28	14496.4	-30.2929	0.0000000E+000	0.0000000E+000	0.0000000E+000	30.2929	0.0000000E+000	0.0000000E+000	0.0000000E+000	-30.2929	0.0000000E+000	0.0000000E+000	0.0000000E+000	-59.7071	0.0000000E+000	0.0000000E+000	0.0000000E+000	59.7071	0.584187	30.2929	-1.45645e-06
316.316	15.0008	28.9174	32.5767	-62.5822	382.583	0.399019	-0.000690002	17.3996	13.7102	1	39	0.00539086	0.000165482	0	-5.81412e-05	1.65497	0.697469	28.0797	3.21552e-05	2.65986e-05	1.39962e-05	5.46382e-05	3.91199e-05	3.28123e-05	0.626413	0.336404	8.74482	5.83569e-07	3.73967e-07	4.55493e-07	1.61691e-07	3.4318e-07	4.34908e-07	0.0141351	0.0272487	0.0306968	62.5822	13710.2	7112.12	15445.1	-27.4178	0.0000000E+000	0.0000000E+000	0.0000000E+000	27.4178	0.0000000E+000	0.0000000E+000	0.0000000E+000	-27.4178	0.0000000E+000	0.0000000E+000	0.0000000E+000	-62.5822	0.0000000E+000	0.0000000E+000	0.0000000E+000	62.5822	0.518745	27.4178	-7.66798e-07
251.206	16.0661	35.5504	39.0122	-65.6806	383.326	0.399037	-0.00127784	17.8216	14.7991	1	39	0.0053618	0.000137439	0	-5.85496e-05	1.20517	0.684522	27.3291	2.14691e-05	1.48042e-05	2.60296e-05	2.92883e-05	1.95987e-05	2.99577e-05	0.638408	0.203434	10.205	6.6007e-07	1.768e-07	1.5548e-07	2.26363e-07	3.74797e-07	2.54066e-07	0.0105563	0.0233585	0.025633	65.6806	14799.1	6688.06	16240.2	-24.3194	0.0000000E+000	0.0000000E+000	0.0000000E+000	24.3194	0.0000000E+000	0.0000000E+000	0.0000000E+000	-24.3194	0.0000000E+000	0.0000000E+000	0.0000000E+000	-65.6806	0.0000000E+000	0.0000000E+000	0.0000000E+000	65.6806	0.451924	24.3194	-4.08415e-07
199.553	17.178	43.3666	46.6449	-68.391	384.072	0.399007	-0.00102437	18.391	15.8967	1	39	0.00532287	0.000114115	0	-5.86862e-05	1.85783	0.757312	27.7633	1.62928e-05	4.92341e-05	4.77146e-05	3.78616e-05	2.24202e-05	4.07333e-05	0.935855	0.388475	12.3129	5.20216e-07	5.84735e-07	3.7336e-07	3.71054e-07	3.70848e-07	1.40334e-07	0.00789521	0.0199318	0.0214386	68.391	15896.8	6296.87	17098.5	-21.609	0.0000000E+000	0.0000000E+000	0.0000000E+000	21.609	0.0000000E+000	0.0000000E+000	0.0000000E+000	-21.609	0.0000000E+000	0.0000000E+000	0.0000000E+000	-68.391	0.0000000E+000	0.0000000E+000	0.0000000E+000	68.391	0.39611	21.609	-1.36616e-07
158.529	18.29	53.3103	56.3606	-71.0637	384.819	0.399045	-0.000964354	18.8322	16.8489	1	39	0.00528421	9.37572e-05	0	-5.87597e-05	1.11128	0.885949	27.499	2.63581e-05	2.41933e-05	1.40514e-05	1.96106e-05	2.90068e-05	1.23412e-05	1.00732	0.548191	15.4562	5.15711e-07	4.93536e-07	1.64638e-07	4.69403e-07	2.6483e-07	1.57012e-07	0.00575787	0.0167826	0.0177429	71.0637	16848.9	5780.61	17813	-18.9363	0.0000000E+000	0.0000000E+000	0.0000000E+000	18.9363	0.0000000E+000	0.0000000E+000	0.0000000E+000	-18.9363	0.0000000E+000	0.0000000E+000	0.0000000E+000	-71.0637	0.0000000E+000	0.0000000E+000	0.0000000E+000	71.0637	0.343085	18.9363	-7.35509e-08
125.927	19.9489	65.2402	68.222	-72.9976	385.561	0.399048	-0.00105568	19.3726	17.7161	1	39	0.00526201	7.71307e-05	0	-5.90727e-05	1.57669	0.547392	27.4732	4.45805e-05	4.18082e-05	3.06955e-05	2.03576e-05	3.09443e-05	1.59038e-05	0.763765	0.451552	18.6044	2.99205e-07	2.14614e-07	2.18182e-07	1.55682e-07	3.08945e-07	1.91185e-07	0.00428618	0.0140174	0.014658	72.9976	17716.1	5417.18	18525.8	-17.0024	0.0000000E+000	0.0000000E+000	0.0000000E+000	17.0024	0.0000000E+000	0.0000000E+000	0.0000000E+000	-17.0024	0.0000000E+000	0.0000000E+000	0.0000000E+000	-72.9976	0.0000000E+000	0.0000000E+000	0.0000000E+000	72.9976	0.305777	17.0024	-3.12962e-07
99.9682	22.0754	79.7008	82.7016	-74.5184	386.292	0.399032	-0.000836313	19.9754	18.5521	1	39	0.00519473	6.2813e-05	0	-5.92507e-05	1.12039	0.80348	28.7864	2.13285e-05	2.19181e-05	1.6289e-05	2.59022e-05	3.05112e-05	1.52353e-05	1.28765	0.476111	23.0674	5.8087e-07	1.88696e-07	1.46159e-07	3.21737e-07	3.52545e-07	1.14369e-07	0.00322761	0.0116529	0.0120917	74.5184	18552.1	5138.54	19250.6	-15.4816	0.0000000E+000	0.0000000E+000	0.0000000E+000	15.4816	0.0000000E+000	0.0000000E+000	0.0000000E+000	-15.4816	0.0000000E+000	0.0000000E+000	0.0000000E+000	-74.5184	0.0000000E+000	0.0000000E+000	0.0000000E+000	74.5184	0.276978	15.4816	-1.77988e-07
100004	6.20317	0.71817	6.2446	-6.604	387.737	0.399135	-0.0084181	2.21604	0.0293104	2	38	0.00492614	0.000788864	0	-6.15898e-05	1.51532	0.856419	31.8472	1.09746e-05	2.64696e-05	3.29952e-05	2.11336e-05	4.79306e-05	2.4617e-05	0.247827	0.132899	3.98131	6.93961e-07	6.56737e-07	5.43519e-07	1.25924e-06	5.63194e-07	6.52686e-07	0.159076	0.018417	0.160138	6.604	29.3104	253.168	254.859	-83.396	0.0000000E+000	0.0000000E+000	0.0000000E+000	83.396	0.0000000E+000	0.0000000E+000	0.0000000E+000	-83.396	0.0000000E+000	0.0000000E+000	0.0000000E+000	-6.604	0.0000000E+000	0.0000000E+000	0.0000000E+000	6.604	8.63746	83.396	-2.33913e-06
79433.3	6.18449	0.678258	6.22158	-6.25866	388.551	0.399158	-0.0077478	2.95408	0.0351085	2	38	0.00514276	0.000826602	0	-6.39288e-05	1.42648	1.00425	30.0797	3.76321e-05	1.31157e-05	4.1124e-05	3.50858e-05	1.92324e-05	2.06883e-05	0.163723	0.159797	3.77754	5.07306e-07	2.88362e-07	4.0931e-07	7.88746e-07	1.52709e-07	7.48826e-07	0.159773	0.0175224	0.160731	6.25866	35.1085	320.126	322.046	-83.7413	0.0000000E+000	0.0000000E+000	0.0000000E+000	83.7413	0.0000000E+000	0.0000000E+000	0.0000000E+000	-83.7413	0.0000000E+000	0.0000000E+000	0.0000000E+000	-6.25866	0.0000000E+000	0.0000000E+000	0.0000000E+000	6.25866	9.1182	83.7413	-2.33897e-06
63093.8	6.18931	0.767188	6.23668	-7.06598	389.365	0.399112	-0.00776828	3.288	0.049754	2	38	0.00517072	0.000829082	0	-6.68874e-05	1.3615	0.901079	29.2437	2.56709e-05	2.8512e-05	1.23133e-05	3.51829e-05	2.08247e-05	3.17844e-05	0.21051	0.130305	3.82658	9.01556e-07	7.74504e-07	5.89302e-07	7.50847e-07	7.18088e-07	3.14218e-07	0.159124	0.019724	0.160342	7.06598	49.754	401.392	404.464	-82.934	0.0000000E+000	0.0000000E+000	0.0000000E+000	82.934	0.0000000E+000	0.0000000E+000	0.0000000E+000	-82.934	0.0000000E+000	0.0000000E+000	0.0000000E+000	-7.06598	0.0000000E+000	0.0000000E+000	0.0000000E+000	7.06598	8.06753	82.934	-2.9586e-06
50122.5	6.21008	0.812642	6.26302	-7.45528	390.179	0.399152	-0.00803826	3.90741	0.0657838	2	38	0.00517771	0.000826712	0	-6.80774e-05	1.61185	0.795597	29.4733	3.85223e-05	3.47524e-05	3.25224e-05	3.44329e-05	2.2034e-05	3.08221e-05	0.179518	0.204818	3.74127	2.98956e-07	1.03614e-06	3.90713e-07	2.62246e-07	4.67213e-07	5.21251e-07	0.158318	0.0207172	0.159667	7.45528	65.7837	502.709	506.995	-82.5447	0.0000000E+000	0.0000000E+000	0.0000000E+000	82.5447	0.0000000E+000	0.0000000E+000	0.0000000E+000	-82.5447	0.0000000E+000	0.0000000E+000	0.0000000E+000	-7.45528	0.0000000E+000	0.0000000E+000	0.0000000E+000	7.45528	7.64184	82.5447	-1.19003e-06
39814.1	6.29682	0.900821	6.36093	-8.14147	390.994	0.39914	-0.00770311	4.43757	0.0889982	2	38	0.0051529	0.000810087	0	-6.82221e-05	1.87565	0.662064	30.1463	3.17693e-05	3.9375e-05	3.80862e-05	3.32915e-05	3.59666e-05	4.12807e-05	0.276204	0.111849	4.00368	9.53028e-07	2.3992e-07	8.78176e-07	1.04508e-06	9.857e-07	6.38515e-07	0.155625	0.0222637	0.15721	8.14147	88.9981	622.105	628.439	-81.8585	0.0000000E+000	0.0000000E+000	0.0000000E+000	81.8585	0.0000000E+000	0.0000000E+000	0.0000000E+000	-81.8585	0.0000000E+000	0.0000000E+000	0.0000000E+000	-8.14147	0.0000000E+000	0.0000000E+000	0.0000000E+000	8.14147	6.99009	81.8585	-1.44642e-07
31621.1	6.31953	1.07748	6.41073	-9.6759	391.808	0.399137	-0.0079582	4.67124	0.131959	2	38	0.00516605	0.000805844	0	-6.9337e-05	1.73695	0.801363	29.5451	5.45489e-05	2.63195e-05	4.43199e-05	2.90789e-05	3.00268e-05	1.43817e-05	0.260062	0.125709	3.8198	9.61031e-07	8.87662e-07	4.45965e-07	7.08033e-07	1.18604e-06	6.28366e-07	0.153769	0.0262177	0.155988	9.6759	131.959	773.949	785.118	-80.3241	0.0000000E+000	0.0000000E+000	0.0000000E+000	80.3241	0.0000000E+000	0.0000000E+000	0.0000000E+000	-80.3241	0.0000000E+000	0.0000000E+000	0.0000000E+000	-9.6759	0.0000000E+000	0.0000000E+000	0.0000000E+000	9.6759	5.86509	80.3241	-1.11492e-06
25116.9	6.38216	1.29781	6.51278	-11.4944	392.622	0.399149	-0.00698441	4.88251	0.19388	2	38	0.00518287	0.0007958	0	-7.12024e-05	1.63233	0.903903	29.8488	4.34974e-05	2.85552e-05	3.96999e-05	3.38196e-05	3.51177e-05	1.73814e-05	0.247474	0.158923	3.94366	9.06028e-07	1.02751e-06	7.52164e-07	6.21883e-07	4.81889e-07	7.23132e-07	0.150465	0.030597	0.153544	11.4944	193.88	953.43	972.943	-78.5056	0.0000000E+000	0.0000000E+000	0.0000000E+000	78.5056	0.0000000E+000	0.0000000E+000	0.0000000E+000	-78.5056	0.0000000E+000	0.0000000E+000	0.0000000E+000	-11.4944	0.0000000E+000	0.0000000E+000	0.0000000E+000	11.4944	4.91764	78.5056	-1.86545e-06
19948.8	6.48756	1.48089	6.65443	-12.8583	393.436	0.399139	-0.0069602	5.38744	0.266811	2	38	0.00511843	0.000769176	0	-7.37729e-05	1.94294	0.88935	30.5527	3.33901e-05	2.55669e-05	7.10497e-05	2.45569e-05	1.49314e-05	4.44254e-05	0.292018	0.0838655	4.07949	7.65533e-07	7.58903e-07	1.37067e-06	8.05485e-07	7.03318e-07	6.2808e-07	0.146507	0.0334426	0.150276	12.8583	266.811	1168.86	1198.93	-77.1417	0.0000000E+000	0.0000000E+000	0.0000000E+000	77.1417	0.0000000E+000	0.0000000E+000	0.0000000E+000	-77.1417	0.0000000E+000	0.0000000E+000	0.0000000E+000	-12.8583	0.0000000E+000	0.0000000E+000	0.0000000E+000	12.8583	4.38086	77.1417	-2.57051e-06
15847.7	6.62562	1.76338	6.85626	-14.9035	394.25	0.399149	-0.00795634	5.69521	0.376725	2	38	0.0051563	0.000752058	0	-7.53277e-05	1.43375	0.768782	30.1027	3.04783e-05	2.7745e-05	1.8733e-05	2.11141e-05	4.65644e-05	1.71705e-05	0.288673	0.167866	4.2866	9.86843e-07	7.4041e-07	4.77016e-07	7.90563e-07	3.64163e-07	1.05338e-06	0.140946	0.037512	0.145852	14.9035	376.725	1415.49	1464.76	-75.0965	0.0000000E+000	0.0000000E+000	0.0000000E+000	75.0965	0.0000000E+000	0.0000000E+000	0.0000000E+000	-75.0965	0.0000000E+000	0.0000000E+000	0.0000000E+000	-14.9035	0.0000000E+000	0.0000000E+000	0.0000000E+000	14.9035	3.75735	75.0965	-1.55471e-06
12590.9	6.76291	2.06546	7.07128	-16.9832	395.064	0.399141	-0.00771243	6.11991	0.522135	2	38	0.00522992	0.0007396	0	-7.72277e-05	1.38886	1.78669	29.2878	1.06406e-05	3.53045e-05	2.94762e-05	1.80732e-05	2.02458e-05	4.41082e-05	0.285059	0.26792	4.2659	1.20139e-06	4.89026e-07	1.10712e-06	6.38313e-07	3.02025e-07	8.85213e-07	0.13525	0.0413067	0.141417	16.9832	522.135	1709.62	1787.57	-73.0168	0.0000000E+000	0.0000000E+000	0.0000000E+000	73.0168	0.0000000E+000	0.0000000E+000	0.0000000E+000	-73.0168	0.0000000E+000	0.0000000E+000	0.0000000E+000	-16.9832	0.0000000E+000	0.0000000E+000	0.0000000E+000	16.9832	3.27428	73.0168	-1.90009e-06
10002.2	6.94371	2.43765	7.35916	-19.3441	395.878	0.399138	-0.00728977	6.52758	0.716206	2	38	0.00511036	0.000694422	0	-7.85622e-05	1.06351	1.02587	29.2723	2.16515e-05	2.15189e-05	1.94031e-05	1.80556e-05	2.75043e-05	1.16786e-05	0.291851	0.109995	4.60649	7.6909e-07	9.13087e-07	6.62117e-07	1.10619e-06	5.89176e-07	5.02268e-07	0.128214	0.0450106	0.135885	19.3441	716.206	2040.13	2162.2	-70.6559	0.0000000E+000	0.0000000E+000	0.0000000E+000	70.6559	0.0000000E+000	0.0000000E+000	0.0000000E+000	-70.6559	0.0000000E+000	0.0000000E+000	0.0000000E+000	-19.3441	0.0000000E+000	0.0000000E+000	0.0000000E+000	19.3441	2.84853	70.6559	-1.33443e-06
7944	7.15787	2.91665	7.72929	-22.1696	396.728	0.399012	-0.00747224	6.86906	0.978106	2	38	0.00508907	0.000658414	0	-8.07357e-05	1.43499	0.406688	29.221	1.7343e-05	5.00931e-05	2.26994e-05	2.79198e-05	2.56546e-05	1.78376e-05	0.224957	0.140754	4.81467	6.36882e-07	4.3758e-07	8.04237e-07	5.77256e-07	3.30526e-07	6.91791e-07	0.119813	0.0488208	0.129378	22.1696	978.106	2400.41	2592.04	-67.8304	0.0000000E+000	0.0000000E+000	0.0000000E+000	67.8304	0.0000000E+000	0.0000000E+000	0.0000000E+000	-67.8304	0.0000000E+000	0.0000000E+000	0.0000000E+000	-22.1696	0.0000000E+000	0.0000000E+000	0.0000000E+000	22.1696	2.45414	67.8304	-2.17357e-06
6307.74	7.4743	3.36996	8.19889	-24.2694	397.628	0.399038	-0.00697324	7.48723	1.26492	2	38	0.00503709	0.000614363	0	-8.27959e-05	1.9209	1.16177	30.0282	1.82289e-05	7.11211e-05	2.5271e-05	1.19694e-05	3.64173e-05	2.79359e-05	0.381362	0.190822	5.17637	5.77882e-07	1.92857e-06	5.59347e-07	4.16316e-07	4.87323e-07	6.28653e-07	0.111189	0.050132	0.121968	24.2694	1264.92	2805.48	3077.45	-65.7306	0.0000000E+000	0.0000000E+000	0.0000000E+000	65.7306	0.0000000E+000	0.0000000E+000	0.0000000E+000	-65.7306	0.0000000E+000	0.0000000E+000	0.0000000E+000	-24.2694	0.0000000E+000	0.0000000E+000	0.0000000E+000	24.2694	2.21792	65.7306	-2.06019e-06
5011.6	7.73967	4.00413	8.71411	-27.3549	398.384	0.399019	-0.00759512	7.93113	1.67458	2	38	0.00530131	0.00060836	0	-8.44404e-05	1.3867	0.616158	29.5182	2.25699e-05	3.35831e-05	2.77389e-05	2.42916e-05	2.26952e-05	3.18721e-05	0.253636	0.146805	5.21321	9.32039e-07	6.9619e-07	6.1559e-07	2.38738e-07	5.6463e-07	2.7913e-07	0.101924	0.0527306	0.114756	27.3549	1674.58	3236.83	3644.35	-62.6451	0.0000000E+000	0.0000000E+000	0.0000000E+000	62.6451	0.0000000E+000	0.0000000E+000	0.0000000E+000	-62.6451	0.0000000E+000	0.0000000E+000	0.0000000E+000	-27.3549	0.0000000E+000	0.0000000E+000	0.0000000E+000	27.3549	1.93292	62.6451	-1.64442e-06
3981.28	8.13267	4.61544	9.35108	-29.5757	399.127	0.399047	-0.00634204	8.66133	2.11002	2	38	0.00542627	0.000580283	0	-8.53333e-05	1.4238	1.02616	28.9867	2.60249e-05	7.48966e-06	3.46872e-05	3.94787e-05	1.78934e-05	3.52422e-05	0.290422	0.198349	5.52171	2.81389e-07	7.38227e-07	4.75328e-07	3.49321e-07	4.42982e-07	1.23947e-06	0.0930058	0.0527825	0.10694	29.5757	2110.02	3717.99	4275	-60.4243	0.0000000E+000	0.0000000E+000	0.0000000E+000	60.4243	0.0000000E+000	0.0000000E+000	0.0000000E+000	-60.4243	0.0000000E+000	0.0000000E+000	0.0000000E+000	-29.5757	0.0000000E+000	0.0000000E+000	0.0000000E+000	29.5757	1.76206	60.4243	-8.9298e-07
3163.04	8.58331	5.35822	10.1185	-31.9749	399.87	0.39904	-0.00738659	9.39063	2.63333	2	38	0.00547586	0.000541174	0	-8.6388e-05	1.37919	0.839107	28.5847	1.85533e-05	3.9136e-05	1.55842e-05	3.20058e-05	2.34475e-05	4.27628e-05	0.309729	0.190485	5.91722	5.24446e-07	5.72061e-07	8.4786e-07	6.21461e-07	7.03462e-07	6.73292e-07	0.0838347	0.0523347	0.098829	31.9749	2633.33	4218.32	4972.79	-58.0251	0.0000000E+000	0.0000000E+000	0.0000000E+000	58.0251	0.0000000E+000	0.0000000E+000	0.0000000E+000	-58.0251	0.0000000E+000	0.0000000E+000	0.0000000E+000	-31.9749	0.0000000E+000	0.0000000E+000	0.0000000E+000	31.9749	1.6019	58.0251	-1.0547e-06
2512.41	9.00773	6.26689	10.9733	-34.8273	400.613	0.399055	-0.00608882	10.1083	3.29692	2	38	0.00544888	0.000496558	0	-8.79165e-05	1.5305	1.14933	27.8396	3.63824e-05	3.2316e-05	2.09887e-05	2.82596e-05	3.34009e-05	3.43311e-05	0.382727	0.258895	6.51344	8.70082e-07	7.16212e-07	5.89792e-07	4.40184e-07	9.25221e-07	4.91217e-07	0.0748069	0.0520449	0.0911304	34.8273	3296.92	4738.83	5772.88	-55.1727	0.0000000E+000	0.0000000E+000	0.0000000E+000	55.1727	0.0000000E+000	0.0000000E+000	0.0000000E+000	-55.1727	0.0000000E+000	0.0000000E+000	0.0000000E+000	-34.8273	0.0000000E+000	0.0000000E+000	0.0000000E+000	34.8273	1.43735	55.1727	-1.52849e-06
1995.64	9.57176	7.23826	12.0005	-37.0969	401.356	0.399027	-0.00632901	11.018	4.00845	2	38	0.0054423	0.000453508	0	-8.87944e-05	1.60378	2.03501	28.5812	3.55699e-05	3.12736e-05	2.75532e-05	4.88771e-05	2.02909e-05	3.71191e-05	0.395503	0.489102	7.04131	1.02144e-06	6.17655e-07	6.20234e-07	1.07266e-06	3.38325e-07	2.50157e-07	0.0664655	0.0502618	0.0833301	37.0969	4008.45	5300.72	6645.7	-52.9031	0.0000000E+000	0.0000000E+000	0.0000000E+000	52.9031	0.0000000E+000	0.0000000E+000	0.0000000E+000	-52.9031	0.0000000E+000	0.0000000E+000	0.0000000E+000	-37.0969	0.0000000E+000	0.0000000E+000	0.0000000E+000	37.0969	1.32238	52.9031	-8.77841e-07
1584.49	10.1336	8.45135	13.1953	-39.8279	402.1	0.399014	-0.0057332	11.8851	4.87551	2	38	0.00540343	0.000409498	0	-9.00005e-05	1.41011	0.791087	29.2776	1.25491e-05	2.64915e-05	2.18884e-05	2.62889e-05	1.65274e-05	5.55479e-05	0.471379	0.202176	7.75442	1.26284e-06	6.50959e-07	6.96846e-07	6.24197e-07	6.61171e-07	3.02898e-07	0.0582006	0.0485389	0.0757848	39.8279	4875.51	5845.98	7612.23	-50.1721	0.0000000E+000	0.0000000E+000	0.0000000E+000	50.1721	0.0000000E+000	0.0000000E+000	0.0000000E+000	-50.1721	0.0000000E+000	0.0000000E+000	0.0000000E+000	-39.8279	0.0000000E+000	0.0000000E+000	0.0000000E+000	39.8279	1.19905	50.1721	-1.2061e-06
1258.79	10.6102	9.92263	14.5271	-43.082	402.843	0.399041	-0.00635881	12.7421	5.94481	2	38	0.00533959	0.000367562	0	-9.14082e-05	1.46167	1.15999	28.5141	2.99373e-05	2.68446e-05	3.39518e-05	1.99256e-05	4.18334e-05	2.52505e-05	0.547084	0.303864	8.87061	1.47992e-06	4.21504e-07	3.87876e-07	2.45074e-07	6.22061e-07	5.06761e-07	0.050277	0.0470188	0.0688371	43.082	5944.81	6356.76	8703.4	-46.918	0.0000000E+000	0.0000000E+000	0.0000000E+000	46.918	0.0000000E+000	0.0000000E+000	0.0000000E+000	-46.918	0.0000000E+000	0.0000000E+000	0.0000000E+000	-43.082	0.0000000E+000	0.0000000E+000	0.0000000E+000	43.082	1.0693	46.918	-1.40777e-06
999.682	11.2418	11.6833	16.2135	-46.1033	403.587	0.399026	-0.00663251	13.6268	7.07572	2	38	0.00531927	0.000328077	0	-9.25082e-05	1.46216	0.495719	28.981	2.47436e-05	1.96412e-05	4.94361e-05	1.98305e-05	2.70972e-05	2.2371e-05	0.753187	0.376526	9.58642	1.69834e-06	4.29744e-07	5.81182e-07	9.79621e-07	9.71839e-07	5.74554e-07	0.0427644	0.0444439	0.061677	46.1033	7075.72	6808.33	9819.32	-43.8967	0.0000000E+000	0.0000000E+000	0.0000000E+000	43.8967	0.0000000E+000	0.0000000E+000	0.0000000E+000	-43.8967	0.0000000E+000	0.0000000E+000	0.0000000E+000	-46.1033	0.0000000E+000	0.0000000E+000	0.0000000E+000	46.1033	0.96221	43.8967	-1.09998e-06
794.239	11.807	13.839	18.1913	-49.5301	404.33	0.399002	-0.00554701	14.4799	8.38002	2	38	0.00527031	0.000289716	0	-9.38977e-05	1.33719	1.0114	28.263	4.06008e-05	2.80596e-05	1.69621e-05	1.59518e-05	1.58794e-05	2.43838e-05	0.878057	0.363929	10.9518	1.93967e-06	8.41332e-07	6.96265e-07	1.12539e-06	2.76236e-07	1.78333e-07	0.0356791	0.0418193	0.0549714	49.5301	8380.02	7149.61	11015.5	-40.4699	0.0000000E+000	0.0000000E+000	0.0000000E+000	40.4699	0.0000000E+000	0.0000000E+000	0.0000000E+000	-40.4699	0.0000000E+000	0.0000000E+000	0.0000000E+000	-49.5301	0.0000000E+000	0.0000000E+000	0.0000000E+000	49.5301	0.853174	40.4699	-1.38944e-06
631.01	12.4086	16.5933	20.7198	-53.2105	405.073	0.399018	-0.00492326	15.2003	9.74865	2	38	0.00524903	0.000253334	0	-9.47463e-05	1.91315	0.905884	29.325	3.45549e-05	6.52222e-05	1.98885e-05	2.72175e-05	3.50375e-05	3.25933e-05	0.984592	0.483296	12.5932	9.83195e-07	1.56248e-06	6.4704e-07	8.20636e-07	1.01614e-06	3.98447e-07	0.0289035	0.038651	0.0482629	53.2105	9748.65	7290.12	12173	-36.7895	0.0000000E+000	0.0000000E+000	0.0000000E+000	36.7895	0.0000000E+000	0.0000000E+000	0.0000000E+000	-36.7895	0.0000000E+000	0.0000000E+000	0.0000000E+000	-53.2105	0.0000000E+000	0.0000000E+000	0.0000000E+000	53.2105	0.747809	36.7895	-8.48616e-07
501.122	13.1763	19.9561	23.9136	-56.5647	405.816	0.399043	-0.00361246	15.9148	11.0831	2	38	0.00525315	0.000219672	0	-9.53504e-05	1.84605	0.745265	29.3766	4.20405e-05	2.50641e-05	3.49388e-05	4.96203e-05	3.87742e-05	3.87456e-05	1.05367	0.384973	14.5589	1.15228e-06	9.9054e-07	5.57685e-07	1.25867e-06	6.03998e-07	7.25364e-07	0.0230411	0.0348968	0.0418172	56.5647	11083.1	7317.78	13281	-33.4353	0.0000000E+000	0.0000000E+000	0.0000000E+000	33.4353	0.0000000E+000	0.0000000E+000	0.0000000E+000	-33.4353	0.0000000E+000	0.0000000E+000	0.0000000E+000	-56.5647	0.0000000E+000	0.0000000E+000	0.0000000E+000	56.5647	0.660263	33.4353	-6.04102e-07
398.089	14.4113	23.96	27.9601	-58.9742	406.561	0.399033	-0.00507408	16.686	12.2532	2	38	0.00525909	0.000188093	0	-9.63042e-05	1.5972	1.18912	28.6031	4.44072e-05	2.82032e-05	3.03687e-05	4.10389e-05	1.39919e-05	3.159e-05	1.2601	0.496883	16.6404	1.63003e-06	1.06957e-06	4.51888e-07	7.05421e-07	5.54235e-07	3.71513e-07	0.0184343	0.0306485	0.0357652	58.9742	12253.2	7369.97	14298.8	-31.0258	0.0000000E+000	0.0000000E+000	0.0000000E+000	31.0258	0.0000000E+000	0.0000000E+000	0.0000000E+000	-31.0258	0.0000000E+000	0.0000000E+000	0.0000000E+000	-58.9742	0.0000000E+000	0.0000000E+000	0.0000000E+000	58.9742	0.601474	31.0258	-9.53876e-07
316.316	14.8933	29.3662	32.9269	-63.1078	407.555	0.399027	-0.000686834	17.1337	13.6284	2	39	0.00539427	0.000163826	0	-9.68216e-05	1.26661	0.757634	26.6964	1.09667e-05	2.77889e-05	2.64697e-05	1.52095e-05	2.52763e-05	4.15476e-05	0.819109	0.196835	8.33554	9.14454e-07	3.10498e-07	3.83902e-07	6.06084e-07	2.75727e-07	4.70567e-07	0.0137369	0.027086	0.0303703	63.1078	13628.4	6911.74	15280.9	-26.8922	0.0000000E+000	0.0000000E+000	0.0000000E+000	26.8922	0.0000000E+000	0.0000000E+000	0.0000000E+000	-26.8922	0.0000000E+000	0.0000000E+000	0.0000000E+000	-63.1078	0.0000000E+000	0.0000000E+000	0.0000000E+000	63.1078	0.507158	26.8922	-5.17386e-07
251.206	16.3008	35.832	39.3655	-65.5381	408.298	0.399064	-0.000502506	17.6815	14.6497	2	39	0.00535484	0.000136029	0	-9.71137e-05	1.36795	0.701437	28.0494	2.93964e-05	4.00372e-05	3.05152e-05	1.71333e-05	2.42376e-05	2.52407e-05	0.888078	0.329183	10.6525	1.03508e-06	3.37652e-07	2.29051e-07	2.06139e-07	1.966e-07	3.16115e-07	0.010519	0.0231227	0.0254029	65.5381	14649.7	6664.47	16094.4	-24.4619	0.0000000E+000	0.0000000E+000	0.0000000E+000	24.4619	0.0000000E+000	0.0000000E+000	0.0000000E+000	-24.4619	0.0000000E+000	0.0000000E+000	0.0000000E+000	-65.5381	0.0000000E+000	0.0000000E+000	0.0000000E+000	65.5381	0.454923	24.4619	-2.92025e-07
199.553	17.2467	43.7743	47.0494	-68.496	409.044	0.399037	-0.000498965	18.2197	15.7715	2	39	0.00531161	0.000112894	0	-9.71526e-05	1.68871	1.13425	27.7004	1.22417e-05	4.18509e-05	3.51682e-05	4.06562e-05	2.33982e-05	4.32245e-05	0.878053	0.318617	12.0492	4.85534e-07	3.5074e-07	3.05447e-07	4.69534e-07	2.63441e-07	3.62788e-07	0.00779111	0.0197748	0.0212543	68.496	15771.5	6213.85	16951.5	-21.504	0.0000000E+000	0.0000000E+000	0.0000000E+000	21.504	0.0000000E+000	0.0000000E+000	0.0000000E+000	-21.504	0.0000000E+000	0.0000000E+000	0.0000000E+000	-68.496	0.0000000E+000	0.0000000E+000	0.0000000E+000	68.496	0.393992	21.504	-3.89782e-08
158.529	18.151	53.7164	56.7001	-71.3297	409.791	0.399028	-0.000293017	18.6898	16.7745	2	39	0.00528886	9.32777e-05	0	-9.71388e-05	1.28897	1.14774	28.0452	4.35259e-05	2.36942e-05	1.73462e-05	1.2303e-05	2.33536e-05	2.13465e-05	0.984229	0.318932	15.1662	5.60845e-07	3.10614e-07	2.32355e-07	4.43256e-07	8.7306e-08	3.30996e-07	0.00564588	0.0167085	0.0176366	71.3297	16774.5	5668.17	17706.3	-18.6703	0.0000000E+000	0.0000000E+000	0.0000000E+000	18.6703	0.0000000E+000	0.0000000E+000	0.0000000E+000	-18.6703	0.0000000E+000	0.0000000E+000	0.0000000E+000	-71.3297	0.0000000E+000	0.0000000E+000	0.0000000E+000	71.3297	0.337904	18.6703	1.382e-08
125.927	19.7234	65.5728	68.4748	-73.2594	410.532	0.399037	-0.000572959	19.2743	17.6752	2	39	0.00523748	7.64877e-05	0	-9.73367e-05	1.67862	1.01672	27.7615	3.54345e-05	3.1115e-05	2.84463e-05	2.80025e-05	4.09107e-05	2.77068e-05	1.07114	0.52443	17.7776	4.6085e-07	3.47577e-07	2.96241e-07	2.91416e-07	1.58759e-07	2.67012e-07	0.00420649	0.013985	0.0146039	73.2594	17675.2	5316.46	18457.4	-16.7406	0.0000000E+000	0.0000000E+000	0.0000000E+000	16.7406	0.0000000E+000	0.0000000E+000	0.0000000E+000	-16.7406	0.0000000E+000	0.0000000E+000	0.0000000E+000	-73.2594	0.0000000E+000	0.0000000E+000	0.0000000E+000	73.2594	0.300787	16.7406	-1.9787e-07
99.9682	21.9411	81.0154	83.9339	-74.8463	411.263	0.399065	-0.000667267	19.6513	18.3084	2	39	0.0052323	6.23384e-05	0	-9.74387e-05	1.48261	0.817895	27.0964	2.44125e-05	1.02402e-05	2.16205e-05	2.0067e-05	5.12931e-05	4.10028e-05	0.984208	0.649517	21.8716	3.61639e-07	2.21951e-07	2.01434e-07	1.23526e-07	2.68868e-07	2.4579e-07	0.00311446	0.0114999	0.0119141	74.8463	18308.4	4958.4	18968	-15.1537	0.0000000E+000	0.0000000E+000	0.0000000E+000	15.1537	0.0000000E+000	0.0000000E+000	0.0000000E+000	-15.1537	0.0000000E+000	0.0000000E+000	0.0000000E+000	-74.8463	0.0000000E+000	0.0000000E+000	0.0000000E+000	74.8463	0.270826	15.1537	-1.0202e-07