File: Python/Data/GoldElectrode/240308/240308-CVEIS_PostActivation-Fe2Fe3_5mM-HCl1M-0RPM-Ag_AgCl_BLF8-Au_RDE-C15_02_PEIS_C15.mpt
EC-Lab ASCII FILE
Nb header lines : 66

Potentio Electrochemical Impedance Spectroscopy

Run on channel : 15 (SN 19485)
User :
Electrode connection : standard
Potential control : Ewe
Ewe ctrl range : min = -1.00 V, max = 1.00 V
Ewe,I filtering : <None>
Safety Limits :
	Do not start on E overload
Channel : Floating
Acquisition started on : 03/08/2024 17:26:24.349
Loaded Setting File :  C:\Data\mathias\GoldElectrode\240308-CVEIS_PostActivation-Fe2Fe3_5mM-HCl1M-0RPM-Ag_AgCl_BLF8-Au_RDE-C15.mps
Saved on :
	File : 240308-CVEIS_PostActivation-Fe2Fe3_5mM-HCl1M-0RPM-Ag_AgCl_BLF8-Au_RDE-C15_02_PEIS_C15.mpr
	Directory : C:\Data\mathias\GoldElectrode\
	Host : 192.168.0.1
Device : VMP-300 (SN 0826)
Address : USB
EC-Lab for windows v11.52 (software)
Internet server v11.52 (firmware)
Command interpretor v11.52 (firmware)
Electrode material :
Initial state :
Electrolyte :
Comments :
Cable : special
Electrode surface area : 0.001 cm²
Characteristic mass : 0.001 g
Equivalent Weight : 0.000 g/eq.
Density : 0.000 g/cm3
Volume (V) : 0.001 cm³
Record EIS quality indicators
Cycle Definition : Charge/Discharge alternance
Mode                Single sine
E (V)               0.0000
vs.                 Eoc
tE (h:m:s)          0:01:0.0000
record              0
dI                  0.000
unit dI             mA
dt (s)              0.000
fi                  400.000
unit fi             kHz
ff                  100.000
unit ff             mHz
Nd                  10
Points              per decade
spacing             Logarithmic
Va (mV)             5.0
pw                  0.10
Na                  3
corr                0
E range min (V)     -1.000
E range max (V)     1.000
I Range             Auto
Bandwidth           8
nc cycles           1
goto Ns'            0
nr cycles           0
inc. cycle          1

freq/Hz	Re(Z)/Ohm	-Im(Z)/Ohm	|Z|/Ohm	Phase(Z)/deg	time/s	<Ewe>/V	<I>/mA	Cs/µF	Cp/µF	cycle number	I Range	|Ewe|/V	|I|/A	Ns	(Q-Qo)/mA.h	THD Ewe/%	NSD Ewe/%	NSR Ewe/%	|Ewe h2|/V	|Ewe h3|/V	|Ewe h4|/V	|Ewe h5|/V	|Ewe h6|/V	|Ewe h7|/V	THD I/%	NSD I/%	NSR I/%	|I h2|/A	|I h3|/A	|I h4|/A	|I h5|/A	|I h6|/A	|I h7|/A	Re(Y)/Ohm-1	Im(Y)/Ohm-1	|Y|/Ohm-1	Phase(Y)/deg	Re(C)/nF	Im(C)/nF	|C|/nF	Phase(C)/deg	Re(M)	Im(M)	|M|	Phase(M)/deg	Re(Permittivity)	Im(Permittivity)	|Permittivity|	Phase(Permittivity)/deg	Re(Resistivity)/Ohm.cm	Im(Resistivity)/Ohm.cm	|Resistivity|/Ohm.cm	Phase(Resistivity)/deg	Re(Conductivity)/mS/cm	Im(Conductivity)/mS/cm	|Conductivity|/mS/cm	Phase(Conductivity)/deg	Tan(Delta)	Loss Angle(Delta)/deg	dq/mA.h
399996	3.31389	1.21979	3.53125	-20.2079	263.592	0.45114	-0.00314322	0.326196	0.0389218	1	38	0.00463967	0.00131389	0	9.14228e-05	-1	-1	-1	0	0	0	0	0	0	-1	-1	-1	0	0	0	0	0	0	0.265754	0.0978201	0.283186	20.2079	38.9218	105.741	112.677	-69.7921	0.0000000E+000	0.0000000E+000	0.0000000E+000	69.7921	0.0000000E+000	0.0000000E+000	0.0000000E+000	-69.7921	0.0000000E+000	0.0000000E+000	0.0000000E+000	-20.2079	0.0000000E+000	0.0000000E+000	0.0000000E+000	20.2079	2.71677	69.7921	9.14228e-05
252347	3.23313	0.826027	3.33698	-14.3318	265.886	0.45113	-0.00320838	0.763531	0.0467852	1	38	0.00512346	0.00153536	0	8.91187e-05	-1	-1	-1	0	0	0	0	0	0	-1	-1	-1	0	0	0	0	0	0	0.290346	0.07418	0.299672	14.3318	46.7852	183.12	189.002	-75.6682	0.0000000E+000	0.0000000E+000	0.0000000E+000	75.6682	0.0000000E+000	0.0000000E+000	0.0000000E+000	-75.6682	0.0000000E+000	0.0000000E+000	0.0000000E+000	-14.3318	0.0000000E+000	0.0000000E+000	0.0000000E+000	14.3318	3.91407	75.6682	-5.61429e-07
159201	3.25888	0.310672	3.27366	-5.4456	268.616	0.451131	-0.032275	3.21791	0.0289809	1	37	0.00514752	0.00157241	0	6.91612e-05	-1	-1	-1	0	0	0	0	0	0	-1	-1	-1	0	0	0	0	0	0	0.30409	0.0289892	0.305469	5.4456	28.9809	304.003	305.381	-84.5544	0.0000000E+000	0.0000000E+000	0.0000000E+000	84.5544	0.0000000E+000	0.0000000E+000	0.0000000E+000	-84.5544	0.0000000E+000	0.0000000E+000	0.0000000E+000	-5.4456	0.0000000E+000	0.0000000E+000	0.0000000E+000	5.4456	10.4898	84.5544	-7.39561e-06
100431	3.29937	0.346845	3.31755	-6.00115	270.913	0.451127	-0.0305814	4.56898	0.0499407	1	37	0.00521235	0.00157114	0	5.04201e-05	1.67836	0.75066	30.5754	3.87381e-05	3.64735e-05	2.69263e-05	4.2348e-05	2.76578e-05	2.66124e-05	0.605372	0.431537	11.1643	3.65651e-06	3.28642e-06	1.97303e-06	1.74229e-06	3.55386e-06	5.96755e-06	0.299775	0.0315137	0.301427	6.00115	49.9407	475.062	477.68	-83.9988	0.0000000E+000	0.0000000E+000	0.0000000E+000	83.9988	0.0000000E+000	0.0000000E+000	0.0000000E+000	-83.9988	0.0000000E+000	0.0000000E+000	0.0000000E+000	-6.00115	0.0000000E+000	0.0000000E+000	0.0000000E+000	6.00115	9.51252	83.9988	-9.70342e-06
63362.9	3.36085	0.397	3.38421	-6.73685	273.209	0.451158	-0.0296136	6.32695	0.0870684	1	37	0.00515834	0.00152424	0	3.14683e-05	1.81265	0.774829	30.8726	2.92995e-05	3.36773e-05	3.96258e-05	3.91074e-05	3.86749e-05	2.33533e-05	0.562204	0.309811	11.5744	4.53499e-06	3.00075e-06	3.91451e-06	2.70355e-06	2.01353e-06	3.66976e-06	0.293449	0.0346637	0.29549	6.73685	87.0683	737.086	742.211	-83.2632	0.0000000E+000	0.0000000E+000	0.0000000E+000	83.2632	0.0000000E+000	0.0000000E+000	0.0000000E+000	-83.2632	0.0000000E+000	0.0000000E+000	0.0000000E+000	-6.73685	0.0000000E+000	0.0000000E+000	0.0000000E+000	6.73685	8.4656	83.2632	-1.08049e-05
39971.8	3.45741	0.452006	3.48683	-7.44835	275.505	0.45114	-0.0365928	8.8089	0.14803	1	37	0.00514071	0.00147432	0	9.77283e-06	1.31828	0.910106	31.1103	1.67304e-05	2.86357e-05	1.99649e-05	2.77049e-05	3.03959e-05	2.37438e-05	0.519796	0.430202	11.9814	2.71906e-06	3.37193e-06	2.87847e-06	3.3406e-06	2.78333e-06	2.78421e-06	0.284373	0.0371777	0.286793	7.44835	148.03	1132.28	1141.92	-82.5517	0.0000000E+000	0.0000000E+000	0.0000000E+000	82.5517	0.0000000E+000	0.0000000E+000	0.0000000E+000	-82.5517	0.0000000E+000	0.0000000E+000	0.0000000E+000	-7.44835	0.0000000E+000	0.0000000E+000	0.0000000E+000	7.44835	7.64903	82.5517	-1.01094e-05
25219	3.58771	0.509825	3.62375	-8.08777	277.801	0.451144	-0.0324239	12.3786	0.245017	1	37	0.00514208	0.00141899	0	-1.67193e-05	1.91322	1.61344	31.546	2.86705e-05	2.99855e-05	3.68944e-05	4.5419e-05	3.21111e-05	3.69224e-05	0.634783	0.546653	12.4077	4.645e-06	3.95422e-06	2.89172e-06	2.93769e-06	3.09079e-06	3.09488e-06	0.273212	0.0388243	0.275957	8.08777	245.017	1724.22	1741.54	-81.9122	0.0000000E+000	0.0000000E+000	0.0000000E+000	81.9122	0.0000000E+000	0.0000000E+000	0.0000000E+000	-81.9122	0.0000000E+000	0.0000000E+000	0.0000000E+000	-8.08777	0.0000000E+000	0.0000000E+000	0.0000000E+000	8.08777	7.03714	81.9122	-1.37369e-05
15912.6	3.64015	0.647384	3.69727	-10.0844	280.097	0.451131	-0.0263938	15.4496	0.473672	1	37	0.00510084	0.00137962	0	-3.89297e-05	1.61976	0.771457	31.302	2.0739e-05	1.68363e-05	3.05716e-05	4.7504e-05	3.00788e-05	3.52317e-05	0.705549	0.466967	12.6027	2.84057e-06	2.63927e-06	4.9649e-06	2.93817e-06	4.61769e-06	3.46e-06	0.266292	0.0473587	0.27047	10.0844	473.672	2663.39	2705.19	-79.9156	0.0000000E+000	0.0000000E+000	0.0000000E+000	79.9156	0.0000000E+000	0.0000000E+000	0.0000000E+000	-79.9156	0.0000000E+000	0.0000000E+000	0.0000000E+000	-10.0844	0.0000000E+000	0.0000000E+000	0.0000000E+000	10.0844	5.62286	79.9156	-1.12093e-05
10039.3	3.77101	0.822693	3.85971	-12.3069	282.393	0.451129	-0.0317911	19.2698	0.875473	1	37	0.00497101	0.00128792	0	-5.8338e-05	2.04967	0.783401	32.4515	2.99688e-05	2.36515e-05	2.43756e-05	6.43901e-05	3.05628e-05	3.96359e-05	0.721767	0.496683	13.8737	2.84402e-06	5.75778e-06	4.58584e-06	2.36301e-06	2.78446e-06	2.26688e-06	0.253133	0.055224	0.259087	12.3069	875.473	4012.95	4107.33	-77.6931	0.0000000E+000	0.0000000E+000	0.0000000E+000	77.6931	0.0000000E+000	0.0000000E+000	0.0000000E+000	-77.6931	0.0000000E+000	0.0000000E+000	0.0000000E+000	-12.3069	0.0000000E+000	0.0000000E+000	0.0000000E+000	12.3069	4.58375	77.6931	-1.08059e-05
6332.63	3.97684	1.1191	4.1313	-15.7168	285.024	0.451032	-0.00386566	22.4579	1.64789	1	38	0.00491082	0.00118869	0	-7.57199e-05	1.84334	0.843823	32.3606	5.77141e-05	2.18448e-05	1.86127e-05	2.38627e-05	3.70057e-05	4.10077e-05	0.188273	0.0852606	2.46469	1.31031e-06	6.77448e-07	6.17802e-07	8.29648e-07	6.21854e-07	6.08296e-07	0.233005	0.0655682	0.242054	15.7168	1647.89	5855.99	6083.44	-74.2832	0.0000000E+000	0.0000000E+000	0.0000000E+000	74.2832	0.0000000E+000	0.0000000E+000	0.0000000E+000	-74.2832	0.0000000E+000	0.0000000E+000	0.0000000E+000	-15.7168	0.0000000E+000	0.0000000E+000	0.0000000E+000	15.7168	3.55362	74.2832	-3.18511e-06
3993.72	4.3171	1.53781	4.58282	-19.6066	287.693	0.451011	-0.00310785	25.9143	2.91797	1	38	0.00495049	0.00108023	0	-7.77989e-05	1.30058	0.692907	32.1377	1.96763e-05	2.06238e-05	2.21033e-05	2.62894e-05	3.38983e-05	2.41501e-05	0.16885	0.157012	2.65503	8.88328e-07	1.03913e-06	4.76176e-07	5.59537e-07	6.50284e-07	3.79124e-07	0.205554	0.0732214	0.218206	19.6066	2917.97	8191.61	8695.81	-70.3934	0.0000000E+000	0.0000000E+000	0.0000000E+000	70.3934	0.0000000E+000	0.0000000E+000	0.0000000E+000	-70.3934	0.0000000E+000	0.0000000E+000	0.0000000E+000	-19.6066	0.0000000E+000	0.0000000E+000	0.0000000E+000	19.6066	2.8073	70.3934	5.12612e-07
2519.19	4.74568	1.97428	5.13997	-22.5881	289.904	0.450983	-0.00369064	32	4.72115	1	38	0.00527636	0.00102654	0	-8.11808e-05	1.51072	1.12154	29.515	3.50374e-05	3.58252e-05	2.42277e-05	2.42891e-05	2.72797e-05	2.95295e-05	0.204719	0.141567	2.80939	1.10935e-06	1.07742e-06	6.68607e-07	7.23511e-07	4.58732e-07	5.2075e-07	0.179629	0.0747289	0.194554	22.5881	4721.15	11348.5	12291.3	-67.4119	0.0000000E+000	0.0000000E+000	0.0000000E+000	67.4119	0.0000000E+000	0.0000000E+000	0.0000000E+000	-67.4119	0.0000000E+000	0.0000000E+000	0.0000000E+000	-22.5881	0.0000000E+000	0.0000000E+000	0.0000000E+000	22.5881	2.40375	67.4119	-1.82032e-06
1589.49	5.34991	2.45775	5.88745	-24.6741	292.114	0.451054	-0.00308923	40.7403	7.09978	1	38	0.00527538	0.000896038	0	-8.29519e-05	1.58463	0.914226	29.8346	1.77796e-05	3.778e-05	2.83673e-05	3.35853e-05	2.40572e-05	4.15128e-05	0.243619	0.0744861	3.24643	1.01548e-06	1.15258e-06	5.03693e-07	7.83588e-07	7.24136e-07	8.18106e-07	0.154345	0.0709061	0.169853	24.6741	7099.78	15454.5	17007.3	-65.3259	0.0000000E+000	0.0000000E+000	0.0000000E+000	65.3259	0.0000000E+000	0.0000000E+000	0.0000000E+000	-65.3259	0.0000000E+000	0.0000000E+000	0.0000000E+000	-24.6741	0.0000000E+000	0.0000000E+000	0.0000000E+000	24.6741	2.17675	65.3259	-1.55524e-06
1002.75	6.10106	2.9933	6.79579	-26.1335	294.329	0.451037	-0.00311345	53.0245	10.2872	1	38	0.00520879	0.000766473	0	-8.39246e-05	1.86152	1.50786	29.9781	2.97619e-05	4.81989e-05	3.78989e-05	3.52461e-05	3.62382e-05	3.80417e-05	0.281833	0.202951	3.79117	1.57908e-06	7.70678e-07	6.5761e-07	6.64693e-07	3.70525e-07	4.23909e-07	0.132107	0.0648141	0.14715	26.1335	10287.2	20967.8	23355.4	-63.8665	0.0000000E+000	0.0000000E+000	0.0000000E+000	63.8665	0.0000000E+000	0.0000000E+000	0.0000000E+000	-63.8665	0.0000000E+000	0.0000000E+000	0.0000000E+000	-26.1335	0.0000000E+000	0.0000000E+000	0.0000000E+000	26.1335	2.03824	63.8665	-3.20858e-07
632.773	6.99873	3.52646	7.83697	-26.7423	296.542	0.451068	-0.001717	71.3236	14.4416	1	38	0.00514921	0.000657041	0	-8.6173e-05	1.90296	0.955115	30.5807	3.3165e-05	1.49146e-05	5.20788e-05	3.98932e-05	2.7118e-05	4.77598e-05	0.336512	0.143962	4.43629	5.51906e-07	1.31653e-06	7.84462e-07	1.29616e-06	2.65e-07	5.80329e-07	0.113952	0.0574173	0.1276	26.7423	14441.6	28661.2	32094	-63.2577	0.0000000E+000	0.0000000E+000	0.0000000E+000	63.2577	0.0000000E+000	0.0000000E+000	0.0000000E+000	-63.2577	0.0000000E+000	0.0000000E+000	0.0000000E+000	-26.7423	0.0000000E+000	0.0000000E+000	0.0000000E+000	26.7423	1.98463	63.2577	-7.93274e-07
399.106	7.97304	4.14002	8.98383	-27.4407	298.758	0.451032	-0.00147308	96.3228	20.4556	1	38	0.00508959	0.000566528	0	-8.66563e-05	1.46796	1.21944	31.0045	2.83489e-05	1.52074e-05	2.91448e-05	3.12991e-05	3.63567e-05	3.27384e-05	0.349448	0.188004	5.1651	1.12389e-06	8.49914e-07	6.0739e-07	5.45135e-07	6.80077e-07	4.73802e-07	0.0987873	0.0512955	0.111311	27.4407	20455.6	39394.3	44388.5	-62.5593	0.0000000E+000	0.0000000E+000	0.0000000E+000	62.5593	0.0000000E+000	0.0000000E+000	0.0000000E+000	-62.5593	0.0000000E+000	0.0000000E+000	0.0000000E+000	-27.4407	0.0000000E+000	0.0000000E+000	0.0000000E+000	27.4407	1.92585	62.5593	-3.95903e-07
251.853	9.20615	4.9025	10.4301	-28.0364	300.966	0.451052	-0.000867956	128.9	28.478	1	38	0.00510911	0.000489841	0	-8.72244e-05	1.60877	0.948115	30.8733	4.3719e-05	3.30558e-05	2.0243e-05	3.51099e-05	2.82161e-05	2.78987e-05	0.373455	0.226417	5.94622	1.21417e-06	6.03374e-07	6.00057e-07	2.91976e-07	4.69916e-07	7.43559e-07	0.0846249	0.0450648	0.095876	28.0364	28478	53477.4	60587.4	-61.9636	0.0000000E+000	0.0000000E+000	0.0000000E+000	61.9636	0.0000000E+000	0.0000000E+000	0.0000000E+000	-61.9636	0.0000000E+000	0.0000000E+000	0.0000000E+000	-28.0364	0.0000000E+000	0.0000000E+000	0.0000000E+000	28.0364	1.87785	61.9636	-3.88851e-07
158.831	10.5	5.77065	11.9813	-28.7925	303.183	0.451065	-0.00144143	173.644	40.2813	1	38	0.00507378	0.000423475	0	-8.82654e-05	1.71448	0.635529	30.6029	3.31756e-05	3.96559e-05	2.35766e-05	3.06536e-05	3.6363e-05	3.55913e-05	0.379017	0.270575	6.80424	7.84322e-07	5.43971e-07	8.30599e-07	5.96143e-07	2.83806e-07	5.26774e-07	0.0731448	0.0401992	0.0834634	28.7925	40281.3	73294.1	83633.8	-61.2075	0.0000000E+000	0.0000000E+000	0.0000000E+000	61.2075	0.0000000E+000	0.0000000E+000	0.0000000E+000	-61.2075	0.0000000E+000	0.0000000E+000	0.0000000E+000	-28.7925	0.0000000E+000	0.0000000E+000	0.0000000E+000	28.7925	1.81956	61.2075	-9.40057e-07
100.224	12.0852	6.82515	13.8793	-29.4557	305.388	0.451067	-0.00114539	232.667	56.2633	1	38	0.0050641	0.000364868	0	-8.82911e-05	1.60336	0.836799	30.5014	4.31692e-05	3.68273e-05	3.13968e-05	2.14212e-05	2.16586e-05	2.26041e-05	0.382399	0.22422	8.00634	6.54977e-07	5.32166e-07	4.86416e-07	5.24088e-07	4.36347e-07	4.35323e-07	0.0627364	0.0354306	0.0720499	29.4557	56263.3	99624.5	114414	-60.5442	0.0000000E+000	0.0000000E+000	0.0000000E+000	60.5442	0.0000000E+000	0.0000000E+000	0.0000000E+000	-60.5442	0.0000000E+000	0.0000000E+000	0.0000000E+000	-29.4557	0.0000000E+000	0.0000000E+000	0.0000000E+000	29.4557	1.77068	60.5442	-7.1028e-08
63.2394	13.8472	8.41146	16.2018	-31.2765	307.552	0.451055	-0.000908926	299.199	80.6449	1	38	0.00506295	0.000312493	0	-8.83615e-05	1.34186	0.529689	31.9864	2.86948e-05	1.72642e-05	2.80289e-05	2.61535e-05	2.65049e-05	2.46861e-05	0.50438	0.206454	9.29648	4.51314e-07	4.94888e-07	3.73966e-07	1.08137e-06	5.52658e-07	4.82995e-07	0.0527517	0.0320438	0.0617215	31.2765	80644.9	132760	155335	-58.7235	0.0000000E+000	0.0000000E+000	0.0000000E+000	58.7235	0.0000000E+000	0.0000000E+000	0.0000000E+000	-58.7235	0.0000000E+000	0.0000000E+000	0.0000000E+000	-31.2765	0.0000000E+000	0.0000000E+000	0.0000000E+000	31.2765	1.64623	58.7235	-8.4394e-08
39.8851	16.0251	10.3243	19.0629	-32.7919	309.939	0.451015	-0.000369055	386.5	113.368	1	39	0.00508306	0.000266647	0	-8.89192e-05	1.60983	0.806138	31.037	2.57891e-05	1.97384e-05	2.23562e-05	4.89121e-05	2.53575e-05	3.82465e-05	0.298637	0.119553	4.64152	5.11135e-07	1.57793e-07	1.82141e-07	3.7633e-07	2.1992e-07	1.87366e-07	0.0440984	0.0284106	0.0524579	32.7919	113368	175967	209325	-57.2081	0.0000000E+000	0.0000000E+000	0.0000000E+000	57.2081	0.0000000E+000	0.0000000E+000	0.0000000E+000	-57.2081	0.0000000E+000	0.0000000E+000	0.0000000E+000	-32.7919	0.0000000E+000	0.0000000E+000	0.0000000E+000	32.7919	1.55218	57.2081	4.06076e-08
25.1691	18.7274	12.6156	22.5803	-33.966	312.046	0.451035	-0.000211938	501.237	156.459	1	39	0.00507417	0.000224716	0	-8.99333e-05	1.54829	0.890154	32.016	2.36343e-05	3.08414e-05	2.20717e-05	3.67655e-05	1.97169e-05	3.36944e-05	0.404202	0.163021	5.79143	5.1731e-07	2.33091e-07	2.44439e-07	2.99149e-07	3.26776e-07	2.75418e-07	0.0367297	0.0247428	0.0442864	33.966	156459	232258	280041	-56.034	0.0000000E+000	0.0000000E+000	0.0000000E+000	56.034	0.0000000E+000	0.0000000E+000	0.0000000E+000	-56.034	0.0000000E+000	0.0000000E+000	0.0000000E+000	-33.966	0.0000000E+000	0.0000000E+000	0.0000000E+000	33.966	1.48446	56.034	-5.57915e-07
15.879	22.094	15.6208	27.0583	-35.2609	314.152	0.451024	1.46987e-05	641.642	213.844	1	39	0.00507173	0.000187437	0	-9.06635e-05	1.51002	1.02198	31.7334	2.34465e-05	1.60585e-05	3.08913e-05	3.57026e-05	3.26262e-05	2.3692e-05	0.475616	0.237966	6.94008	5.84038e-07	2.23733e-07	3.63741e-07	3.74778e-07	2.3564e-07	1.24445e-07	0.0301767	0.0213354	0.0369572	35.2609	213844	302460	370420	-54.7391	0.0000000E+000	0.0000000E+000	0.0000000E+000	54.7391	0.0000000E+000	0.0000000E+000	0.0000000E+000	-54.7391	0.0000000E+000	0.0000000E+000	0.0000000E+000	-35.2609	0.0000000E+000	0.0000000E+000	0.0000000E+000	35.2609	1.4144	54.7391	-9.79603e-07
10.016	26.0729	19.365	32.4777	-36.6022	316.382	0.451026	-0.000168887	820.553	291.724	1	39	0.00505398	0.000155614	0	-8.97516e-05	1.26565	0.733227	31.7729	1.06294e-05	2.51979e-05	3.15841e-05	1.63653e-05	1.90938e-05	3.79007e-05	0.510852	0.218645	8.10458	4.69239e-07	2.13912e-07	2.01925e-07	4.63236e-07	1.85476e-07	1.76554e-07	0.0247184	0.0183589	0.0307904	36.6022	291724	392775	489259	-53.3978	0.0000000E+000	0.0000000E+000	0.0000000E+000	53.3978	0.0000000E+000	0.0000000E+000	0.0000000E+000	-53.3978	0.0000000E+000	0.0000000E+000	0.0000000E+000	-36.6022	0.0000000E+000	0.0000000E+000	0.0000000E+000	36.6022	1.34639	53.3978	-1.16902e-08
6.31569	31.1099	24.3425	39.5016	-38.042	318.971	0.451049	-0.000639681	1035.23	393.128	1	39	0.00505521	0.000127975	0	-8.93977e-05	1.1897	0.733175	21.7867	1.88082e-05	3.38821e-05	1.42545e-05	2.67117e-05	1.9185e-05	2.44244e-05	0.592695	0.390785	7.22175	5.42341e-07	2.73019e-07	2.20735e-07	2.32018e-07	1.16406e-07	2.47161e-07	0.0199374	0.0156004	0.0253154	38.042	393128	502421	637947	-51.958	0.0000000E+000	0.0000000E+000	0.0000000E+000	51.958	0.0000000E+000	0.0000000E+000	0.0000000E+000	-51.958	0.0000000E+000	0.0000000E+000	0.0000000E+000	-38.042	0.0000000E+000	0.0000000E+000	0.0000000E+000	38.042	1.27801	51.958	1.44293e-06
3.98597	37.2716	30.3367	48.0571	-39.1434	322.507	0.451056	-0.000360811	1316.19	524.492	1	39	0.00504316	0.000104941	0	-8.93756e-05	0.979411	0.344579	15.0503	1.4676e-05	2.31576e-05	2.49969e-05	9.7397e-06	1.17392e-05	2.14462e-05	0.533323	0.212923	6.33956	3.40009e-07	1.42689e-07	2.04172e-07	2.29338e-07	1.62374e-07	1.76278e-07	0.0161385	0.0131357	0.0208086	39.1434	524493	644390	830861	-50.8566	0.0000000E+000	0.0000000E+000	0.0000000E+000	50.8566	0.0000000E+000	0.0000000E+000	0.0000000E+000	-50.8566	0.0000000E+000	0.0000000E+000	0.0000000E+000	-39.1434	0.0000000E+000	0.0000000E+000	0.0000000E+000	39.1434	1.2286	50.8566	5.30995e-07
2.51368	45.402	38.2964	59.3966	-40.1475	328.46	0.451062	-0.000242879	1653.3	687.298	1	40	0.00506824	8.53287e-05	0	-9.10448e-05	0.756071	0.557771	16.6618	1.92882e-05	7.5943e-06	6.97133e-06	2.05595e-05	1.81141e-05	1.28179e-05	0.448727	0.0975513	1.21168	3.45908e-07	8.88517e-08	3.57276e-08	1.18362e-07	3.48322e-08	4.07049e-08	0.0128692	0.0108551	0.016836	40.1475	687298	814821	1.06598e+06	-49.8525	0.0000000E+000	0.0000000E+000	0.0000000E+000	49.8525	0.0000000E+000	0.0000000E+000	0.0000000E+000	-49.8525	0.0000000E+000	0.0000000E+000	0.0000000E+000	-40.1475	0.0000000E+000	0.0000000E+000	0.0000000E+000	40.1475	1.18554	49.8525	-1.1153e-06
1.5871	55.3534	47.7988	73.135	-40.8113	336.09	0.451051	-0.000212079	2097.97	896.153	1	40	0.00505365	6.91002e-05	0	-8.89697e-05	0.603661	0.697731	13.1949	8.46248e-06	9.27924e-06	1.37399e-05	6.52434e-06	1.09232e-05	1.78028e-05	0.378937	0.118304	1.21188	2.33844e-07	3.30219e-08	2.14734e-08	9.93594e-08	2.26033e-08	2.43347e-08	0.0103489	0.00893648	0.0136733	40.8113	896153	1.03779e+06	1.37117e+06	-49.1887	0.0000000E+000	0.0000000E+000	0.0000000E+000	49.1887	0.0000000E+000	0.0000000E+000	0.0000000E+000	-49.1887	0.0000000E+000	0.0000000E+000	0.0000000E+000	-40.8113	0.0000000E+000	0.0000000E+000	0.0000000E+000	40.8113	1.15805	49.1887	7.42962e-07
1.00122	68.0388	60.4768	91.0314	-41.6325	347.745	0.451045	-0.00021223	2628.47	1160.11	1	40	0.00506248	5.56125e-05	0	-8.90234e-05	0.565517	0.313924	10.1412	7.28296e-06	4.91128e-06	1.554e-05	1.58823e-05	6.33497e-06	1.17363e-05	0.500577	0.248482	1.24795	2.47989e-07	5.80504e-08	3.93353e-08	8.68586e-08	1.73821e-08	3.27869e-08	0.00821058	0.00729804	0.0109852	41.6325	1.16011e+06	1.30517e+06	1.74623e+06	-48.3675	0.0000000E+000	0.0000000E+000	0.0000000E+000	48.3675	0.0000000E+000	0.0000000E+000	0.0000000E+000	-48.3675	0.0000000E+000	0.0000000E+000	0.0000000E+000	-41.6325	0.0000000E+000	0.0000000E+000	0.0000000E+000	41.6325	1.12504	48.3675	3.79217e-06
0.631645	83.7333	75.8041	112.949	-42.1547	365.75	0.45104	-0.000204681	3323.95	1497.18	1	40	0.00505572	4.4761e-05	0	-9.46883e-05	0.47061	0.234301	8.05818	9.05489e-06	1.02826e-05	1.12842e-05	8.01696e-06	6.94873e-06	1.04319e-05	0.447222	0.192332	1.37628	1.71295e-07	2.61154e-08	2.52913e-08	8.16879e-08	3.51127e-08	3.14329e-08	0.00656344	0.00594191	0.00885354	42.1547	1.49718e+06	1.65378e+06	2.23082e+06	-47.8453	0.0000000E+000	0.0000000E+000	0.0000000E+000	47.8453	0.0000000E+000	0.0000000E+000	0.0000000E+000	-47.8453	0.0000000E+000	0.0000000E+000	0.0000000E+000	-42.1547	0.0000000E+000	0.0000000E+000	0.0000000E+000	42.1547	1.1046	47.8453	-2.55155e-06
0.398211	103.732	95.5244	141.015	-42.6413	393.892	0.451051	-0.00017412	4184.01	1919.95	1	40	0.00505952	3.58793e-05	0	-9.08243e-05	0.394208	0.201243	6.31512	6.71474e-06	7.71443e-06	8.80691e-06	7.78565e-06	9.92307e-06	5.84215e-06	0.473026	0.294084	1.47192	1.36335e-07	4.0207e-08	3.26081e-08	5.24801e-08	3.38533e-08	1.18309e-08	0.00521653	0.00480379	0.00709144	42.6413	1.91995e+06	2.08492e+06	2.83427e+06	-47.3587	0.0000000E+000	0.0000000E+000	0.0000000E+000	47.3587	0.0000000E+000	0.0000000E+000	0.0000000E+000	-47.3587	0.0000000E+000	0.0000000E+000	0.0000000E+000	-42.6413	0.0000000E+000	0.0000000E+000	0.0000000E+000	42.6413	1.08592	47.3587	-4.15513e-07
0.251222	128.885	120.036	176.125	-42.964	446.151	0.451048	-0.000110534	5277.78	2451.5	1	41	0.00505824	2.87196e-05	0	-0.000100316	0.349689	0.208228	6.61876	7.21882e-06	6.98336e-06	7.09832e-06	4.65264e-06	9.15865e-06	5.67564e-06	0.44491	0.0753142	0.82934	1.19534e-07	8.87094e-09	9.62187e-09	4.00216e-08	1.28893e-08	6.16571e-09	0.0041549	0.00386963	0.00567778	42.964	2.4515e+06	2.63223e+06	3.59701e+06	-47.036	0.0000000E+000	0.0000000E+000	0.0000000E+000	47.036	0.0000000E+000	0.0000000E+000	0.0000000E+000	-47.036	0.0000000E+000	0.0000000E+000	0.0000000E+000	-42.964	0.0000000E+000	0.0000000E+000	0.0000000E+000	42.964	1.07372	47.036	-3.72301e-06
0.158419	160.516	150.632	220.126	-43.1805	515.917	0.451048	-7.74834e-05	6669.55	3123.12	1	41	0.00505383	2.29588e-05	0	-9.32426e-05	0.2674	0.179429	4.82988	6.11778e-06	7.63035e-06	5.10407e-06	3.48857e-06	3.61895e-06	5.2944e-06	0.516137	0.101063	0.938088	1.11327e-07	1.42206e-08	9.19978e-09	3.35634e-08	1.03963e-08	7.71151e-09	0.00331265	0.00310867	0.00454285	43.1805	3.12312e+06	3.32805e+06	4.56397e+06	-46.8195	0.0000000E+000	0.0000000E+000	0.0000000E+000	46.8195	0.0000000E+000	0.0000000E+000	0.0000000E+000	-46.8195	0.0000000E+000	0.0000000E+000	0.0000000E+000	-43.1805	0.0000000E+000	0.0000000E+000	0.0000000E+000	43.1805	1.06562	46.8195	4.71491e-06
0.0999518	200.762	189.529	276.092	-43.3515	626.114	0.451054	1.87131e-05	8401.43	3959.13	1	41	0.00505225	1.82992e-05	0	-9.34311e-05	0.259162	0.147003	5.87992	6.05582e-06	6.94887e-06	3.94864e-06	4.40233e-06	5.46842e-06	2.22147e-06	0.525505	0.23806	0.998362	8.80503e-08	1.48163e-08	8.28954e-09	3.15434e-08	8.37224e-09	6.72355e-09	0.00263375	0.00248639	0.00362199	43.3515	3.95913e+06	4.19376e+06	5.76735e+06	-46.6485	0.0000000E+000	0.0000000E+000	0.0000000E+000	46.6485	0.0000000E+000	0.0000000E+000	0.0000000E+000	-46.6485	0.0000000E+000	0.0000000E+000	0.0000000E+000	-43.3515	0.0000000E+000	0.0000000E+000	0.0000000E+000	43.3515	1.05926	46.6485	-2.53262e-06
317705	3.2707	0.997537	3.41944	-16.9613	630.15	0.451165	-0.00285648	0.502189	0.042738	2	38	0.0051504	0.00150621	0	-9.93526e-05	-1	-1	-1	0	0	0	0	0	0	-1	-1	-1	0	0	0	0	0	0	0.279725	0.0853137	0.292445	16.9613	42.738	140.129	146.501	-73.0387	0.0000000E+000	0.0000000E+000	0.0000000E+000	73.0387	0.0000000E+000	0.0000000E+000	0.0000000E+000	-73.0387	0.0000000E+000	0.0000000E+000	0.0000000E+000	-16.9613	0.0000000E+000	0.0000000E+000	0.0000000E+000	16.9613	3.27878	73.0387	4.35283e-07
200434	3.24961	0.726254	3.32978	-12.598	632.443	0.451169	-0.00212101	1.09335	0.0520123	2	38	0.00517429	0.00155394	0	-0.000102261	-1	-1	-1	0	0	0	0	0	0	-1	-1	-1	0	0	0	0	0	0	0.29309	0.0655025	0.30032	12.598	52.0123	232.728	238.469	-77.402	0.0000000E+000	0.0000000E+000	0.0000000E+000	77.402	0.0000000E+000	0.0000000E+000	0.0000000E+000	-77.402	0.0000000E+000	0.0000000E+000	0.0000000E+000	-12.598	0.0000000E+000	0.0000000E+000	0.0000000E+000	12.598	4.47448	77.402	-1.83922e-06
126447	3.27322	0.598066	3.32741	-10.3546	634.738	0.451149	-0.000873515	2.10456	0.0679902	2	38	0.00513992	0.00154472	0	-9.7837e-05	-1	-1	-1	0	0	0	0	0	0	-1	-1	-1	0	0	0	0	0	0	0.29564	0.0540178	0.300534	10.3546	67.9903	372.111	378.272	-79.6454	0.0000000E+000	0.0000000E+000	0.0000000E+000	79.6454	0.0000000E+000	0.0000000E+000	0.0000000E+000	-79.6454	0.0000000E+000	0.0000000E+000	0.0000000E+000	-10.3546	0.0000000E+000	0.0000000E+000	0.0000000E+000	10.3546	5.47301	79.6454	2.97825e-06
79767.3	3.37047	0.574308	3.41905	-9.66998	637.032	0.451169	-0.0011975	3.47416	0.0980232	2	38	0.00518503	0.00151651	0	-9.80693e-05	1.4797	2.67432	30.465	2.05818e-05	2.83102e-05	2.73059e-05	4.14114e-05	2.88883e-05	2.95364e-05	0.110193	0.163759	1.91362	5.42261e-07	6.72666e-07	6.81617e-07	6.31022e-07	7.08199e-07	6.30477e-07	0.288323	0.0491285	0.292479	9.66998	98.0232	575.274	583.565	-80.33	0.0000000E+000	0.0000000E+000	0.0000000E+000	80.33	0.0000000E+000	0.0000000E+000	0.0000000E+000	-80.33	0.0000000E+000	0.0000000E+000	0.0000000E+000	-9.66998	0.0000000E+000	0.0000000E+000	0.0000000E+000	9.66998	5.86875	80.33	-5.91255e-07
50326.6	3.44442	0.543577	3.48705	-8.96809	639.326	0.451139	-0.00140976	5.81784	0.141373	2	38	0.00516891	0.00148232	0	-9.92459e-05	2.0248	0.983926	31.1984	2.87806e-05	2.9417e-05	7.49917e-05	3.73703e-05	3.73555e-05	2.18492e-05	0.119338	0.0666478	1.95056	7.05316e-07	7.67005e-07	5.9186e-07	6.00431e-07	8.10226e-07	5.26302e-07	0.28327	0.0447038	0.286776	8.96809	141.373	895.824	906.911	-81.0319	0.0000000E+000	0.0000000E+000	0.0000000E+000	81.0319	0.0000000E+000	0.0000000E+000	0.0000000E+000	-81.0319	0.0000000E+000	0.0000000E+000	0.0000000E+000	-8.96809	0.0000000E+000	0.0000000E+000	0.0000000E+000	8.96809	6.33659	81.0319	-8.08654e-07
31751	3.5385	0.568656	3.5839	-9.12968	641.619	0.451153	-0.00146003	8.8148	0.221921	2	38	0.00513742	0.00143347	0	-0.000100567	2.22587	1.17165	30.6564	3.71619e-05	1.44917e-05	6.86516e-05	5.26144e-05	2.22722e-05	4.17586e-05	0.124226	0.0608075	2.01736	6.09105e-07	8.24386e-07	9.87103e-07	6.08653e-07	6.29148e-07	5.38438e-07	0.275491	0.0442728	0.279025	9.12968	221.921	1380.92	1398.64	-80.8703	0.0000000E+000	0.0000000E+000	0.0000000E+000	80.8703	0.0000000E+000	0.0000000E+000	0.0000000E+000	-80.8703	0.0000000E+000	0.0000000E+000	0.0000000E+000	-9.12968	0.0000000E+000	0.0000000E+000	0.0000000E+000	9.12968	6.22257	80.8703	-1.12524e-06
20032.3	3.63022	0.659565	3.68965	-10.2976	643.913	0.451163	-0.000476931	12.0457	0.384925	2	38	0.00513299	0.00139119	0	-0.000101427	1.61959	0.731007	31.4264	3.84292e-05	3.25624e-05	2.32478e-05	1.75351e-05	4.37829e-05	2.31648e-05	0.100386	0.0644403	2.05727	6.49124e-07	5.685e-07	5.84261e-07	4.98891e-07	4.00785e-07	3.70052e-07	0.266663	0.0484492	0.271028	10.2976	384.925	2118.61	2153.3	-79.7024	0.0000000E+000	0.0000000E+000	0.0000000E+000	79.7024	0.0000000E+000	0.0000000E+000	0.0000000E+000	-79.7024	0.0000000E+000	0.0000000E+000	0.0000000E+000	-10.2976	0.0000000E+000	0.0000000E+000	0.0000000E+000	10.2976	5.50396	79.7024	8.70052e-07
12637.3	3.72539	0.831263	3.817	-12.5786	646.207	0.451132	-0.00124963	15.1505	0.718552	2	38	0.00509741	0.00133545	0	-0.000105473	1.36501	0.788395	30.8062	2.78405e-05	2.31667e-05	1.68027e-05	2.44368e-05	3.42737e-05	2.57841e-05	0.146487	0.0480916	2.19127	1.12872e-06	1.00711e-06	6.45272e-07	5.54349e-07	5.33064e-07	3.3298e-07	0.255697	0.0570549	0.261986	12.5786	718.552	3220.26	3299.46	-77.4214	0.0000000E+000	0.0000000E+000	0.0000000E+000	77.4214	0.0000000E+000	0.0000000E+000	0.0000000E+000	-77.4214	0.0000000E+000	0.0000000E+000	0.0000000E+000	-12.5786	0.0000000E+000	0.0000000E+000	0.0000000E+000	12.5786	4.4816	77.4214	-1.43023e-06
7967.67	3.90338	1.10695	4.0573	-15.8327	648.53	0.451033	-0.00128315	18.0451	1.34321	2	38	0.00519832	0.00128123	0	-0.000109443	1.79697	1.5959	30.4138	3.6293e-05	3.16832e-05	2.51847e-05	3.1056e-05	4.7395e-05	4.17218e-05	0.151896	0.108671	2.29184	8.48459e-07	1.20263e-06	5.22111e-07	5.98387e-07	5.64655e-07	6.47668e-07	0.237119	0.0672442	0.246469	15.8327	1343.21	4736.47	4923.25	-74.1673	0.0000000E+000	0.0000000E+000	0.0000000E+000	74.1673	0.0000000E+000	0.0000000E+000	0.0000000E+000	-74.1673	0.0000000E+000	0.0000000E+000	0.0000000E+000	-15.8327	0.0000000E+000	0.0000000E+000	0.0000000E+000	15.8327	3.52624	74.1673	-1.87448e-06
5028.39	4.15473	1.50709	4.41963	-19.9378	651.108	0.451037	-0.00114165	21.0016	2.44208	2	38	0.00504749	0.00114206	0	-0.000110176	1.54361	1.02411	31.1682	2.3971e-05	3.4664e-05	3.78718e-05	2.15933e-05	2.44098e-05	2.79874e-05	0.187405	0.0729901	2.53013	1.21381e-06	6.12761e-07	5.15611e-07	7.16977e-07	7.36663e-07	9.56198e-07	0.212702	0.0771557	0.226264	19.9378	2442.08	6732.29	7161.53	-70.0622	0.0000000E+000	0.0000000E+000	0.0000000E+000	70.0622	0.0000000E+000	0.0000000E+000	0.0000000E+000	-70.0622	0.0000000E+000	0.0000000E+000	0.0000000E+000	-19.9378	0.0000000E+000	0.0000000E+000	0.0000000E+000	19.9378	2.75679	70.0622	1.77147e-07
3171.96	4.57338	1.99839	4.99093	-23.6035	653.541	0.451015	-0.000925666	25.108	4.02541	2	38	0.00508086	0.00101802	0	-0.000111694	1.30187	0.83029	30.9115	3.01571e-05	2.27407e-05	2.86662e-05	2.47255e-05	3.01874e-05	1.62994e-05	0.156207	0.0965427	2.9023	9.56732e-07	4.411e-07	4.6281e-07	5.76038e-07	4.62457e-07	7.01443e-07	0.183601	0.0802265	0.200363	23.6035	4025.41	9212.28	10053.4	-66.3965	0.0000000E+000	0.0000000E+000	0.0000000E+000	66.3965	0.0000000E+000	0.0000000E+000	0.0000000E+000	-66.3965	0.0000000E+000	0.0000000E+000	0.0000000E+000	-23.6035	0.0000000E+000	0.0000000E+000	0.0000000E+000	23.6035	2.28853	66.3965	-6.97667e-07
2001.92	5.20399	2.61361	5.82344	-26.6673	655.752	0.451041	-0.000678028	30.4182	6.1271	2	38	0.00517916	0.000889364	0	-0.000112998	1.52634	0.949029	30.1629	3.34519e-05	2.65962e-05	2.82803e-05	3.26584e-05	2.80538e-05	2.42902e-05	0.288456	0.129173	3.3071	1.92e-06	9.45261e-07	7.93979e-07	7.75135e-07	3.33991e-07	5.54255e-07	0.153454	0.0770693	0.17172	26.6673	6127.1	12199.7	13651.9	-63.3327	0.0000000E+000	0.0000000E+000	0.0000000E+000	63.3327	0.0000000E+000	0.0000000E+000	0.0000000E+000	-63.3327	0.0000000E+000	0.0000000E+000	0.0000000E+000	-26.6673	0.0000000E+000	0.0000000E+000	0.0000000E+000	26.6673	1.99111	63.3327	-1.04769e-06
1262.98	6.04403	3.20773	6.8425	-27.9561	657.965	0.451043	-0.00181009	39.285	8.6336	2	38	0.00509521	0.000744641	0	-0.000113017	1.35019	1.44067	30.7458	3.03847e-05	3.0477e-05	2.82933e-05	2.86656e-05	2.50249e-05	1.58825e-05	0.386486	0.208765	3.91338	1.93014e-06	1.51774e-06	6.17881e-07	1.10164e-06	4.33618e-07	3.93026e-07	0.129091	0.0685121	0.146145	27.9561	8633.6	16267.5	18416.6	-62.0439	0.0000000E+000	0.0000000E+000	0.0000000E+000	62.0439	0.0000000E+000	0.0000000E+000	0.0000000E+000	-62.0439	0.0000000E+000	0.0000000E+000	0.0000000E+000	-27.9561	0.0000000E+000	0.0000000E+000	0.0000000E+000	27.9561	1.88421	62.0439	-2.09103e-07
796.787	7.0316	3.79285	7.98931	-28.3425	660.179	0.451008	-0.00141722	52.6638	11.8693	2	38	0.00499488	0.000625196	0	-0.000113699	1.94175	1.00414	31.5323	2.41236e-05	4.55893e-05	2.97743e-05	4.20871e-05	5.30034e-05	2.96121e-05	0.390125	0.0980152	4.65769	1.84046e-06	1.04198e-06	6.38262e-07	5.00175e-07	4.58869e-07	4.06431e-07	0.110163	0.059422	0.125167	28.3425	11869.3	22004.6	25001.6	-61.6575	0.0000000E+000	0.0000000E+000	0.0000000E+000	61.6575	0.0000000E+000	0.0000000E+000	0.0000000E+000	-61.6575	0.0000000E+000	0.0000000E+000	0.0000000E+000	-28.3425	0.0000000E+000	0.0000000E+000	0.0000000E+000	28.3425	1.85391	61.6575	-8.20219e-07
502.588	8.18873	4.44264	9.31624	-28.4812	662.395	0.451034	-0.000782307	71.28	16.2094	2	38	0.00496342	0.000532771	0	-0.000113223	1.74928	1.03373	31.6204	4.81371e-05	3.43729e-05	3.75449e-05	3.21569e-05	1.14105e-05	2.95041e-05	0.401327	0.129464	5.47188	1.20082e-06	8.7675e-07	5.46495e-07	8.74026e-07	5.91861e-07	7.59642e-07	0.0943486	0.051187	0.107339	28.4812	16209.4	29877.4	33991.3	-61.5188	0.0000000E+000	0.0000000E+000	0.0000000E+000	61.5188	0.0000000E+000	0.0000000E+000	0.0000000E+000	-61.5188	0.0000000E+000	0.0000000E+000	0.0000000E+000	-28.4812	0.0000000E+000	0.0000000E+000	0.0000000E+000	28.4812	1.84321	61.5188	3.17457e-07
316.927	9.47892	5.0925	10.7603	-28.2467	664.607	0.451056	0.000664416	98.6122	22.0874	2	38	0.00493371	0.000458512	0	-0.000112566	1.50111	0.579907	31.7331	2.90214e-05	1.56938e-05	3.71811e-05	1.87725e-05	3.45041e-05	2.19272e-05	0.434944	0.165063	6.40362	9.78153e-07	9.43532e-07	6.37536e-07	9.68516e-07	6.48848e-07	3.02135e-07	0.0818677	0.0439829	0.0929345	28.2467	22087.4	41112.5	46670	-61.7533	0.0000000E+000	0.0000000E+000	0.0000000E+000	61.7533	0.0000000E+000	0.0000000E+000	0.0000000E+000	-61.7533	0.0000000E+000	0.0000000E+000	0.0000000E+000	-28.2467	0.0000000E+000	0.0000000E+000	0.0000000E+000	28.2467	1.86135	61.7533	5.36451e-07
199.936	10.9562	5.85306	12.4217	-28.1121	666.816	0.451054	0.000841296	136.002	30.1962	2	38	0.00493727	0.000397473	0	-0.000111244	2.2104	0.956849	31.9948	3.52863e-05	3.51365e-05	3.58702e-05	3.8002e-05	4.89754e-05	4.65278e-05	0.402921	0.195127	7.37301	5.07446e-07	5.29005e-07	2.59192e-07	3.21353e-07	8.63514e-07	8.49307e-07	0.0710072	0.0379336	0.0805046	28.1121	30196.2	56523.8	64083.9	-61.8879	0.0000000E+000	0.0000000E+000	0.0000000E+000	61.8879	0.0000000E+000	0.0000000E+000	0.0000000E+000	-61.8879	0.0000000E+000	0.0000000E+000	0.0000000E+000	-28.1121	0.0000000E+000	0.0000000E+000	0.0000000E+000	28.1121	1.87188	61.8879	6.38666e-07
126.171	12.4927	6.87832	14.2611	-28.8367	669.027	0.451078	0.00115968	183.391	42.6617	2	38	0.0049247	0.000345325	0	-0.000111079	1.32233	0.867425	32.4227	2.05286e-05	2.33036e-05	2.72905e-05	2.12121e-05	2.35613e-05	3.44185e-05	0.536082	0.251261	8.57762	9.44694e-07	7.54674e-07	7.28007e-07	6.24811e-07	4.15117e-07	6.75107e-07	0.0614258	0.0338204	0.070121	28.8367	42661.7	77483.9	88452.1	-61.1633	0.0000000E+000	0.0000000E+000	0.0000000E+000	61.1633	0.0000000E+000	0.0000000E+000	0.0000000E+000	-61.1633	0.0000000E+000	0.0000000E+000	0.0000000E+000	-28.8367	0.0000000E+000	0.0000000E+000	0.0000000E+000	28.8367	1.81624	61.1633	4.2313e-07
79.6177	14.3211	8.13083	16.4683	-29.5859	671.215	0.451092	0.00260268	245.853	59.9308	2	38	0.00493323	0.00029956	0	-0.000109502	1.48749	1.06513	31.8709	3.42284e-05	3.7541e-05	2.64807e-05	2.9067e-05	2.34438e-05	1.47025e-05	0.523809	0.210919	9.75904	2.66602e-07	6.15022e-07	8.92763e-07	6.83026e-07	3.82941e-07	6.26561e-07	0.0528056	0.0299805	0.0607228	29.5859	59930.8	105558	121384	-60.4141	0.0000000E+000	0.0000000E+000	0.0000000E+000	60.4141	0.0000000E+000	0.0000000E+000	0.0000000E+000	-60.4141	0.0000000E+000	0.0000000E+000	0.0000000E+000	-29.5859	0.0000000E+000	0.0000000E+000	0.0000000E+000	29.5859	1.76133	60.4141	8.99261e-07
50.2089	16.4468	9.53531	19.011	-30.1038	673.361	0.451061	0.00118389	332.433	83.6302	2	38	0.00490318	0.000257912	0	-0.000108989	1.66549	0.812538	32.0442	3.24301e-05	2.7531e-05	2.12853e-05	1.86963e-05	5.55938e-05	2.45165e-05	0.560289	0.325408	11.3289	6.49687e-07	5.07864e-07	3.23845e-07	5.68525e-07	5.72173e-07	3.61402e-07	0.0455061	0.026383	0.052601	30.1038	83630.2	144248	166738	-59.8962	0.0000000E+000	0.0000000E+000	0.0000000E+000	59.8962	0.0000000E+000	0.0000000E+000	0.0000000E+000	-59.8962	0.0000000E+000	0.0000000E+000	0.0000000E+000	-30.1038	0.0000000E+000	0.0000000E+000	0.0000000E+000	30.1038	1.72483	59.8962	1.02959e-07
31.6723	18.9267	11.7088	22.2557	-31.7426	675.725	0.451051	0.000155788	429.169	118.788	2	39	0.00490675	0.000220472	0	-0.000108257	1.1334	0.733292	32.6983	1.51594e-05	1.88029e-05	3.24603e-05	1.25472e-05	2.50051e-05	1.37989e-05	0.395782	0.171335	5.75687	5.58916e-07	2.39371e-07	2.93574e-07	4.00974e-07	2.3567e-07	2.24226e-07	0.0382114	0.0236391	0.0449324	31.7426	118788	192014	225788	-58.2574	0.0000000E+000	0.0000000E+000	0.0000000E+000	58.2574	0.0000000E+000	0.0000000E+000	0.0000000E+000	-58.2574	0.0000000E+000	0.0000000E+000	0.0000000E+000	-31.7426	0.0000000E+000	0.0000000E+000	0.0000000E+000	31.7426	1.61645	58.2574	1.19628e-07
19.9808	21.9577	14.3095	26.2088	-33.0917	677.858	0.451023	0.000401063	556.651	165.934	2	39	0.00489933	0.000186935	0	-0.000107892	2.30854	1.79203	32.8363	4.49023e-05	4.25597e-05	2.82139e-05	4.19205e-05	6.52638e-05	3.324e-05	0.486576	0.224994	6.95873	6.35944e-07	3.2832e-07	1.5831e-07	3.14796e-07	2.56732e-07	2.60231e-07	0.0319663	0.0208319	0.0381551	33.0917	165934	254624	303920	-56.9083	0.0000000E+000	0.0000000E+000	0.0000000E+000	56.9083	0.0000000E+000	0.0000000E+000	0.0000000E+000	-56.9083	0.0000000E+000	0.0000000E+000	0.0000000E+000	-33.0917	0.0000000E+000	0.0000000E+000	0.0000000E+000	33.0917	1.53449	56.9083	-1.38248e-07
12.6144	25.6908	17.7861	31.2468	-34.6954	680.067	0.451049	0.000270875	709.371	229.84	2	39	0.00490349	0.000156928	0	-0.000106899	1.08816	0.54463	23.3219	2.00594e-05	1.94553e-05	2.90102e-05	1.08716e-05	1.81326e-05	5.26019e-06	0.410253	0.17923	5.75338	4.44281e-07	1.24187e-07	3.31279e-07	1.5741e-07	1.1688e-07	1.85567e-07	0.0263127	0.0182167	0.0320033	34.6954	229840	331987	403784	-55.3046	0.0000000E+000	0.0000000E+000	0.0000000E+000	55.3046	0.0000000E+000	0.0000000E+000	0.0000000E+000	-55.3046	0.0000000E+000	0.0000000E+000	0.0000000E+000	-34.6954	0.0000000E+000	0.0000000E+000	0.0000000E+000	34.6954	1.44443	55.3045	7.13721e-07
7.95573	30.2585	21.9308	37.3703	-35.9338	682.333	0.451044	0.000211326	912.191	314.153	2	39	0.00488925	0.000130832	0	-0.000107036	1.02797	0.573515	20.9319	2.05708e-05	2.06425e-05	1.33908e-05	1.7495e-05	1.4152e-05	2.47668e-05	0.537476	0.212601	6.70246	4.56036e-07	2.58818e-07	1.06199e-07	2.63638e-07	2.72898e-07	2.01518e-07	0.0216668	0.0157037	0.0267592	35.9338	314153	433446	535320	-54.0662	0.0000000E+000	0.0000000E+000	0.0000000E+000	54.0662	0.0000000E+000	0.0000000E+000	0.0000000E+000	-54.0662	0.0000000E+000	0.0000000E+000	0.0000000E+000	-35.9338	0.0000000E+000	0.0000000E+000	0.0000000E+000	35.9338	1.37973	54.0662	8.62203e-07
5.01766	36.284	27.5084	45.5328	-37.1672	685.335	0.451059	5.18512e-05	1153.07	420.856	2	39	0.00491565	0.000107958	0	-0.000106334	0.897532	0.776719	19.4059	1.91177e-05	1.33056e-05	2.2595e-05	1.05876e-05	1.52445e-05	1.79052e-05	0.539551	0.464754	7.12932	3.27304e-07	1.04265e-07	2.68926e-07	2.92893e-07	1.00139e-07	9.20763e-08	0.0175011	0.0132683	0.0219622	37.1672	420856	555117	696617	-52.8328	0.0000000E+000	0.0000000E+000	0.0000000E+000	52.8328	0.0000000E+000	0.0000000E+000	0.0000000E+000	-52.8328	0.0000000E+000	0.0000000E+000	0.0000000E+000	-37.1672	0.0000000E+000	0.0000000E+000	0.0000000E+000	37.1672	1.31902	52.8328	3.18911e-07
3.16616	43.151	34.3338	55.1436	-38.5081	689.561	0.45105	0.000207489	1464.08	567.569	2	39	0.00490467	8.89435e-05	0	-0.000106025	0.636386	0.274557	13.4455	6.71978e-06	1.50269e-05	1.28305e-05	1.07617e-05	1.12191e-05	1.04655e-05	0.559842	0.223342	6.24319	3.92838e-07	8.56511e-08	1.70436e-07	1.11343e-07	1.63067e-07	8.73782e-08	0.0141906	0.011291	0.0181345	38.5081	567569	713326	911574	-51.4919	0.0000000E+000	0.0000000E+000	0.0000000E+000	51.4919	0.0000000E+000	0.0000000E+000	0.0000000E+000	-51.4919	0.0000000E+000	0.0000000E+000	0.0000000E+000	-38.5081	0.0000000E+000	0.0000000E+000	0.0000000E+000	38.5081	1.25681	51.4919	1.87294e-06
1.99783	52.2304	43.1435	67.745	-39.5575	696.629	0.451044	0.000163919	1846.49	748.899	2	40	0.00491578	7.2563e-05	0	-0.000104757	0.844283	0.397858	14.6539	1.3478e-05	1.49202e-05	1.56495e-05	9.4141e-06	1.76189e-05	2.18505e-05	0.432196	0.146786	1.23745	2.85587e-07	3.30167e-08	3.34265e-08	1.07984e-07	3.59843e-08	2.20507e-08	0.0113807	0.00940073	0.0147612	39.5575	748899	906633	1.17594e+06	-50.4425	0.0000000E+000	0.0000000E+000	0.0000000E+000	50.4425	0.0000000E+000	0.0000000E+000	0.0000000E+000	-50.4425	0.0000000E+000	0.0000000E+000	0.0000000E+000	-39.5575	0.0000000E+000	0.0000000E+000	0.0000000E+000	39.5575	1.21062	50.4425	8.1083e-07
1.25968	63.466	53.8482	83.232	-40.3132	706.04	0.451034	0.000109583	2346.33	982.091	2	40	0.0049024	5.89005e-05	0	-0.000105836	0.75299	0.215376	12.4408	8.21952e-06	1.23424e-05	9.66918e-06	2.29992e-05	8.31399e-06	1.56606e-05	0.420481	0.098814	1.32295	2.23289e-07	4.67617e-08	1.89651e-08	8.13307e-08	1.97503e-08	2.36061e-08	0.00916137	0.00777304	0.0120146	40.3132	982091	1.1575e+06	1.518e+06	-49.6868	0.0000000E+000	0.0000000E+000	0.0000000E+000	49.6868	0.0000000E+000	0.0000000E+000	0.0000000E+000	-49.6868	0.0000000E+000	0.0000000E+000	0.0000000E+000	-40.3132	0.0000000E+000	0.0000000E+000	0.0000000E+000	40.3132	1.17861	49.6868	1.34935e-06
0.79456	77.4252	67.7482	102.881	-41.1864	720.509	0.451035	0.00012402	2956.62	1282.1	2	40	0.00489986	4.76266e-05	0	-0.000103178	0.498698	0.279444	8.9421	7.55078e-06	1.45118e-05	7.99421e-06	9.24597e-06	1.0132e-05	5.52331e-06	0.425098	0.0764457	1.30602	1.89663e-07	1.3172e-08	8.70201e-09	6.48118e-08	9.78435e-09	1.57117e-08	0.00731497	0.00640071	0.00971998	41.1864	1.2821e+06	1.46523e+06	1.94697e+06	-48.8136	0.0000000E+000	0.0000000E+000	0.0000000E+000	48.8136	0.0000000E+000	0.0000000E+000	0.0000000E+000	-48.8136	0.0000000E+000	0.0000000E+000	0.0000000E+000	-41.1864	0.0000000E+000	0.0000000E+000	0.0000000E+000	41.1864	1.14284	48.8136	3.51641e-06
0.501541	95.3258	85.1931	127.847	-41.7873	742.987	0.451028	0.000199298	3724.86	1654	2	40	0.00490366	3.83557e-05	0	-0.000106511	0.407417	0.330617	7.60817	5.57529e-06	7.78783e-06	7.28348e-06	8.75454e-06	7.98407e-06	6.30488e-06	0.492609	0.308476	1.43397	1.68409e-07	3.9742e-08	3.86119e-08	4.8877e-08	2.14134e-08	2.42856e-08	0.00583216	0.00521222	0.00782185	41.7873	1.654e+06	1.85073e+06	2.48212e+06	-48.2127	0.0000000E+000	0.0000000E+000	0.0000000E+000	48.2127	0.0000000E+000	0.0000000E+000	0.0000000E+000	-48.2127	0.0000000E+000	0.0000000E+000	0.0000000E+000	-41.7873	0.0000000E+000	0.0000000E+000	0.0000000E+000	41.7873	1.11894	48.2127	7.6422e-07
0.316193	117.595	107.011	158.997	-42.3019	778.261	0.45103	0.00019444	4703.7	2130.68	2	40	0.00489882	3.08108e-05	0	-9.95127e-05	0.423842	0.195441	6.42114	7.69545e-06	8.61682e-06	9.44967e-06	5.91117e-06	7.30816e-06	7.42576e-06	0.4817	0.271388	1.59094	1.11805e-07	2.69346e-08	3.98238e-08	4.96985e-08	2.64534e-08	2.92299e-08	0.00465172	0.00423302	0.00628943	42.3019	2.13068e+06	2.34143e+06	3.16577e+06	-47.6981	0.0000000E+000	0.0000000E+000	0.0000000E+000	47.6981	0.0000000E+000	0.0000000E+000	0.0000000E+000	-47.6981	0.0000000E+000	0.0000000E+000	0.0000000E+000	-42.3019	0.0000000E+000	0.0000000E+000	0.0000000E+000	42.3019	1.09891	47.6981	1.34007e-06
0.199573	145.927	134.244	198.283	-42.6121	841.804	0.451044	0.000249698	5940.5	2722.96	2	41	0.00489925	2.47084e-05	0	-0.000104019	0.342306	0.19862	6.01225	5.63255e-06	6.09281e-06	6.27865e-06	6.20022e-06	9.68924e-06	5.1692e-06	0.542144	0.232064	0.873686	1.21448e-07	1.60011e-08	1.85256e-08	4.49905e-08	1.05271e-08	1.37209e-08	0.00371164	0.00341447	0.0050433	42.6121	2.72296e+06	2.95994e+06	4.02191e+06	-47.3879	0.0000000E+000	0.0000000E+000	0.0000000E+000	47.3879	0.0000000E+000	0.0000000E+000	0.0000000E+000	-47.3879	0.0000000E+000	0.0000000E+000	0.0000000E+000	-42.6121	0.0000000E+000	0.0000000E+000	0.0000000E+000	42.6121	1.08703	47.3879	-1.40063e-06
0.125939	181.123	168.704	247.521	-42.9669	929.456	0.451061	0.000333898	7490.93	3479.87	2	41	0.00490025	1.97973e-05	0	-8.90931e-05	0.285465	0.131886	4.97314	4.87069e-06	5.50033e-06	3.40529e-06	6.55565e-06	6.49283e-06	3.95367e-06	0.444362	0.124972	0.929155	7.94506e-08	6.19434e-09	4.32198e-09	3.43727e-08	4.09424e-09	7.46637e-09	0.00295631	0.00275361	0.00404007	42.9669	3.47987e+06	3.73603e+06	5.10563e+06	-47.0331	0.0000000E+000	0.0000000E+000	0.0000000E+000	47.0331	0.0000000E+000	0.0000000E+000	0.0000000E+000	-47.0331	0.0000000E+000	0.0000000E+000	0.0000000E+000	-42.9669	0.0000000E+000	0.0000000E+000	0.0000000E+000	42.9669	1.07361	47.0331	1.01563e-05
0.0999518	202.607	189.027	277.094	-43.014	990.859	0.451063	0.000401947	8423.74	3920.13	2	41	0.00490291	1.7694e-05	0	-7.74683e-05	0.249413	0.185071	5.9846	5.72716e-06	6.42799e-06	1.4561e-06	1.89481e-06	5.7708e-06	4.66435e-06	0.474934	0.177201	1.04853	7.55628e-08	1.2328e-08	5.88612e-09	2.93499e-08	4.85815e-09	8.76667e-09	0.00263877	0.0024619	0.00360888	43.014	3.92013e+06	4.20175e+06	5.74649e+06	-46.986	0.0000000E+000	0.0000000E+000	0.0000000E+000	46.986	0.0000000E+000	0.0000000E+000	0.0000000E+000	-46.986	0.0000000E+000	0.0000000E+000	0.0000000E+000	-43.014	0.0000000E+000	0.0000000E+000	0.0000000E+000	43.014	1.07184	46.986	1.16248e-05