File: Python/Data/GoldElectrode/240308/240308-CVEIS_Activation-0p5H2SO4-Ag_AgCl_BLF8-Au_RDE-80cycles-C15_08_PEIS_C15.mpt
EC-Lab ASCII FILE
Nb header lines : 66

Potentio Electrochemical Impedance Spectroscopy

Run on channel : 15 (SN 19485)
User :
Electrode connection : standard
Potential control : Ewe
Ewe ctrl range : min = -2.50 V, max = 2.50 V
Ewe,I filtering : 50 kHz
Safety Limits :
	Do not start on E overload
Channel : Floating
Acquisition started on : 03/08/2024 16:29:18.805
Loaded Setting File :  NONE
Saved on :
	File : 240308-CVEIS_Activation-0p5H2SO4-Ag_AgCl_BLF8-Au_RDE-80cycles-C15_08_PEIS_C15.mpr
	Directory : C:\Data\mathias\GoldElectrode\
	Host : 192.168.0.1
Device : VMP-300 (SN 0826)
Address : USB
EC-Lab for windows v11.52 (software)
Internet server v11.52 (firmware)
Command interpretor v11.52 (firmware)
Electrode material :
Initial state :
Electrolyte :
Comments :
Cable : special
Electrode surface area : 0.001 cm²
Characteristic mass : 0.001 g
Equivalent Weight : 0.000 g/eq.
Density : 0.000 g/cm3
Volume (V) : 0.001 cm³
Record EIS quality indicators
Cycle Definition : Charge/Discharge alternance
Mode                Single sine
E (V)               0.0000
vs.                 Eoc
tE (h:m:s)          0:00:0.0000
record              0
dI                  0.000
unit dI             mA
dt (s)              0.000
fi                  100.000
unit fi             kHz
ff                  100.000
unit ff             Hz
Nd                  10
Points              per decade
spacing             Logarithmic
Va (mV)             5.0
pw                  0.10
Na                  2
corr                0
E range min (V)     -2.500
E range max (V)     2.500
I Range             Auto
Bandwidth           8
nc cycles           1
goto Ns'            0
nr cycles           0
inc. cycle          0

freq/Hz	Re(Z)/Ohm	-Im(Z)/Ohm	|Z|/Ohm	Phase(Z)/deg	time/s	<Ewe>/V	<I>/mA	Cs/µF	Cp/µF	cycle number	I Range	|Ewe|/V	|I|/A	Ns	(Q-Qo)/mA.h	THD Ewe/%	NSD Ewe/%	NSR Ewe/%	|Ewe h2|/V	|Ewe h3|/V	|Ewe h4|/V	|Ewe h5|/V	|Ewe h6|/V	|Ewe h7|/V	THD I/%	NSD I/%	NSR I/%	|I h2|/A	|I h3|/A	|I h4|/A	|I h5|/A	|I h6|/A	|I h7|/A	Re(Y)/Ohm-1	Im(Y)/Ohm-1	|Y|/Ohm-1	Phase(Y)/deg	Re(C)/nF	Im(C)/nF	|C|/nF	Phase(C)/deg	Re(M)	Im(M)	|M|	Phase(M)/deg	Re(Permittivity)	Im(Permittivity)	|Permittivity|	Phase(Permittivity)/deg	Re(Resistivity)/Ohm.cm	Im(Resistivity)/Ohm.cm	|Resistivity|/Ohm.cm	Phase(Resistivity)/deg	Re(Conductivity)/mS/cm	Im(Conductivity)/mS/cm	|Conductivity|/mS/cm	Phase(Conductivity)/deg	Tan(Delta)	Loss Angle(Delta)/deg	dq/mA.h
100004	6.13765	0.638321	6.17075	-5.93747	1598.15	0.399186	-0.0225428	2.49324	0.0266789	1	38	0.00484233	0.000784723	0	-8.96505e-06	1.51909	0.750343	32.4047	4.09183e-05	1.79483e-05	1.65724e-05	2.35481e-05	3.5461e-05	3.07904e-05	0.191775	0.0874452	3.96089	5.91864e-07	2.52824e-07	7.02809e-07	8.04885e-07	4.8735e-07	4.7037e-07	0.161186	0.0167635	0.162055	5.93747	26.6789	256.525	257.909	-84.0625	0.0000000E+000	0.0000000E+000	0.0000000E+000	84.0625	0.0000000E+000	0.0000000E+000	0.0000000E+000	-84.0625	0.0000000E+000	0.0000000E+000	0.0000000E+000	-5.93747	0.0000000E+000	0.0000000E+000	0.0000000E+000	5.93747	9.61529	84.0625	-8.96505e-06
79433.3	6.14941	0.651435	6.18382	-6.04705	1598.96	0.399182	-0.0118422	3.07572	0.0341331	1	38	0.00510331	0.000825269	0	-1.15169e-05	1.40483	1.11487	30.446	4.38467e-05	1.38309e-05	2.32686e-05	8.84918e-06	3.51168e-05	3.02188e-05	0.196563	0.0831936	3.80015	7.77607e-07	7.3696e-07	1.59201e-07	5.49626e-07	4.30779e-07	6.23356e-07	0.160813	0.0170356	0.161712	6.04705	34.1331	322.209	324.012	-83.953	0.0000000E+000	0.0000000E+000	0.0000000E+000	83.953	0.0000000E+000	0.0000000E+000	0.0000000E+000	-83.953	0.0000000E+000	0.0000000E+000	0.0000000E+000	-6.04705	0.0000000E+000	0.0000000E+000	0.0000000E+000	6.04705	9.43979	83.953	-2.55185e-06
63093.8	6.19471	0.664436	6.23024	-6.12207	1599.78	0.39919	-0.0118813	3.79647	0.0431795	1	38	0.00516731	0.000829393	0	-1.40357e-05	1.5373	1.34385	31.2842	3.30679e-05	1.32872e-05	2.73465e-05	3.72232e-05	3.54261e-05	3.89965e-05	0.235213	0.159398	3.79445	8.3511e-07	9.9581e-07	6.68754e-07	7.60424e-07	5.06672e-07	8.03638e-07	0.159592	0.0171177	0.160508	6.12207	43.1795	402.573	404.882	-83.8779	0.0000000E+000	0.0000000E+000	0.0000000E+000	83.8779	0.0000000E+000	0.0000000E+000	0.0000000E+000	-83.8779	0.0000000E+000	0.0000000E+000	0.0000000E+000	-6.12207	0.0000000E+000	0.0000000E+000	0.0000000E+000	6.12207	9.32325	83.8779	-2.51881e-06
50122.5	6.20369	0.763542	6.2505	-7.0166	1600.59	0.399206	-0.0113022	4.15867	0.0620571	1	38	0.00512974	0.000820693	0	-1.65792e-05	1.79448	2.04752	30.2795	4.31594e-05	2.52751e-05	2.06794e-05	4.58677e-05	3.64672e-05	3.85023e-05	0.199852	0.237622	3.80364	6.86713e-07	7.57184e-07	5.73773e-07	4.18764e-07	7.98667e-07	4.42392e-07	0.158789	0.0195436	0.159987	7.0166	62.0571	504.206	508.011	-82.9834	0.0000000E+000	0.0000000E+000	0.0000000E+000	82.9834	0.0000000E+000	0.0000000E+000	0.0000000E+000	-82.9834	0.0000000E+000	0.0000000E+000	0.0000000E+000	-7.0166	0.0000000E+000	0.0000000E+000	0.0000000E+000	7.0166	8.12488	82.9834	-2.54345e-06
39814.1	6.27771	0.815209	6.33041	-7.3989	1601.4	0.399174	-0.0112203	4.90359	0.0813183	1	38	0.00521012	0.00082303	0	-1.83003e-05	1.67675	0.84144	29.1868	2.8489e-05	2.14205e-05	4.21874e-05	4.0628e-05	1.73835e-05	4.60562e-05	0.167585	0.0438089	3.88839	7.46465e-07	6.57956e-07	4.95788e-07	5.91526e-07	4.32543e-07	1.59693e-07	0.156652	0.0203425	0.157968	7.3989	81.3183	626.21	631.468	-82.6011	0.0000000E+000	0.0000000E+000	0.0000000E+000	82.6011	0.0000000E+000	0.0000000E+000	0.0000000E+000	-82.6011	0.0000000E+000	0.0000000E+000	0.0000000E+000	-7.3989	0.0000000E+000	0.0000000E+000	0.0000000E+000	7.3989	7.70073	82.6011	-1.72111e-06
31621.1	6.285	0.920442	6.35204	-8.33178	1602.22	0.399192	-0.0112892	5.46822	0.114819	1	38	0.00513418	0.000808273	0	-2.00792e-05	1.64483	0.994446	29.5412	1.57122e-05	4.13183e-05	3.14151e-05	4.31023e-05	3.51184e-05	2.57941e-05	0.189462	0.109053	3.92108	3.14112e-08	7.14322e-07	4.97294e-07	8.46744e-07	3.95533e-07	5.44858e-07	0.155768	0.0228124	0.15743	8.33178	114.819	784.01	792.373	-81.6682	0.0000000E+000	0.0000000E+000	0.0000000E+000	81.6682	0.0000000E+000	0.0000000E+000	0.0000000E+000	-81.6682	0.0000000E+000	0.0000000E+000	0.0000000E+000	-8.33178	0.0000000E+000	0.0000000E+000	0.0000000E+000	8.33178	6.82824	81.6682	-1.7789e-06
25116.9	6.35473	1.10075	6.44936	-9.82713	1603.03	0.399174	-0.0115182	5.75658	0.167691	1	38	0.0051129	0.000792776	0	-2.34559e-05	1.53639	1.37803	30.2463	3.90072e-05	3.92639e-05	1.96193e-05	3.54958e-05	1.83571e-05	2.1718e-05	0.173145	0.160457	3.95119	3.65377e-07	4.69883e-07	6.91105e-07	7.38093e-07	3.9413e-07	5.07114e-07	0.152779	0.026464	0.155054	9.82713	167.691	968.095	982.511	-80.1729	0.0000000E+000	0.0000000E+000	0.0000000E+000	80.1729	0.0000000E+000	0.0000000E+000	0.0000000E+000	-80.1729	0.0000000E+000	0.0000000E+000	0.0000000E+000	-9.82713	0.0000000E+000	0.0000000E+000	0.0000000E+000	9.82713	5.77308	80.1729	-3.37673e-06
19948.8	6.40344	1.27456	6.52905	-11.2572	1603.85	0.39918	-0.0101739	6.25955	0.238541	1	38	0.00510866	0.000782451	0	-2.39958e-05	1.49839	0.816552	30.307	1.67575e-05	4.03535e-05	3.25949e-05	3.12709e-05	1.92257e-05	2.4882e-05	0.188417	0.129813	4.03661	4.0983e-07	1.98582e-07	7.18228e-07	6.00215e-07	8.878e-07	4.6597e-07	0.150215	0.0298992	0.153162	11.2572	238.541	1198.44	1221.95	-78.7428	0.0000000E+000	0.0000000E+000	0.0000000E+000	78.7428	0.0000000E+000	0.0000000E+000	0.0000000E+000	-78.7428	0.0000000E+000	0.0000000E+000	0.0000000E+000	-11.2572	0.0000000E+000	0.0000000E+000	0.0000000E+000	11.2572	5.02404	78.7428	-5.39897e-07
15847.7	6.51375	1.5079	6.68601	-13.0341	1604.66	0.399158	-0.010779	6.66013	0.33876	1	38	0.00513526	0.000768061	0	-2.7108e-05	1.22928	1.02001	30.5179	1.10295e-05	1.76348e-05	2.63145e-05	2.35109e-05	1.70843e-05	3.11676e-05	0.187941	0.127263	4.04193	4.34436e-07	5.60101e-07	4.5603e-07	4.05599e-07	5.47567e-07	8.12129e-07	0.145713	0.0337317	0.149566	13.0341	338.76	1463.36	1502.06	-76.9659	0.0000000E+000	0.0000000E+000	0.0000000E+000	76.9659	0.0000000E+000	0.0000000E+000	0.0000000E+000	-76.9659	0.0000000E+000	0.0000000E+000	0.0000000E+000	-13.0341	0.0000000E+000	0.0000000E+000	0.0000000E+000	13.0341	4.31976	76.9659	-3.11219e-06
12590.9	6.61838	1.79261	6.85685	-15.1552	1605.47	0.399182	-0.0106059	7.0514	0.481947	1	38	0.00502772	0.00073324	0	-3.11437e-05	1.33865	1.3071	31.357	2.25233e-05	2.94818e-05	3.81356e-05	2.03926e-05	1.81197e-05	1.51156e-05	0.235969	0.166073	4.26826	3.84054e-07	6.50646e-07	9.66681e-07	6.85692e-07	5.31541e-07	6.55964e-07	0.140767	0.0381274	0.145839	15.1552	481.947	1779.36	1843.48	-74.8448	0.0000000E+000	0.0000000E+000	0.0000000E+000	74.8448	0.0000000E+000	0.0000000E+000	0.0000000E+000	-74.8448	0.0000000E+000	0.0000000E+000	0.0000000E+000	-15.1552	0.0000000E+000	0.0000000E+000	0.0000000E+000	15.1552	3.69203	74.8448	-4.03576e-06
10002.2	6.84959	2.07092	7.15581	-16.8223	1606.29	0.39915	-0.0105519	7.68352	0.64353	1	38	0.00515578	0.000720503	0	-3.29389e-05	1.90319	0.682185	30.6673	1.83994e-05	3.53643e-05	3.51364e-05	6.40818e-05	4.12417e-05	2.75855e-05	0.260772	0.153749	4.39015	7.79183e-07	4.03262e-07	7.51523e-07	9.53395e-07	3.69934e-07	6.16256e-07	0.133766	0.0404432	0.139747	16.8223	643.53	2128.48	2223.64	-73.1777	0.0000000E+000	0.0000000E+000	0.0000000E+000	73.1777	0.0000000E+000	0.0000000E+000	0.0000000E+000	-73.1777	0.0000000E+000	0.0000000E+000	0.0000000E+000	-16.8223	0.0000000E+000	0.0000000E+000	0.0000000E+000	16.8223	3.30751	73.1777	-1.79513e-06
7944	7.01554	2.47986	7.44094	-19.4675	1607.14	0.399031	-0.00991509	8.07894	0.897331	1	38	0.00519348	0.00069796	0	-3.57166e-05	1.47158	1.26699	30.1922	2.43033e-05	3.03573e-05	2.08033e-05	2.46299e-05	2.71174e-05	4.19373e-05	0.267545	0.101037	4.53674	6.66656e-07	4.06e-07	1.18394e-06	5.96403e-07	8.93996e-07	3.95856e-07	0.126709	0.044789	0.134392	19.4675	897.331	2538.56	2692.49	-70.5325	0.0000000E+000	0.0000000E+000	0.0000000E+000	70.5325	0.0000000E+000	0.0000000E+000	0.0000000E+000	-70.5325	0.0000000E+000	0.0000000E+000	0.0000000E+000	-19.4675	0.0000000E+000	0.0000000E+000	0.0000000E+000	19.4675	2.82901	70.5325	-2.77776e-06
6307.74	7.29734	2.88066	7.84534	-21.5419	1608.04	0.399034	-0.0110118	8.759	1.18091	1	38	0.00506831	0.000646028	0	-3.9613e-05	2.09597	0.690343	30.886	6.39277e-06	8.68612e-05	3.68472e-05	2.20127e-05	2.71288e-05	2.12485e-05	0.382861	0.162523	4.92723	4.52044e-07	1.9243e-06	7.02204e-07	4.51782e-07	8.10283e-07	5.64295e-07	0.118561	0.0468024	0.127464	21.5419	1180.91	2991.49	3216.14	-68.4581	0.0000000E+000	0.0000000E+000	0.0000000E+000	68.4581	0.0000000E+000	0.0000000E+000	0.0000000E+000	-68.4581	0.0000000E+000	0.0000000E+000	0.0000000E+000	-21.5419	0.0000000E+000	0.0000000E+000	0.0000000E+000	21.5419	2.53322	68.4581	-3.89637e-06
5011.6	7.4907	3.40469	8.22815	-24.4429	1608.79	0.399053	-0.0101404	9.32751	1.59704	1	38	0.00536744	0.000652326	0	-4.119e-05	1.44299	0.397553	28.0187	4.20834e-05	3.84106e-05	3.0584e-05	1.95389e-05	2.93548e-05	1.25705e-05	0.257418	0.130723	5.0595	6.3788e-07	6.42077e-07	6.98774e-07	7.94787e-07	5.30164e-07	4.04361e-07	0.110641	0.050289	0.121534	24.4429	1597.04	3513.67	3859.59	-65.5571	0.0000000E+000	0.0000000E+000	0.0000000E+000	65.5571	0.0000000E+000	0.0000000E+000	0.0000000E+000	-65.5571	0.0000000E+000	0.0000000E+000	0.0000000E+000	-24.4429	0.0000000E+000	0.0000000E+000	0.0000000E+000	24.4429	2.20011	65.5571	-1.57698e-06
3981.28	7.79062	4.03686	8.7744	-27.3918	1609.76	0.399065	-0.00905488	9.9027	2.09608	1	38	0.00508511	0.00057954	0	-4.50229e-05	1.65267	1.01241	30.1991	3.34133e-05	3.87692e-05	3.35177e-05	2.71351e-05	3.29787e-05	2.984e-05	0.277459	0.145814	5.40204	5.73295e-07	7.29538e-07	4.86937e-07	4.98408e-07	6.77651e-07	7.6053e-07	0.10119	0.0524336	0.113968	27.3918	2096.08	4045.15	4555.96	-62.6082	0.0000000E+000	0.0000000E+000	0.0000000E+000	62.6082	0.0000000E+000	0.0000000E+000	0.0000000E+000	-62.6082	0.0000000E+000	0.0000000E+000	0.0000000E+000	-27.3918	0.0000000E+000	0.0000000E+000	0.0000000E+000	27.3918	1.92987	62.6082	-3.83293e-06
3163.04	8.10637	4.61996	9.33045	-29.6796	1610.5	0.399045	-0.00895062	10.8912	2.67023	1	38	0.00512115	0.000548865	0	-4.73402e-05	1.80394	1.06133	29.6784	2.47524e-05	4.6384e-05	9.94112e-06	2.8364e-05	4.95644e-05	3.52243e-05	0.282076	0.160363	5.65312	8.69506e-07	3.49899e-07	2.27944e-07	7.02696e-07	3.10803e-07	6.87673e-07	0.0931154	0.0530681	0.107176	29.6796	2670.23	4685.29	5392.78	-60.3204	0.0000000E+000	0.0000000E+000	0.0000000E+000	60.3204	0.0000000E+000	0.0000000E+000	0.0000000E+000	-60.3204	0.0000000E+000	0.0000000E+000	0.0000000E+000	-29.6796	0.0000000E+000	0.0000000E+000	0.0000000E+000	29.6796	1.75464	60.3204	-2.31724e-06
2512.41	8.45499	5.52767	10.1016	-33.1757	1611.24	0.399041	-0.00917964	11.4601	3.43157	1	38	0.00514982	0.000509803	0	-4.8862e-05	1.36806	1.2888	30.6545	4.21777e-05	2.43799e-05	2.92281e-05	1.34417e-05	2.06686e-05	3.09343e-05	0.357957	0.26133	6.33609	8.46785e-07	1.04792e-06	6.40371e-07	6.062e-07	5.78224e-07	4.9948e-07	0.0828579	0.0541706	0.0989944	33.1757	3431.57	5248.84	6271.05	-56.8243	0.0000000E+000	0.0000000E+000	0.0000000E+000	56.8243	0.0000000E+000	0.0000000E+000	0.0000000E+000	-56.8243	0.0000000E+000	0.0000000E+000	0.0000000E+000	-33.1757	0.0000000E+000	0.0000000E+000	0.0000000E+000	33.1757	1.52957	56.8243	-1.52182e-06
1995.64	8.81572	6.44446	10.9201	-36.1675	1611.99	0.399043	-0.00897296	12.3752	4.30996	1	38	0.00510066	0.000467091	0	-5.10361e-05	1.93165	1.41269	30.7614	4.95879e-05	2.28072e-05	3.34688e-05	3.65228e-05	4.36823e-05	4.46195e-05	0.287781	0.233077	6.86045	8.507e-07	6.0294e-07	3.38293e-07	2.64158e-07	1.73657e-07	5.46659e-07	0.0739276	0.0540425	0.0915745	36.1675	4309.96	5895.83	7303.19	-53.8325	0.0000000E+000	0.0000000E+000	0.0000000E+000	53.8325	0.0000000E+000	0.0000000E+000	0.0000000E+000	-53.8325	0.0000000E+000	0.0000000E+000	0.0000000E+000	-36.1675	0.0000000E+000	0.0000000E+000	0.0000000E+000	36.1675	1.36795	53.8325	-2.17409e-06
1584.49	9.2482	7.5781	11.9565	-39.3317	1612.73	0.39906	-0.00861547	13.2547	5.32458	1	38	0.00507944	0.000424829	0	-5.26488e-05	1.6161	0.980878	31.863	1.53823e-05	3.38868e-05	9.81357e-06	2.84638e-05	3.2317e-05	5.41767e-05	0.528473	0.289893	7.59291	1.14508e-06	3.71941e-07	6.08938e-07	9.40543e-07	1.06437e-06	6.78219e-07	0.0646923	0.0530097	0.0836368	39.3317	5324.58	6498.04	8400.93	-50.6683	0.0000000E+000	0.0000000E+000	0.0000000E+000	50.6683	0.0000000E+000	0.0000000E+000	0.0000000E+000	-50.6683	0.0000000E+000	0.0000000E+000	0.0000000E+000	-39.3317	0.0000000E+000	0.0000000E+000	0.0000000E+000	39.3317	1.22038	50.6683	-1.6127e-06
1258.79	9.78613	9.03365	13.3182	-42.7103	1613.48	0.399054	-0.00761003	13.996	6.43928	1	38	0.00509524	0.000382576	0	-5.39742e-05	1.3041	1.07138	30.188	3.59633e-05	4.67879e-06	3.3263e-05	2.47095e-05	1.2951e-05	9.33648e-06	0.623567	0.263754	8.39451	1.81267e-06	4.77561e-07	7.54925e-07	9.37353e-07	7.04479e-07	2.46182e-07	0.0551719	0.0509296	0.0750851	42.7103	6439.28	6975.65	9493.37	-47.2897	0.0000000E+000	0.0000000E+000	0.0000000E+000	47.2897	0.0000000E+000	0.0000000E+000	0.0000000E+000	-47.2897	0.0000000E+000	0.0000000E+000	0.0000000E+000	-42.7103	0.0000000E+000	0.0000000E+000	0.0000000E+000	42.7103	1.0833	47.2897	-1.32548e-06
999.682	10.2775	10.7546	14.8757	-46.2996	1614.22	0.399042	-0.00773106	14.8035	7.7374	1	38	0.00505062	0.000339521	0	-5.57379e-05	2.08368	0.865689	30.9938	3.96044e-05	2.03982e-05	4.96581e-05	6.62044e-05	2.95301e-05	2.97425e-05	0.528259	0.228944	9.48362	9.13132e-07	8.53002e-07	5.47626e-07	4.66177e-07	6.26979e-07	5.33479e-07	0.0464439	0.0486001	0.0672235	46.2996	7737.4	7394.13	10702.4	-43.7004	0.0000000E+000	0.0000000E+000	0.0000000E+000	43.7004	0.0000000E+000	0.0000000E+000	0.0000000E+000	-43.7004	0.0000000E+000	0.0000000E+000	0.0000000E+000	-46.2996	0.0000000E+000	0.0000000E+000	0.0000000E+000	46.2996	0.955635	43.7004	-1.76361e-06
794.239	10.7211	12.837	16.7251	-50.1324	1614.96	0.399042	-0.0076212	15.6101	9.19588	1	38	0.00500207	0.000299075	0	-5.71658e-05	1.7245	0.968486	31.205	3.67855e-05	3.0402e-05	2.94317e-05	3.87503e-05	2.10992e-05	2.98603e-05	0.770647	0.36457	10.5314	1.72451e-06	6.39153e-07	8.23715e-07	2.67988e-07	5.95051e-07	6.69301e-07	0.0383265	0.0458907	0.0597903	50.1324	9195.88	7680.13	11981.2	-39.8676	0.0000000E+000	0.0000000E+000	0.0000000E+000	39.8676	0.0000000E+000	0.0000000E+000	0.0000000E+000	-39.8676	0.0000000E+000	0.0000000E+000	0.0000000E+000	-50.1324	0.0000000E+000	0.0000000E+000	0.0000000E+000	50.1324	0.83517	39.8676	-1.42794e-06
631.01	11.271	15.3735	19.0625	-53.7532	1615.7	0.399073	-0.00444288	16.4063	10.6708	1	38	0.00495885	0.000260136	0	-5.83753e-05	1.36217	0.465252	31.1681	2.19857e-05	3.5481e-05	2.37976e-05	2.5815e-05	2.54339e-05	2.91279e-05	1.04855	0.391058	12.3246	1.63868e-06	1.05131e-06	4.75377e-07	1.42837e-06	9.79125e-07	2.33182e-07	0.0310172	0.042307	0.052459	53.7532	10670.8	7823.23	13231.3	-36.2468	0.0000000E+000	0.0000000E+000	0.0000000E+000	36.2468	0.0000000E+000	0.0000000E+000	0.0000000E+000	-36.2468	0.0000000E+000	0.0000000E+000	0.0000000E+000	-53.7532	0.0000000E+000	0.0000000E+000	0.0000000E+000	53.7532	0.733145	36.2468	-1.20953e-06
501.122	11.8899	18.7244	22.1804	-57.5846	1616.45	0.399073	-0.00503125	16.9617	12.0877	1	38	0.00495718	0.000223493	0	-5.96197e-05	2.07765	1.01565	30.9644	3.98285e-05	1.28641e-05	4.02924e-05	3.88144e-05	4.08031e-05	4.96855e-05	1.30782	0.514599	14.1734	1.26795e-06	1.19395e-06	8.10412e-07	1.34671e-06	6.43522e-07	9.20453e-07	0.0241679	0.0380598	0.0450848	57.5846	12087.7	7675.64	14318.8	-32.4154	0.0000000E+000	0.0000000E+000	0.0000000E+000	32.4154	0.0000000E+000	0.0000000E+000	0.0000000E+000	-32.4154	0.0000000E+000	0.0000000E+000	0.0000000E+000	-57.5846	0.0000000E+000	0.0000000E+000	0.0000000E+000	57.5846	0.634997	32.4154	-1.24434e-06
398.089	12.5388	22.7091	25.9408	-61.0948	1617.19	0.399044	-0.00485437	17.6052	13.4919	1	38	0.0049287	0.000189998	0	-6.04876e-05	2.23653	1.81054	32.5675	3.90745e-05	2.26261e-05	5.29208e-05	2.23013e-05	5.70107e-05	5.09691e-05	1.05062	0.705743	16.8922	1.1765e-06	3.12683e-07	5.47175e-07	1.05564e-06	9.5258e-07	2.81209e-07	0.0186333	0.0337469	0.0385493	61.0948	13491.9	7449.53	15411.9	-28.9052	0.0000000E+000	0.0000000E+000	0.0000000E+000	28.9052	0.0000000E+000	0.0000000E+000	0.0000000E+000	-28.9052	0.0000000E+000	0.0000000E+000	0.0000000E+000	-61.0948	0.0000000E+000	0.0000000E+000	0.0000000E+000	61.0948	0.552147	28.9052	-8.6797e-07
316.316	13.5212	27.7576	30.8756	-64.0285	1618.19	0.399056	-0.00110712	18.1267	14.6504	1	39	0.00511146	0.00016555	0	-6.06798e-05	1.70556	0.710002	29.003	2.61821e-05	4.14794e-05	4.21583e-05	3.18612e-05	3.14552e-05	3.42017e-05	0.652316	0.117575	8.35793	7.37664e-07	4.56183e-07	2.814e-07	3.48008e-07	3.02472e-07	3.10107e-07	0.0141835	0.0291172	0.032388	64.0285	14650.4	7136.45	16296.1	-25.9715	0.0000000E+000	0.0000000E+000	0.0000000E+000	25.9715	0.0000000E+000	0.0000000E+000	0.0000000E+000	-25.9715	0.0000000E+000	0.0000000E+000	0.0000000E+000	-64.0285	0.0000000E+000	0.0000000E+000	0.0000000E+000	64.0285	0.487118	25.9715	-1.92169e-07
251.206	14.2896	33.8177	36.7128	-67.0937	1618.93	0.399079	-0.0009172	18.7347	15.8964	1	39	0.00502623	0.000136907	0	-6.07122e-05	1.68656	0.851324	30.0363	2.57733e-05	3.08519e-05	4.52987e-05	4.34689e-05	2.51587e-05	2.5745e-05	0.777624	0.21545	10.4781	5.07277e-07	3.28888e-07	1.59146e-07	7.81147e-07	2.31472e-07	2.60862e-07	0.0106019	0.0250905	0.0272385	67.0937	15896.4	6716.99	17257.3	-22.9063	0.0000000E+000	0.0000000E+000	0.0000000E+000	22.9063	0.0000000E+000	0.0000000E+000	0.0000000E+000	-22.9063	0.0000000E+000	0.0000000E+000	0.0000000E+000	-67.0937	0.0000000E+000	0.0000000E+000	0.0000000E+000	67.0937	0.422547	22.9063	-3.23739e-08
199.553	15.2768	41.8056	44.5094	-69.9265	1619.68	0.399031	-0.000808727	19.0777	16.8303	1	39	0.00500741	0.000112502	0	-6.08775e-05	1.74439	0.8792	28.6946	3.94591e-05	2.87736e-05	4.7382e-05	2.29339e-05	2.36172e-05	4.10894e-05	0.921895	0.441694	11.9343	6.2234e-07	5.06558e-07	2.24849e-07	4.37017e-07	2.51476e-07	1.84844e-07	0.00771131	0.0211023	0.0224672	69.9265	16830.3	6150.2	17918.8	-20.0735	0.0000000E+000	0.0000000E+000	0.0000000E+000	20.0735	0.0000000E+000	0.0000000E+000	0.0000000E+000	-20.0735	0.0000000E+000	0.0000000E+000	0.0000000E+000	-69.9265	0.0000000E+000	0.0000000E+000	0.0000000E+000	69.9265	0.365424	20.0735	-1.65328e-07
158.529	16.1152	51.2842	53.7566	-72.5555	1620.42	0.399019	-0.00104002	19.5762	17.8169	1	39	0.00495955	9.22593e-05	0	-6.12362e-05	1.46869	0.579331	29.3866	3.96673e-05	2.29371e-05	3.11101e-05	1.85649e-05	2.14669e-05	3.08522e-05	1.02043	0.242373	15.1665	6.54601e-07	4.3781e-07	2.11632e-07	1.28798e-07	2.8615e-07	3.02528e-07	0.00557664	0.0177468	0.0186024	72.5555	17816.9	5598.66	18675.8	-17.4445	0.0000000E+000	0.0000000E+000	0.0000000E+000	17.4445	0.0000000E+000	0.0000000E+000	0.0000000E+000	-17.4445	0.0000000E+000	0.0000000E+000	0.0000000E+000	-72.5555	0.0000000E+000	0.0000000E+000	0.0000000E+000	72.5555	0.314233	17.4445	-3.58679e-07
125.927	17.6312	63.2441	65.6557	-74.4226	1621.16	0.399044	-0.00109408	19.984	18.5429	1	39	0.00495725	7.55037e-05	0	-6.13811e-05	1.48645	1.01166	30.0771	2.42305e-05	3.06063e-05	3.64332e-05	2.52774e-05	2.69036e-05	2.62388e-05	1.36438	0.548935	18.1635	8.14927e-07	3.46962e-07	1.36371e-07	4.48613e-07	1.20693e-07	1.68364e-07	0.00409013	0.0146715	0.015231	74.4226	18542.9	5169.39	19249.9	-15.5774	0.0000000E+000	0.0000000E+000	0.0000000E+000	15.5774	0.0000000E+000	0.0000000E+000	0.0000000E+000	-15.5774	0.0000000E+000	0.0000000E+000	0.0000000E+000	-74.4226	0.0000000E+000	0.0000000E+000	0.0000000E+000	74.4226	0.278781	15.5775	-1.44926e-07
99.9682	19.2921	78.2474	80.5906	-76.1498	1621.9	0.399045	-0.00109873	20.3464	19.1805	1	39	0.00493561	6.12431e-05	0	-6.16189e-05	1.58693	1.13576	30.9764	3.19247e-05	8.23299e-06	1.5882e-05	3.35997e-05	4.08292e-05	3.86126e-05	1.50435	0.722482	24.334	4.29073e-07	2.91356e-07	1.44786e-07	4.17835e-07	3.98316e-07	3.89039e-07	0.00297037	0.0120476	0.0124084	76.1498	19180.5	4728.99	19754.9	-13.8502	0.0000000E+000	0.0000000E+000	0.0000000E+000	13.8502	0.0000000E+000	0.0000000E+000	0.0000000E+000	-13.8502	0.0000000E+000	0.0000000E+000	0.0000000E+000	-76.1498	0.0000000E+000	0.0000000E+000	0.0000000E+000	76.1498	0.246552	13.8502	-2.37761e-07
100004	6.17944	0.637451	6.21223	-5.88961	1623.34	0.39915	-0.00725625	2.49665	0.0262879	2	38	0.0048268	0.000776983	0	-6.30374e-05	1.28052	0.666847	32.8246	2.60519e-05	2.72407e-05	2.39706e-05	2.28275e-05	2.6618e-05	2.11511e-05	0.272495	0.084267	4.04606	5.79481e-07	1.15455e-06	4.71932e-07	6.90459e-07	6.99441e-07	9.97961e-07	0.160123	0.0165178	0.160973	5.88961	26.2879	254.834	256.187	-84.1104	0.0000000E+000	0.0000000E+000	0.0000000E+000	84.1104	0.0000000E+000	0.0000000E+000	0.0000000E+000	-84.1104	0.0000000E+000	0.0000000E+000	0.0000000E+000	-5.88961	0.0000000E+000	0.0000000E+000	0.0000000E+000	5.88961	9.69399	84.1104	-1.41855e-06
79433.3	6.12743	0.630425	6.15977	-5.87425	1624.15	0.399159	-0.00779062	3.17822	0.0332906	2	38	0.00510338	0.000828501	0	-6.44973e-05	1.68279	0.999165	31.3075	3.62849e-05	3.75414e-05	1.46862e-05	4.62437e-05	4.37189e-05	1.34541e-05	0.15484	0.0857686	3.85997	3.00173e-07	4.81228e-07	6.28445e-07	4.22483e-07	4.36677e-07	5.58375e-07	0.161491	0.0166151	0.162344	5.87425	33.2906	323.569	325.277	-84.1257	0.0000000E+000	0.0000000E+000	0.0000000E+000	84.1257	0.0000000E+000	0.0000000E+000	0.0000000E+000	-84.1257	0.0000000E+000	0.0000000E+000	0.0000000E+000	-5.87425	0.0000000E+000	0.0000000E+000	0.0000000E+000	5.87425	9.71952	84.1257	-1.45984e-06
63093.8	6.16401	0.67028	6.20035	-6.20601	1624.97	0.399132	-0.00747409	3.76337	0.0439802	2	38	0.00517017	0.000833852	0	-6.52579e-05	1.41296	1.04398	29.4596	3.57138e-05	2.26334e-05	1.69414e-05	3.88219e-05	2.74489e-05	2.42042e-05	0.227402	0.101118	3.69755	1.23703e-06	5.53967e-07	8.65274e-08	3.75952e-07	9.7859e-07	6.40632e-07	0.160336	0.0174351	0.161281	6.20601	43.9802	404.45	406.834	-83.794	0.0000000E+000	0.0000000E+000	0.0000000E+000	83.794	0.0000000E+000	0.0000000E+000	0.0000000E+000	-83.794	0.0000000E+000	0.0000000E+000	0.0000000E+000	-6.20601	0.0000000E+000	0.0000000E+000	0.0000000E+000	6.20601	9.19617	83.794	-7.60672e-07
50122.5	6.15689	0.751302	6.20256	-6.9572	1625.78	0.399115	-0.00640162	4.22642	0.0620099	2	38	0.00511821	0.000825177	0	-6.6259e-05	1.30732	0.737031	30.0544	2.4427e-05	2.15048e-05	2.61284e-05	2.29046e-05	2.81823e-05	2.5644e-05	0.213225	0.160491	3.85583	9.71187e-07	3.40493e-07	6.17023e-07	5.42506e-07	7.68768e-07	7.54256e-07	0.160037	0.0195287	0.161224	6.9572	62.0099	508.168	511.937	-83.0428	0.0000000E+000	0.0000000E+000	0.0000000E+000	83.0428	0.0000000E+000	0.0000000E+000	0.0000000E+000	-83.0428	0.0000000E+000	0.0000000E+000	0.0000000E+000	-6.9572	0.0000000E+000	0.0000000E+000	0.0000000E+000	6.9572	8.19495	83.0428	-1.00106e-06
39814.1	6.23899	0.811152	6.29149	-7.40767	1626.59	0.399135	-0.00641652	4.92812	0.0819178	2	38	0.0051538	0.000819169	0	-6.69087e-05	1.78499	1.35484	30.1147	3.89953e-05	3.49851e-05	3.05738e-05	3.32065e-05	2.07019e-05	4.45988e-05	0.246748	0.107749	3.86594	9.02452e-07	9.823e-07	1.00664e-06	7.02778e-07	6.17463e-07	5.05291e-07	0.157618	0.0204925	0.158945	7.40767	81.9178	630.072	635.375	-82.5923	0.0000000E+000	0.0000000E+000	0.0000000E+000	82.5923	0.0000000E+000	0.0000000E+000	0.0000000E+000	-82.5923	0.0000000E+000	0.0000000E+000	0.0000000E+000	-7.40767	0.0000000E+000	0.0000000E+000	0.0000000E+000	7.40767	7.69151	82.5923	-6.49718e-07
31621.1	6.30166	0.945534	6.3722	-8.53329	1627.41	0.399126	-0.00831755	5.32311	0.117203	2	38	0.00516471	0.000810507	0	-6.87959e-05	1.46426	0.957056	30.2819	3.77014e-05	2.48668e-05	1.64477e-05	2.42371e-05	2.48135e-05	3.9186e-05	0.219652	0.110603	3.83864	6.11149e-07	4.27955e-07	9.46648e-07	6.75057e-07	4.11721e-07	8.67185e-07	0.155194	0.0232862	0.156932	8.53329	117.203	781.121	789.865	-81.4667	0.0000000E+000	0.0000000E+000	0.0000000E+000	81.4667	0.0000000E+000	0.0000000E+000	0.0000000E+000	-81.4667	0.0000000E+000	0.0000000E+000	0.0000000E+000	-8.53329	0.0000000E+000	0.0000000E+000	0.0000000E+000	8.53329	6.66466	81.4667	-1.8872e-06
25116.9	6.3805	1.08876	6.47273	-9.68363	1628.22	0.399092	-0.00741265	5.81997	0.164669	2	38	0.00513878	0.000793912	0	-7.02225e-05	1.27921	1.11211	29.7049	3.54e-05	3.54845e-05	1.9377e-05	2.30026e-05	2.34803e-05	1.38095e-05	0.234022	0.132226	3.94017	6.20026e-07	7.9396e-07	7.83869e-07	1.09238e-06	6.38872e-07	3.53099e-07	0.152293	0.0259871	0.154494	9.68363	164.669	965.015	978.964	-80.3164	0.0000000E+000	0.0000000E+000	0.0000000E+000	80.3164	0.0000000E+000	0.0000000E+000	0.0000000E+000	-80.3164	0.0000000E+000	0.0000000E+000	0.0000000E+000	-9.68363	0.0000000E+000	0.0000000E+000	0.0000000E+000	9.68363	5.86032	80.3164	-1.42655e-06
19948.8	6.43642	1.28386	6.56321	-11.2806	1629.04	0.399114	-0.00796192	6.21421	0.237787	2	38	0.00514017	0.000783179	0	-7.29492e-05	2.47263	0.873416	29.5574	3.79535e-05	2.60328e-05	9.92917e-05	3.43993e-05	2.57387e-05	3.95148e-05	0.326354	0.138409	3.98354	7.04114e-07	1.4398e-07	2.13614e-06	7.01507e-07	3.35176e-07	8.65873e-07	0.149421	0.0298047	0.152364	11.2806	237.787	1192.11	1215.59	-78.7194	0.0000000E+000	0.0000000E+000	0.0000000E+000	78.7194	0.0000000E+000	0.0000000E+000	0.0000000E+000	-78.7194	0.0000000E+000	0.0000000E+000	0.0000000E+000	-11.2806	0.0000000E+000	0.0000000E+000	0.0000000E+000	11.2806	5.01333	78.7194	-2.72676e-06
15847.7	6.55677	1.51941	6.73051	-13.0469	1629.85	0.399153	-0.00629736	6.60968	0.336846	2	38	0.00517677	0.000769149	0	-7.57725e-05	1.86392	0.879566	31.3167	4.86111e-05	4.12469e-05	2.47902e-05	2.36601e-05	2.80338e-05	3.5575e-05	0.238661	0.0993508	4.06844	6.24921e-07	4.66097e-07	5.92836e-07	7.76643e-07	7.8028e-07	1.03503e-06	0.144742	0.0335411	0.148577	13.0469	336.846	1453.61	1492.13	-76.9531	0.0000000E+000	0.0000000E+000	0.0000000E+000	76.9531	0.0000000E+000	0.0000000E+000	0.0000000E+000	-76.9531	0.0000000E+000	0.0000000E+000	0.0000000E+000	-13.0469	0.0000000E+000	0.0000000E+000	0.0000000E+000	13.0469	4.31535	76.9531	-2.8233e-06
12590.9	6.73289	1.80626	6.97097	-15.0173	1630.67	0.399116	-0.00675539	6.99814	0.469846	2	38	0.00521159	0.000747614	0	-7.82639e-05	1.49971	1.22863	30.1296	5.93201e-05	2.33917e-05	2.53643e-05	1.88858e-05	2.25927e-05	1.93289e-05	0.183828	0.14758	4.20255	4.36522e-07	4.53498e-07	5.32882e-07	6.80409e-07	4.17369e-07	6.8271e-07	0.138553	0.0371701	0.143452	15.0173	469.846	1751.37	1813.3	-74.9827	0.0000000E+000	0.0000000E+000	0.0000000E+000	74.9827	0.0000000E+000	0.0000000E+000	0.0000000E+000	-74.9827	0.0000000E+000	0.0000000E+000	0.0000000E+000	-15.0173	0.0000000E+000	0.0000000E+000	0.0000000E+000	15.0173	3.72754	74.9827	-2.49138e-06
10002.2	6.84747	2.08052	7.15657	-16.9007	1631.48	0.399121	-0.00496607	7.64808	0.646376	2	38	0.00505957	0.000706983	0	-7.89806e-05	1.83432	0.808038	30.9414	2.54854e-05	2.61171e-05	3.65882e-05	4.52211e-05	2.92003e-05	4.19994e-05	0.268265	0.144516	4.52203	5.27599e-07	6.05902e-07	6.67095e-07	1.08692e-06	8.29509e-07	7.06286e-07	0.133697	0.0406221	0.139732	16.9007	646.376	2127.38	2223.41	-73.0993	0.0000000E+000	0.0000000E+000	0.0000000E+000	73.0993	0.0000000E+000	0.0000000E+000	0.0000000E+000	-73.0993	0.0000000E+000	0.0000000E+000	0.0000000E+000	-16.9007	0.0000000E+000	0.0000000E+000	0.0000000E+000	16.9007	3.29124	73.0993	-7.16708e-07
7944	7.01741	2.49888	7.44906	-19.6007	1632.33	0.399019	-0.00673119	8.01744	0.902243	2	38	0.00519943	0.000697998	0	-8.00849e-05	1.28972	0.941088	29.6299	1.76712e-05	2.69061e-05	2.91016e-05	2.28468e-05	8.84993e-06	4.31278e-05	0.282176	0.101759	4.5307	3.43885e-07	3.10959e-07	1.46815e-06	8.27078e-07	4.52306e-07	3.84356e-07	0.126466	0.0450342	0.134245	19.6007	902.243	2533.7	2689.55	-70.3993	0.0000000E+000	0.0000000E+000	0.0000000E+000	70.3993	0.0000000E+000	0.0000000E+000	0.0000000E+000	-70.3993	0.0000000E+000	0.0000000E+000	0.0000000E+000	-19.6007	0.0000000E+000	0.0000000E+000	0.0000000E+000	19.6007	2.80822	70.3993	-1.10432e-06
6307.74	7.24393	2.92135	7.81081	-21.9634	1633.23	0.399019	-0.00602738	8.63701	1.2082	2	38	0.00504683	0.000646134	0	-8.13367e-05	1.73702	0.972907	30.817	2.20489e-05	6.0363e-05	1.62119e-05	3.122e-05	2.82811e-05	3.56023e-05	0.347599	0.19026	4.91782	3.96661e-07	1.61622e-06	6.33682e-07	5.43608e-07	8.57412e-07	8.49436e-07	0.118736	0.0478841	0.128028	21.9634	1208.2	2995.91	3230.36	-68.0366	0.0000000E+000	0.0000000E+000	0.0000000E+000	68.0366	0.0000000E+000	0.0000000E+000	0.0000000E+000	-68.0366	0.0000000E+000	0.0000000E+000	0.0000000E+000	-21.9634	0.0000000E+000	0.0000000E+000	0.0000000E+000	21.9634	2.47965	68.0366	-1.25179e-06
5011.6	7.49486	3.44059	8.24685	-24.658	1633.99	0.399031	-0.00557679	9.2302	1.60657	2	38	0.00537067	0.000651239	0	-8.28249e-05	1.2923	0.597897	27.6563	1.84571e-05	1.87307e-05	5.37115e-05	1.70172e-05	2.13992e-05	1.43307e-05	0.304126	0.136272	4.89284	1.3186e-06	2.48596e-07	4.73805e-07	7.52837e-07	6.06057e-07	7.73062e-07	0.110201	0.0505891	0.121258	24.658	1606.57	3499.7	3850.84	-65.342	0.0000000E+000	0.0000000E+000	0.0000000E+000	65.342	0.0000000E+000	0.0000000E+000	0.0000000E+000	-65.342	0.0000000E+000	0.0000000E+000	0.0000000E+000	-24.658	0.0000000E+000	0.0000000E+000	0.0000000E+000	24.658	2.17837	65.342	-1.48815e-06
3981.28	7.81756	4.04108	8.80026	-27.3355	1634.95	0.399029	-0.00619495	9.89238	2.08595	2	38	0.00508161	0.000577438	0	-8.5138e-05	1.66775	0.662743	30.3574	3.7946e-05	3.8542e-05	2.72379e-05	2.46129e-05	2.32243e-05	3.65496e-05	0.236498	0.176136	5.52161	3.31967e-07	4.92697e-07	4.43266e-07	5.52906e-07	9.05269e-07	3.00853e-07	0.100944	0.0521803	0.113633	27.3355	2085.95	4035.32	4542.58	-62.6645	0.0000000E+000	0.0000000E+000	0.0000000E+000	62.6645	0.0000000E+000	0.0000000E+000	0.0000000E+000	-62.6645	0.0000000E+000	0.0000000E+000	0.0000000E+000	-27.3355	0.0000000E+000	0.0000000E+000	0.0000000E+000	27.3355	1.93452	62.6645	-2.31312e-06
3163.04	8.17931	4.70187	9.43445	-29.8924	1635.69	0.399031	-0.00672002	10.7015	2.65799	2	38	0.00515474	0.000546375	0	-8.67021e-05	1.50192	0.738124	30.6542	1.35928e-05	3.48108e-05	3.26614e-05	2.03772e-05	3.25866e-05	4.20892e-05	0.372227	0.165848	5.72309	5.57884e-07	8.69129e-07	6.83305e-07	3.55072e-07	6.68095e-07	1.37828e-06	0.0918933	0.0528249	0.105995	29.8924	2657.99	4623.8	5333.34	-60.1076	0.0000000E+000	0.0000000E+000	0.0000000E+000	60.1076	0.0000000E+000	0.0000000E+000	0.0000000E+000	-60.1076	0.0000000E+000	0.0000000E+000	0.0000000E+000	-29.8924	0.0000000E+000	0.0000000E+000	0.0000000E+000	29.8924	1.73959	60.1076	-1.56413e-06
2512.41	8.55811	5.50799	10.1774	-32.7653	1636.44	0.399022	-0.0059138	11.501	3.36861	2	38	0.00517128	0.000508115	0	-8.76475e-05	1.5589	0.917338	30.517	3.13724e-05	4.27577e-05	2.35104e-05	2.44069e-05	2.2824e-05	3.97199e-05	0.285748	0.186624	6.34325	6.02624e-07	5.99502e-07	1.93062e-07	7.728e-07	4.73515e-07	3.75664e-07	0.0826239	0.0531766	0.0982571	32.7653	3368.61	5234.02	6224.34	-57.2347	0.0000000E+000	0.0000000E+000	0.0000000E+000	57.2347	0.0000000E+000	0.0000000E+000	0.0000000E+000	-57.2347	0.0000000E+000	0.0000000E+000	0.0000000E+000	-32.7653	0.0000000E+000	0.0000000E+000	0.0000000E+000	32.7653	1.55376	57.2347	-9.45362e-07
1995.64	8.87313	6.43424	10.9605	-35.9473	1637.18	0.399008	-0.00589332	12.3949	4.27147	2	38	0.00510185	0.000465477	0	-8.90083e-05	1.47111	0.942661	30.7237	3.35731e-05	3.07412e-05	1.28343e-05	2.86854e-05	4.09458e-05	2.85972e-05	0.349937	0.209613	6.87652	4.78928e-07	1.06696e-06	2.66714e-07	3.88313e-07	7.4182e-07	5.13536e-07	0.0738616	0.0535598	0.091237	35.9473	4271.47	5890.57	7276.28	-54.0527	0.0000000E+000	0.0000000E+000	0.0000000E+000	54.0527	0.0000000E+000	0.0000000E+000	0.0000000E+000	-54.0527	0.0000000E+000	0.0000000E+000	0.0000000E+000	-35.9473	0.0000000E+000	0.0000000E+000	0.0000000E+000	35.9473	1.37905	54.0527	-1.36082e-06
1584.49	9.28119	7.75402	12.094	-39.8773	1637.92	0.399022	-0.00576485	12.954	5.32495	2	38	0.00510547	0.000422149	0	-8.98918e-05	1.49532	0.44444	30.536	4.31197e-05	2.99842e-05	2.77152e-05	1.32668e-05	2.3096e-05	3.34547e-05	0.514125	0.203077	7.81764	1.24084e-06	1.2655e-06	5.65299e-07	6.15584e-07	8.20508e-07	3.49752e-07	0.0634545	0.0530134	0.0826855	39.8773	5324.95	6373.71	8305.37	-50.1227	0.0000000E+000	0.0000000E+000	0.0000000E+000	50.1227	0.0000000E+000	0.0000000E+000	0.0000000E+000	-50.1227	0.0000000E+000	0.0000000E+000	0.0000000E+000	-39.8773	0.0000000E+000	0.0000000E+000	0.0000000E+000	39.8773	1.19695	50.1227	-8.83523e-07
1258.79	9.75452	9.08753	13.3317	-42.9726	1638.67	0.399008	-0.00551163	13.913	6.46461	2	38	0.00505602	0.000379248	0	-9.07418e-05	1.27454	0.860607	30.9456	1.2401e-05	2.26031e-05	2.1094e-05	3.37667e-05	2.17195e-05	3.3505e-05	0.47431	0.293281	8.26086	1.23657e-06	2.63519e-07	7.99183e-07	7.23607e-07	5.22306e-07	1.88075e-07	0.0548827	0.05113	0.0750093	42.9726	6464.61	6939.09	9483.79	-47.0274	0.0000000E+000	0.0000000E+000	0.0000000E+000	47.0274	0.0000000E+000	0.0000000E+000	0.0000000E+000	-47.0274	0.0000000E+000	0.0000000E+000	0.0000000E+000	-42.9726	0.0000000E+000	0.0000000E+000	0.0000000E+000	42.9726	1.0734	47.0274	-8.49936e-07
999.682	10.2703	10.8336	14.928	-46.529	1639.41	0.399	-0.00578347	14.6955	7.73975	2	38	0.00503288	0.000337143	0	-9.21277e-05	1.67227	0.874675	30.9538	4.22235e-05	4.20533e-05	2.47573e-05	2.22416e-05	6.52593e-06	4.5109e-05	0.770167	0.187199	9.18858	1.39929e-06	1.18076e-06	6.99706e-07	8.92675e-07	7.34272e-07	9.2047e-07	0.0460869	0.0486148	0.0669881	46.529	7739.75	7337.3	10664.9	-43.471	0.0000000E+000	0.0000000E+000	0.0000000E+000	43.471	0.0000000E+000	0.0000000E+000	0.0000000E+000	-43.471	0.0000000E+000	0.0000000E+000	0.0000000E+000	-46.529	0.0000000E+000	0.0000000E+000	0.0000000E+000	46.529	0.948002	43.471	-1.38597e-06
794.239	10.7595	12.9738	16.8549	-50.3301	1640.15	0.398999	-0.0058114	15.4455	9.15133	2	38	0.00500467	0.000296927	0	-9.31588e-05	1.72239	1.07673	30.6453	2.90962e-05	3.37869e-05	4.02306e-05	4.85052e-05	8.42775e-06	2.73299e-05	0.869767	0.396935	10.8695	1.8564e-06	7.7635e-07	9.68788e-07	6.40215e-07	5.80803e-07	7.75432e-07	0.0378741	0.0456684	0.05933	50.3301	9151.33	7589.47	11888.9	-39.6699	0.0000000E+000	0.0000000E+000	0.0000000E+000	39.6699	0.0000000E+000	0.0000000E+000	0.0000000E+000	-39.6699	0.0000000E+000	0.0000000E+000	0.0000000E+000	-50.3301	0.0000000E+000	0.0000000E+000	0.0000000E+000	50.3301	0.82933	39.6699	-1.03104e-06
631.01	11.3861	15.5254	19.2531	-53.7442	1640.9	0.39903	-0.00422876	16.2458	10.5639	2	38	0.00497022	0.000258151	0	-9.42338e-05	1.7345	0.802709	30.8541	4.98054e-05	4.3568e-05	1.45965e-05	3.02459e-05	3.58251e-05	2.19654e-05	0.973829	0.281163	12.2107	1.64769e-06	1.07669e-06	7.64024e-07	1.0187e-06	6.30899e-07	4.38758e-07	0.0307166	0.0418833	0.0519396	53.7442	10563.9	7747.42	13100.3	-36.2558	0.0000000E+000	0.0000000E+000	0.0000000E+000	36.2558	0.0000000E+000	0.0000000E+000	0.0000000E+000	-36.2558	0.0000000E+000	0.0000000E+000	0.0000000E+000	-53.7442	0.0000000E+000	0.0000000E+000	0.0000000E+000	53.7442	0.733385	36.2558	-1.07501e-06
501.122	12.0007	18.871	22.3636	-57.5464	1641.64	0.399045	-0.00333689	16.8299	11.9836	2	38	0.00496436	0.000221984	0	-9.50598e-05	2.57981	1.03909	31.6852	1.5301e-05	2.16207e-05	4.4043e-05	9.71428e-05	3.97188e-05	4.51979e-05	1.42361	0.377805	14.5701	9.42978e-07	8.97197e-07	8.11269e-07	2.01876e-06	9.34239e-07	1.42304e-06	0.0239951	0.0377321	0.0447154	57.5464	11983.6	7620.76	14201.5	-32.4536	0.0000000E+000	0.0000000E+000	0.0000000E+000	32.4536	0.0000000E+000	0.0000000E+000	0.0000000E+000	-32.4536	0.0000000E+000	0.0000000E+000	0.0000000E+000	-57.5464	0.0000000E+000	0.0000000E+000	0.0000000E+000	57.5464	0.635933	32.4536	-8.26001e-07
398.089	12.638	22.7514	26.0259	-60.9486	1642.38	0.399055	-0.00352681	17.5724	13.4288	2	38	0.00493255	0.000189524	0	-9.59068e-05	1.78114	1.21435	30.4114	1.72117e-05	2.72896e-05	2.36232e-05	4.98678e-05	4.85936e-05	2.20879e-05	1.06179	0.746065	16.6263	1.15352e-06	3.71486e-07	7.08022e-07	8.47485e-07	7.37876e-07	5.22305e-07	0.0186581	0.033589	0.0384232	60.9486	13428.8	7459.47	15361.5	-29.0514	0.0000000E+000	0.0000000E+000	0.0000000E+000	29.0514	0.0000000E+000	0.0000000E+000	0.0000000E+000	-29.0514	0.0000000E+000	0.0000000E+000	0.0000000E+000	-60.9486	0.0000000E+000	0.0000000E+000	0.0000000E+000	60.9486	0.555483	29.0514	-8.46987e-07
316.316	13.3337	27.8756	30.9005	-64.4369	1643.38	0.399021	-0.000364957	18.0499	14.6891	2	39	0.00508913	0.000164694	0	-9.59843e-05	1.5549	0.688269	27.4983	3.36551e-05	3.72235e-05	2.31522e-05	3.56025e-05	3.33028e-05	1.63813e-05	0.878022	0.295457	8.35351	1.28545e-06	2.94879e-07	2.49012e-07	4.51802e-07	1.49349e-07	2.19151e-07	0.0139644	0.0291941	0.032362	64.4369	14689.1	7026.2	16283	-25.5631	0.0000000E+000	0.0000000E+000	0.0000000E+000	25.5631	0.0000000E+000	0.0000000E+000	0.0000000E+000	-25.5631	0.0000000E+000	0.0000000E+000	0.0000000E+000	-64.4369	0.0000000E+000	0.0000000E+000	0.0000000E+000	64.4369	0.478329	25.5631	-7.75193e-08
251.206	14.216	34.0138	36.8651	-67.3175	1644.12	0.399023	-0.000361604	18.6267	15.8568	2	39	0.0050182	0.000136124	0	-9.59639e-05	1.5628	0.430078	30.5186	2.23953e-05	2.36324e-05	5.87846e-05	1.52753e-05	3.24077e-05	1.68819e-05	0.916464	0.112352	11.1804	7.59227e-07	2.97332e-07	6.70382e-07	4.05628e-07	2.25437e-07	2.09048e-07	0.0104604	0.0250279	0.027126	67.3175	15856.8	6627.34	17186	-22.6825	0.0000000E+000	0.0000000E+000	0.0000000E+000	22.6825	0.0000000E+000	0.0000000E+000	0.0000000E+000	-22.6825	0.0000000E+000	0.0000000E+000	0.0000000E+000	-67.3175	0.0000000E+000	0.0000000E+000	0.0000000E+000	67.3175	0.41795	22.6825	2.0387e-08
199.553	15.1557	41.7889	44.4523	-70.0657	1644.87	0.399069	-0.000703796	19.0854	16.8668	2	39	0.00498725	0.000112193	0	-9.59779e-05	1.57462	1.13013	29.8598	1.40029e-05	6.16151e-05	2.32256e-05	2.54921e-05	2.62169e-05	1.25457e-05	0.680027	0.432901	12.7522	2.7454e-07	4.17331e-07	2.94883e-07	3.73402e-07	2.54487e-07	1.0927e-07	0.00766985	0.0211482	0.022496	70.0657	16866.8	6117.13	17941.8	-19.9343	0.0000000E+000	0.0000000E+000	0.0000000E+000	19.9343	0.0000000E+000	0.0000000E+000	0.0000000E+000	-19.9343	0.0000000E+000	0.0000000E+000	0.0000000E+000	-70.0657	0.0000000E+000	0.0000000E+000	0.0000000E+000	70.0657	0.362672	19.9343	-1.39903e-08
158.529	16.3863	51.6742	54.2101	-72.4058	1645.61	0.399048	-0.00065832	19.4284	17.6533	2	39	0.0049817	9.18961e-05	0	-9.61783e-05	1.15604	0.625658	29.8246	1.04435e-05	3.62495e-05	1.90302e-05	1.75311e-05	2.53889e-05	1.43984e-05	0.928791	0.238524	15.3691	4.72987e-07	4.04029e-07	2.61012e-07	2.21058e-07	3.80211e-07	2.04834e-07	0.00557596	0.0175838	0.0184468	72.4058	17653.3	5597.98	18519.6	-17.5942	0.0000000E+000	0.0000000E+000	0.0000000E+000	17.5942	0.0000000E+000	0.0000000E+000	0.0000000E+000	-17.5942	0.0000000E+000	0.0000000E+000	0.0000000E+000	-72.4058	0.0000000E+000	0.0000000E+000	0.0000000E+000	72.4058	0.317107	17.5942	-2.00435e-07
125.927	17.5167	63.349	65.7262	-74.5433	1646.35	0.39907	-0.00080817	19.9509	18.5338	2	39	0.00492784	7.49752e-05	0	-9.62992e-05	1.31788	0.791513	30.7604	2.16357e-05	1.51337e-05	3.83483e-05	3.57419e-05	1.57442e-05	1.95701e-05	0.871424	0.435221	18.0189	2.61157e-07	2.14004e-07	2.22575e-07	3.03555e-07	2.14407e-07	2.91011e-07	0.00405486	0.0146643	0.0152146	74.5433	18533.8	5124.81	19229.3	-15.4567	0.0000000E+000	0.0000000E+000	0.0000000E+000	15.4567	0.0000000E+000	0.0000000E+000	0.0000000E+000	-15.4567	0.0000000E+000	0.0000000E+000	0.0000000E+000	-74.5433	0.0000000E+000	0.0000000E+000	0.0000000E+000	74.5433	0.276512	15.4567	-1.20842e-07
99.9682	19.5944	79.0878	81.479	-76.0849	1647.09	0.399031	-0.000249032	20.1302	18.9661	2	39	0.00494682	6.07128e-05	0	-9.64568e-05	1.18146	0.875036	31.6524	3.89685e-05	2.03399e-05	7.21565e-06	2.43686e-05	1.56314e-05	1.02456e-05	1.49741	0.833713	23.4568	5.11473e-07	3.14504e-07	3.4153e-07	4.15593e-07	1.63921e-07	2.6684e-07	0.00295149	0.0119129	0.0122731	76.0849	18966	4698.93	19539.5	-13.9151	0.0000000E+000	0.0000000E+000	0.0000000E+000	13.9151	0.0000000E+000	0.0000000E+000	0.0000000E+000	-13.9151	0.0000000E+000	0.0000000E+000	0.0000000E+000	-76.0849	0.0000000E+000	0.0000000E+000	0.0000000E+000	76.0849	0.247755	13.9151	-1.57625e-07