File: Python/Data/GoldElectrode/240308/240308-EIS_Activation-0p5H2SO4-Ag_AgCl_BLF8-Au_RDE-Initial-C15_C15.mpt
EC-Lab ASCII FILE
Nb header lines : 66

Potentio Electrochemical Impedance Spectroscopy

Run on channel : 15 (SN 19485)
User :
Electrode connection : standard
Potential control : Ewe
Ewe ctrl range : min = -2.50 V, max = 2.50 V
Ewe,I filtering : 50 kHz
Safety Limits :
	Do not start on E overload
Channel : Floating
Acquisition started on : 03/08/2024 16:23:07.826
Loaded Setting File :  NONE
Saved on :
	File : 240308-EIS_Activation-0p5H2SO4-Ag_AgCl_BLF8-Au_RDE-Initial-C15_C15.mpr
	Directory : C:\Data\mathias\GoldElectrode\
	Host : 192.168.0.1
Device : VMP-300 (SN 0826)
Address : USB
EC-Lab for windows v11.52 (software)
Internet server v11.52 (firmware)
Command interpretor v11.52 (firmware)
Electrode material :
Initial state :
Electrolyte :
Comments :
Cable : special
Electrode surface area : 0.001 cm²
Characteristic mass : 0.001 g
Equivalent Weight : 0.000 g/eq.
Density : 0.000 g/cm3
Volume (V) : 0.001 cm³
Record EIS quality indicators
Cycle Definition : Charge/Discharge alternance
Mode                Single sine
E (V)               0.0000
vs.                 Eoc
tE (h:m:s)          0:00:0.0000
record              0
dI                  0.000
unit dI             mA
dt (s)              0.000
fi                  100.000
unit fi             kHz
ff                  100.000
unit ff             Hz
Nd                  10
Points              per decade
spacing             Logarithmic
Va (mV)             5.0
pw                  0.10
Na                  2
corr                0
E range min (V)     -2.500
E range max (V)     2.500
I Range             Auto
Bandwidth           8
nc cycles           1
goto Ns'            0
nr cycles           0
inc. cycle          0

freq/Hz	Re(Z)/Ohm	-Im(Z)/Ohm	|Z|/Ohm	Phase(Z)/deg	time/s	<Ewe>/V	<I>/mA	Cs/µF	Cp/µF	cycle number	I Range	|Ewe|/V	|I|/A	Ns	(Q-Qo)/mA.h	THD Ewe/%	NSD Ewe/%	NSR Ewe/%	|Ewe h2|/V	|Ewe h3|/V	|Ewe h4|/V	|Ewe h5|/V	|Ewe h6|/V	|Ewe h7|/V	THD I/%	NSD I/%	NSR I/%	|I h2|/A	|I h3|/A	|I h4|/A	|I h5|/A	|I h6|/A	|I h7|/A	Re(Y)/Ohm-1	Im(Y)/Ohm-1	|Y|/Ohm-1	Phase(Y)/deg	Re(C)/nF	Im(C)/nF	|C|/nF	Phase(C)/deg	Re(M)	Im(M)	|M|	Phase(M)/deg	Re(Permittivity)	Im(Permittivity)	|Permittivity|	Phase(Permittivity)/deg	Re(Resistivity)/Ohm.cm	Im(Resistivity)/Ohm.cm	|Resistivity|/Ohm.cm	Phase(Resistivity)/deg	Re(Conductivity)/mS/cm	Im(Conductivity)/mS/cm	|Conductivity|/mS/cm	Phase(Conductivity)/deg	Tan(Delta)	Loss Angle(Delta)/deg	dq/mA.h
100004	6.19087	0.801378	6.24252	-7.37565	2.9075	0.404235	-0.00386013	1.98594	0.0327282	1	38	0.00480435	0.000769618	0	-1.2004e-06	1.84084	0.752659	32.916	3.14253e-05	4.25688e-05	1.82643e-05	1.78452e-05	3.32862e-05	3.40297e-05	0.198597	0.16833	4.06999	4.77672e-07	5.91443e-07	5.16854e-07	6.59906e-07	8.44829e-07	3.93572e-07	0.158866	0.0205645	0.160192	7.37565	32.7282	252.834	254.944	-82.6244	0.0000000E+000	0.0000000E+000	0.0000000E+000	82.6244	0.0000000E+000	0.0000000E+000	0.0000000E+000	-82.6244	0.0000000E+000	0.0000000E+000	0.0000000E+000	-7.37565	0.0000000E+000	0.0000000E+000	0.0000000E+000	7.37565	7.72528	82.6244	-1.2004e-06
79433.3	6.23383	0.842702	6.29054	-7.69869	3.72148	0.404239	0.00510886	2.37763	0.0426694	1	38	0.00512003	0.000813925	0	-3.7094e-07	1.6098	0.609394	30.8065	3.47237e-05	4.11527e-05	2.15921e-05	2.65303e-05	3.93763e-05	2.90692e-05	0.194846	0.137902	3.86661	7.00632e-07	6.72099e-07	7.49261e-07	2.92305e-07	7.5058e-07	3.9914e-07	0.157536	0.021296	0.158969	7.69869	42.6694	315.644	318.515	-82.3013	0.0000000E+000	0.0000000E+000	0.0000000E+000	82.3013	0.0000000E+000	0.0000000E+000	0.0000000E+000	-82.3013	0.0000000E+000	0.0000000E+000	0.0000000E+000	-7.69869	0.0000000E+000	0.0000000E+000	0.0000000E+000	7.69869	7.39743	82.3013	8.29456e-07
63093.8	6.24027	0.939899	6.31066	-8.56541	4.5355	0.40423	0.00449628	2.68381	0.059534	1	38	0.00515108	0.00081625	0	-1.45319e-07	1.41257	0.869368	29.8394	3.25605e-05	2.93711e-05	2.48354e-05	2.26818e-05	1.14705e-05	4.01818e-05	0.293192	0.0851989	3.86418	1.3136e-06	8.50756e-07	1.30119e-06	5.19266e-07	7.36654e-07	6.58644e-07	0.156695	0.0236011	0.158462	8.56541	59.534	395.264	399.722	-81.4346	0.0000000E+000	0.0000000E+000	0.0000000E+000	81.4346	0.0000000E+000	0.0000000E+000	0.0000000E+000	-81.4346	0.0000000E+000	0.0000000E+000	0.0000000E+000	-8.56541	0.0000000E+000	0.0000000E+000	0.0000000E+000	8.56541	6.6393	81.4346	2.25622e-07
50122.5	6.27351	1.01951	6.35581	-9.2305	5.34949	0.404241	0.00463034	3.11454	0.0801381	1	38	0.00512643	0.000806573	0	9.96924e-07	1.63361	0.689144	31.7089	4.30941e-05	2.67822e-05	3.41288e-05	2.59254e-05	1.59722e-05	4.53739e-05	0.266144	0.0841755	3.86722	7.38105e-07	8.95711e-07	8.8554e-07	3.62465e-07	8.73529e-07	1.03679e-06	0.155299	0.0252378	0.157336	9.2305	80.1381	493.124	499.594	-80.7695	0.0000000E+000	0.0000000E+000	0.0000000E+000	80.7695	0.0000000E+000	0.0000000E+000	0.0000000E+000	-80.7695	0.0000000E+000	0.0000000E+000	0.0000000E+000	-9.2305	0.0000000E+000	0.0000000E+000	0.0000000E+000	9.2305	6.15343	80.7695	1.14224e-06
39814.1	6.3405	1.19014	6.45123	-10.6309	6.1645	0.404236	0.00378316	3.35882	0.114313	1	38	0.00516587	0.000800756	0	1.15755e-06	2.11787	0.762032	30.3697	4.86479e-05	3.38043e-05	3.94895e-05	5.71369e-05	3.5622e-05	2.77824e-05	0.254242	0.138826	3.88773	1.14278e-06	7.63189e-07	7.81602e-07	6.77697e-07	4.50183e-07	7.72942e-07	0.152349	0.0285964	0.155009	10.6309	114.313	609.007	619.642	-79.3691	0.0000000E+000	0.0000000E+000	0.0000000E+000	79.3691	0.0000000E+000	0.0000000E+000	0.0000000E+000	-79.3691	0.0000000E+000	0.0000000E+000	0.0000000E+000	-10.6309	0.0000000E+000	0.0000000E+000	0.0000000E+000	10.6309	5.32755	79.3691	1.60624e-07
31621.1	6.38739	1.38874	6.53662	-12.2663	6.97848	0.404203	0.0049748	3.62427	0.16359	1	38	0.00511034	0.000781802	0	1.73622e-06	1.72084	0.540437	30.4024	5.52022e-05	3.44066e-05	3.5409e-05	2.89342e-05	1.80954e-05	1.77663e-05	0.237121	0.131986	4.0391	1.13846e-06	6.91689e-07	3.88919e-07	6.75727e-07	3.79859e-07	5.99962e-07	0.149492	0.0325024	0.152984	12.2663	163.59	752.419	769.997	-77.7337	0.0000000E+000	0.0000000E+000	0.0000000E+000	77.7337	0.0000000E+000	0.0000000E+000	0.0000000E+000	-77.7337	0.0000000E+000	0.0000000E+000	0.0000000E+000	-12.2663	0.0000000E+000	0.0000000E+000	0.0000000E+000	12.2663	4.59941	77.7337	5.78676e-07
25116.9	6.48344	1.67314	6.69585	-14.4703	7.7925	0.404211	0.00415741	3.78723	0.23647	1	38	0.00523605	0.000781985	0	1.18386e-06	1.60813	1.07697	30.8989	5.98918e-05	2.80175e-05	1.62036e-05	3.5034e-05	1.90224e-05	2.13376e-05	0.178243	0.123085	4.03071	5.15151e-07	5.66763e-07	6.48673e-07	6.11729e-07	6.3573e-07	2.73567e-07	0.144609	0.0373183	0.149346	14.4703	236.47	916.322	946.342	-75.5297	0.0000000E+000	0.0000000E+000	0.0000000E+000	75.5297	0.0000000E+000	0.0000000E+000	0.0000000E+000	-75.5297	0.0000000E+000	0.0000000E+000	0.0000000E+000	-14.4703	0.0000000E+000	0.0000000E+000	0.0000000E+000	14.4703	3.87501	75.5297	-5.5236e-07
19948.8	6.56175	2.03731	6.87075	-17.2487	8.60648	0.404197	0.00449628	3.91604	0.344313	1	38	0.00517184	0.000752734	0	1.22697e-06	1.19964	0.797998	31.411	2.61856e-05	7.59238e-06	3.45383e-05	1.72211e-05	1.75658e-05	2.88581e-05	0.280422	0.124305	4.31114	3.08775e-07	1.07117e-06	1.13681e-06	2.93594e-07	5.66139e-07	8.48322e-07	0.138999	0.0431568	0.145545	17.2487	344.313	1108.96	1161.18	-72.7513	0.0000000E+000	0.0000000E+000	0.0000000E+000	72.7513	0.0000000E+000	0.0000000E+000	0.0000000E+000	-72.7513	0.0000000E+000	0.0000000E+000	0.0000000E+000	-17.2487	0.0000000E+000	0.0000000E+000	0.0000000E+000	17.2487	3.22079	72.7513	4.31101e-08
15847.7	6.6943	2.40481	7.11314	-19.7599	9.42049	0.404243	0.00402335	4.17613	0.477323	1	38	0.0051378	0.000722298	0	1.73998e-06	1.21596	0.736156	31.23	2.463e-05	1.88217e-05	2.27292e-05	2.07242e-05	3.73687e-05	2.23339e-05	0.259291	0.213798	4.36131	3.73213e-07	4.02182e-07	6.21958e-07	6.35231e-07	1.39857e-06	5.36881e-07	0.132307	0.047529	0.140585	19.7599	477.323	1328.73	1411.87	-70.2401	0.0000000E+000	0.0000000E+000	0.0000000E+000	70.2401	0.0000000E+000	0.0000000E+000	0.0000000E+000	-70.2401	0.0000000E+000	0.0000000E+000	0.0000000E+000	-19.7599	0.0000000E+000	0.0000000E+000	0.0000000E+000	19.7599	2.78371	70.2401	5.13006e-07
12590.9	6.916	2.89178	7.49623	-22.6913	10.2345	0.404249	0.00288012	4.37116	0.650493	1	38	0.00516133	0.000688524	0	1.98505e-06	1.40486	0.999316	30.997	1.27724e-05	3.28178e-05	3.79102e-05	3.0607e-05	2.24968e-05	2.35314e-05	0.240687	0.201133	4.60963	8.36153e-07	5.14419e-07	8.07788e-07	5.94876e-07	6.14765e-07	5.07142e-07	0.123075	0.0514612	0.1334	22.6913	650.493	1555.72	1686.24	-67.3087	0.0000000E+000	0.0000000E+000	0.0000000E+000	67.3087	0.0000000E+000	0.0000000E+000	0.0000000E+000	-67.3087	0.0000000E+000	0.0000000E+000	0.0000000E+000	-22.6913	0.0000000E+000	0.0000000E+000	0.0000000E+000	22.6913	2.3916	67.3087	2.45068e-07
10002.2	7.11646	3.47424	7.91924	-26.0215	11.0485	0.404207	0.00268648	4.57998	0.881487	1	38	0.00510873	0.000645103	0	2.95331e-06	1.39918	0.77734	30.384	3.94884e-05	2.89728e-05	3.47784e-05	2.78829e-05	1.34912e-05	9.38812e-06	0.285803	0.108972	4.81864	4.81307e-07	4.32752e-07	8.59455e-07	9.29426e-07	2.89578e-07	1.10606e-06	0.113474	0.0553978	0.126275	26.0215	881.487	1805.6	2009.28	-63.9785	0.0000000E+000	0.0000000E+000	0.0000000E+000	63.9785	0.0000000E+000	0.0000000E+000	0.0000000E+000	-63.9785	0.0000000E+000	0.0000000E+000	0.0000000E+000	-26.0215	0.0000000E+000	0.0000000E+000	0.0000000E+000	26.0215	2.04835	63.9785	9.68266e-07
7944	7.42619	4.20284	8.53301	-29.5076	11.898	0.404082	0.00270882	4.76692	1.15643	1	38	0.00508624	0.000596067	0	3.98714e-06	1.83455	1.02794	30.5396	2.73348e-05	4.91689e-05	3.39403e-05	3.15209e-05	2.45838e-05	4.76479e-05	0.266117	0.11071	5.24213	4.02335e-07	5.63063e-07	8.86778e-07	3.68563e-07	6.52652e-07	7.05724e-07	0.101991	0.0577216	0.117192	29.5076	1156.43	2043.35	2347.9	-60.4924	0.0000000E+000	0.0000000E+000	0.0000000E+000	60.4924	0.0000000E+000	0.0000000E+000	0.0000000E+000	-60.4924	0.0000000E+000	0.0000000E+000	0.0000000E+000	-29.5076	0.0000000E+000	0.0000000E+000	0.0000000E+000	29.5076	1.76695	60.4924	1.03382e-06
6307.74	7.9181	5.04736	9.39	-32.5153	12.7966	0.404083	0.00218376	4.99899	1.44437	1	38	0.00509643	0.000542751	0	4.27896e-06	1.35122	1.69111	31.8721	1.36605e-05	2.29729e-05	3.36612e-05	2.29868e-05	4.15201e-05	1.59205e-05	0.370716	0.264472	5.89775	1.05457e-06	5.67463e-07	5.63255e-07	1.04733e-06	6.74979e-07	6.24882e-07	0.0898027	0.0572444	0.106496	32.5153	1444.37	2265.88	2687.08	-57.4847	0.0000000E+000	0.0000000E+000	0.0000000E+000	57.4847	0.0000000E+000	0.0000000E+000	0.0000000E+000	-57.4847	0.0000000E+000	0.0000000E+000	0.0000000E+000	-32.5153	0.0000000E+000	0.0000000E+000	0.0000000E+000	32.5153	1.56876	57.4847	2.91819e-07
5011.6	8.4142	5.95282	10.307	-35.2784	13.5527	0.404087	0.00231223	5.33483	1.77951	1	38	0.00523481	0.000507888	0	5.20278e-06	1.40225	1.09193	30.4239	3.57217e-05	7.77913e-06	1.40271e-05	2.92069e-05	3.77159e-05	2.77023e-05	0.254142	0.162419	6.20224	6.65787e-07	4.46325e-07	4.40083e-07	1.6209e-07	3.22991e-07	7.01661e-07	0.0792038	0.0560346	0.0970212	35.2784	1779.51	2515.3	3081.13	-54.7216	0.0000000E+000	0.0000000E+000	0.0000000E+000	54.7216	0.0000000E+000	0.0000000E+000	0.0000000E+000	-54.7216	0.0000000E+000	0.0000000E+000	0.0000000E+000	-35.2784	0.0000000E+000	0.0000000E+000	0.0000000E+000	35.2784	1.41348	54.7216	9.23825e-07
3981.28	9.08465	6.92869	11.4253	-37.3321	14.2957	0.404074	0.00198453	5.76961	2.12184	1	38	0.0052385	0.0004585	0	5.30169e-06	1.37342	0.688291	30.2068	2.17216e-05	3.05174e-05	3.78875e-05	1.68878e-05	1.65494e-05	2.61605e-05	0.441165	0.16151	6.81003	4.40023e-07	9.55163e-07	1.02473e-06	1.0681e-06	4.17785e-07	7.16418e-07	0.0695941	0.0530781	0.087525	37.3321	2121.84	2782.08	3498.89	-52.6679	0.0000000E+000	0.0000000E+000	0.0000000E+000	52.6679	0.0000000E+000	0.0000000E+000	0.0000000E+000	-52.6679	0.0000000E+000	0.0000000E+000	0.0000000E+000	-37.3321	0.0000000E+000	0.0000000E+000	0.0000000E+000	37.3321	1.31116	52.6679	9.89037e-08
3163.04	9.8772	8.06829	12.7537	-39.244	15.0386	0.404079	0.00192867	6.2364	2.49589	1	38	0.00519947	0.000407684	0	5.42376e-06	1.36819	0.763995	30.5646	3.99871e-05	3.69507e-05	1.38478e-05	2.0265e-05	1.91135e-05	1.976e-05	0.363019	0.294407	7.72624	7.22208e-07	4.15808e-07	2.32201e-07	6.76234e-07	5.99632e-07	6.04616e-07	0.0607243	0.0496033	0.0784087	39.244	2495.89	3055.47	3945.3	-50.756	0.0000000E+000	0.0000000E+000	0.0000000E+000	50.756	0.0000000E+000	0.0000000E+000	0.0000000E+000	-50.756	0.0000000E+000	0.0000000E+000	0.0000000E+000	-39.244	0.0000000E+000	0.0000000E+000	0.0000000E+000	39.244	1.2242	50.756	1.22071e-07
2512.41	10.7813	9.11036	14.1151	-40.1982	15.7816	0.404065	0.00245001	6.95335	2.89666	1	38	0.00510704	0.000361815	0	6.16426e-06	1.89573	1.29858	31.7267	3.08952e-05	3.44554e-05	5.57115e-05	3.93818e-05	3.18498e-05	2.33621e-05	0.507436	0.242121	8.73394	4.6385e-07	1.1233e-06	7.59624e-07	6.74309e-07	7.27163e-07	4.33864e-07	0.0541134	0.0457266	0.0708462	40.1982	2896.66	3427.95	4487.93	-49.8018	0.0000000E+000	0.0000000E+000	0.0000000E+000	49.8018	0.0000000E+000	0.0000000E+000	0.0000000E+000	-49.8018	0.0000000E+000	0.0000000E+000	0.0000000E+000	-40.1982	0.0000000E+000	0.0000000E+000	0.0000000E+000	40.1982	1.18341	49.8018	7.40499e-07
1995.64	11.8685	10.4965	15.8442	-41.4897	16.5247	0.404036	0.00188584	7.59788	3.33461	1	38	0.00509499	0.000321568	0	6.50615e-06	1.34988	0.966931	31.1238	1.8538e-05	4.54748e-05	2.24174e-05	2.0832e-05	1.17297e-05	2.31584e-05	0.370253	0.306948	9.85929	3.79868e-07	3.59561e-07	5.73473e-07	6.48852e-07	3.5191e-07	4.12532e-07	0.0472776	0.0418125	0.0631147	41.4897	3334.61	3770.46	5033.48	-48.5103	0.0000000E+000	0.0000000E+000	0.0000000E+000	48.5103	0.0000000E+000	0.0000000E+000	0.0000000E+000	-48.5103	0.0000000E+000	0.0000000E+000	0.0000000E+000	-41.4897	0.0000000E+000	0.0000000E+000	0.0000000E+000	41.4897	1.13071	48.5103	3.41899e-07
1584.49	12.8363	12.0255	17.5893	-43.1321	17.2678	0.404095	0.00274233	8.35268	3.90424	1	38	0.00505077	0.00028715	0	6.90665e-06	1.22464	1.0163	30.9388	1.47167e-05	2.26579e-05	3.16234e-05	1.63795e-05	2.59225e-05	2.83101e-05	0.731129	0.207026	11.2063	8.19083e-07	5.1773e-07	4.32646e-07	1.56807e-06	6.32066e-07	5.46644e-07	0.0414899	0.0388692	0.0568527	43.1321	3904.24	4167.47	5710.59	-46.8679	0.0000000E+000	0.0000000E+000	0.0000000E+000	46.8679	0.0000000E+000	0.0000000E+000	0.0000000E+000	-46.8679	0.0000000E+000	0.0000000E+000	0.0000000E+000	-43.1321	0.0000000E+000	0.0000000E+000	0.0000000E+000	43.1321	1.06742	46.8679	4.00501e-07
1258.79	13.7857	13.5915	19.3591	-44.5937	18.011	0.404091	0.00132353	9.30248	4.58528	1	38	0.00498649	0.000257579	0	7.23846e-06	1.41483	0.726616	30.9304	2.7559e-05	1.87943e-05	3.80541e-05	2.84461e-05	2.27989e-05	2.48174e-05	0.59906	0.457734	12.2976	5.55945e-07	8.57238e-07	6.41813e-07	4.62264e-07	6.05379e-07	5.52762e-07	0.036784	0.0362659	0.0516554	44.5937	4585.28	4650.77	6531.04	-45.4063	0.0000000E+000	0.0000000E+000	0.0000000E+000	45.4063	0.0000000E+000	0.0000000E+000	0.0000000E+000	-45.4063	0.0000000E+000	0.0000000E+000	0.0000000E+000	-44.5937	0.0000000E+000	0.0000000E+000	0.0000000E+000	44.5937	1.01428	45.4063	3.3181e-07
999.682	14.9884	15.6272	21.6532	-46.1953	18.7548	0.40409	0.00201245	10.1877	5.30633	1	38	0.00497359	0.000229693	0	7.66922e-06	1.87624	0.659194	29.9807	2.75198e-05	4.43325e-05	4.52268e-05	1.99041e-05	3.78414e-05	2.96906e-05	1.00156	0.394002	13.7202	1.45249e-06	7.3747e-07	6.99395e-07	9.07632e-07	9.04961e-07	5.61184e-07	0.0319676	0.03333	0.0461825	46.1953	5306.33	5089.43	7352.51	-43.8047	0.0000000E+000	0.0000000E+000	0.0000000E+000	43.8047	0.0000000E+000	0.0000000E+000	0.0000000E+000	-43.8047	0.0000000E+000	0.0000000E+000	0.0000000E+000	-46.1953	0.0000000E+000	0.0000000E+000	0.0000000E+000	46.1953	0.959124	43.8047	4.30759e-07
794.239	15.8299	18.0555	24.0122	-48.7577	19.498	0.4041	0.00189514	11.0984	6.275	1	38	0.00490581	0.000204305	0	8.01934e-06	1.79443	1.09305	33.4594	4.89043e-05	1.87774e-05	2.94497e-05	2.40871e-05	4.0419e-05	3.32603e-05	1.04534	0.837304	15.745	1.0034e-06	6.41403e-07	7.85978e-07	8.72771e-07	7.18936e-07	9.92483e-07	0.0274546	0.0313145	0.0416455	48.7577	6275	5501.53	8345.21	-41.2423	0.0000000E+000	0.0000000E+000	0.0000000E+000	41.2423	0.0000000E+000	0.0000000E+000	0.0000000E+000	-41.2423	0.0000000E+000	0.0000000E+000	0.0000000E+000	-48.7577	0.0000000E+000	0.0000000E+000	0.0000000E+000	48.7577	0.876737	41.2422	3.50112e-07
631.01	17.056	21.3784	27.3485	-51.4166	20.2425	0.404123	0.00653509	11.798	7.20927	1	38	0.00495496	0.000181178	0	9.10885e-06	1.58315	0.941085	32.4664	2.80862e-05	2.77855e-05	2.91911e-05	1.61973e-05	2.01528e-05	5.18453e-05	1.05508	0.566326	17.8768	1.26976e-06	8.72152e-07	3.2133e-07	3.43921e-07	5.91789e-07	5.80948e-07	0.0228039	0.028583	0.0365651	51.4166	7209.27	5751.66	9222.54	-38.5834	0.0000000E+000	0.0000000E+000	0.0000000E+000	38.5834	0.0000000E+000	0.0000000E+000	0.0000000E+000	-38.5834	0.0000000E+000	0.0000000E+000	0.0000000E+000	-51.4166	0.0000000E+000	0.0000000E+000	0.0000000E+000	51.4166	0.797814	38.5834	1.08951e-06
501.122	18.3799	25.2152	31.203	-53.9109	21.2373	0.404124	0.000457348	12.5955	8.2252	1	39	0.00517302	0.000165786	0	9.66936e-06	1.6824	0.8339	29.5568	1.91286e-05	3.18723e-05	3.90995e-05	4.58021e-05	3.54556e-05	2.64748e-05	0.84131	0.247678	8.52899	1.09676e-06	3.11342e-07	3.5771e-07	1.35394e-07	3.97641e-07	5.27612e-07	0.0188778	0.0258982	0.0320482	53.9109	8225.2	5995.52	10178.4	-36.0891	0.0000000E+000	0.0000000E+000	0.0000000E+000	36.0891	0.0000000E+000	0.0000000E+000	0.0000000E+000	-36.0891	0.0000000E+000	0.0000000E+000	0.0000000E+000	-53.9109	0.0000000E+000	0.0000000E+000	0.0000000E+000	53.9109	0.728921	36.0891	5.60516e-07
398.089	19.3404	30.0532	35.7386	-57.2371	21.9827	0.404109	0.000249534	13.303	9.40711	1	39	0.00507783	0.000142083	0	9.73583e-06	1.41619	0.96836	31.4125	4.22948e-05	3.41144e-05	1.93048e-05	2.37773e-05	2.30465e-05	2.2552e-05	0.696465	0.182574	10.1736	7.69497e-07	3.40543e-07	2.38735e-07	2.93461e-07	1.52036e-07	2.29616e-07	0.0151423	0.0235297	0.027981	57.2371	9407.11	6053.85	11186.7	-32.7629	0.0000000E+000	0.0000000E+000	0.0000000E+000	32.7629	0.0000000E+000	0.0000000E+000	0.0000000E+000	-32.7629	0.0000000E+000	0.0000000E+000	0.0000000E+000	-57.2371	0.0000000E+000	0.0000000E+000	0.0000000E+000	57.2371	0.64354	32.7629	6.64673e-08
316.316	20.9405	35.8967	41.5581	-59.7427	22.7249	0.404123	0.000367139	14.0166	10.4578	1	39	0.00502657	0.000120953	0	9.73054e-06	1.47546	1.16327	29.1647	2.5552e-05	2.68103e-05	4.46007e-05	1.92381e-05	3.57805e-05	1.87765e-05	0.832074	0.370292	11.7823	6.80218e-07	2.4012e-07	2.2426e-07	4.05481e-07	2.37928e-07	2.79541e-07	0.0121248	0.0207847	0.0240627	59.7427	10457.8	6100.61	12107.2	-30.2573	0.0000000E+000	0.0000000E+000	0.0000000E+000	30.2573	0.0000000E+000	0.0000000E+000	0.0000000E+000	-30.2573	0.0000000E+000	0.0000000E+000	0.0000000E+000	-59.7427	0.0000000E+000	0.0000000E+000	0.0000000E+000	59.7427	0.583353	30.2573	-5.29118e-09
251.206	22.4148	43.418	48.8626	-62.6947	23.4678	0.404123	0.000236673	14.5922	11.5215	1	39	0.00499626	0.000102251	0	9.90723e-06	1.40654	0.614644	28.6293	3.31371e-05	2.07331e-05	1.21695e-05	4.40205e-05	1.57596e-05	2.71945e-05	1.09187	0.526252	13.5206	7.21822e-07	2.62127e-07	2.63904e-07	6.18376e-07	4.01436e-07	1.97046e-07	0.00938821	0.0181852	0.0204656	62.6947	11521.5	5948.03	12966.2	-27.3053	0.0000000E+000	0.0000000E+000	0.0000000E+000	27.3053	0.0000000E+000	0.0000000E+000	0.0000000E+000	-27.3053	0.0000000E+000	0.0000000E+000	0.0000000E+000	-62.6947	0.0000000E+000	0.0000000E+000	0.0000000E+000	62.6947	0.516256	27.3053	1.76694e-07
199.553	24.1395	53.07	58.3021	-65.541	24.2132	0.40412	0.000248415	15.0284	12.4521	1	39	0.00499335	8.56462e-05	0	9.88062e-06	1.93546	0.835241	29.8061	3.13176e-05	5.219e-05	4.1742e-05	3.96234e-05	3.0634e-05	3.022e-05	1.27239	0.564252	16.7448	5.28027e-07	6.80348e-07	2.34037e-07	1.81544e-07	1.68047e-07	5.40552e-07	0.00710166	0.0156128	0.017152	65.541	12452.1	5663.97	13679.7	-24.459	0.0000000E+000	0.0000000E+000	0.0000000E+000	24.459	0.0000000E+000	0.0000000E+000	0.0000000E+000	-24.459	0.0000000E+000	0.0000000E+000	0.0000000E+000	-65.541	0.0000000E+000	0.0000000E+000	0.0000000E+000	65.541	0.454862	24.459	-2.66089e-08
158.529	26.0094	64.176	69.2462	-67.9382	24.9606	0.404119	0.000462191	15.6437	13.4367	1	39	0.00494728	7.14447e-05	0	9.84367e-06	1.69653	0.782379	30.1476	2.68002e-05	2.49019e-05	5.07558e-05	3.42093e-05	2.4688e-05	2.5407e-05	1.54621	0.493286	19.0816	6.06003e-07	3.67682e-07	5.34689e-07	4.68948e-07	2.28574e-07	3.74992e-07	0.00542422	0.0133838	0.0144412	67.9382	13436.7	5445.64	14498.2	-22.0618	0.0000000E+000	0.0000000E+000	0.0000000E+000	22.0618	0.0000000E+000	0.0000000E+000	0.0000000E+000	-22.0618	0.0000000E+000	0.0000000E+000	0.0000000E+000	-67.9382	0.0000000E+000	0.0000000E+000	0.0000000E+000	67.9382	0.405282	22.0618	-3.69573e-08
125.927	28.3164	78.2712	83.2358	-70.1113	25.7013	0.404146	9.59559e-05	16.1473	14.2785	1	39	0.0049394	5.93423e-05	0	9.953e-06	1.57052	0.67304	29.9194	4.31835e-05	2.81349e-05	2.39306e-05	3.32351e-05	2.43259e-05	2.5241e-05	1.26871	0.732773	23.2539	5.10779e-07	1.39396e-07	1.86476e-07	2.76625e-07	1.12834e-07	3.25783e-07	0.00408712	0.0112975	0.0120141	70.1113	14278.5	5165.59	15184.2	-19.8887	0.0000000E+000	0.0000000E+000	0.0000000E+000	19.8887	0.0000000E+000	0.0000000E+000	0.0000000E+000	-19.8887	0.0000000E+000	0.0000000E+000	0.0000000E+000	-70.1113	0.0000000E+000	0.0000000E+000	0.0000000E+000	70.1113	0.361772	19.8887	1.09333e-07
99.9682	30.3734	95.363	100.083	-72.3332	26.4328	0.404106	0.000303023	16.6947	15.1571	1	39	0.00491693	4.91285e-05	0	1.00418e-05	1.60018	0.701932	29.8444	2.92883e-05	1.46475e-05	4.48504e-05	2.0357e-05	2.29519e-05	4.22028e-05	1.56138	0.531968	30.1903	1.43126e-07	1.41366e-07	3.05502e-07	1.94057e-07	2.40518e-07	5.80913e-07	0.0030323	0.00952045	0.00999169	72.3332	15157.1	4827.59	15907.3	-17.6668	0.0000000E+000	0.0000000E+000	0.0000000E+000	17.6668	0.0000000E+000	0.0000000E+000	0.0000000E+000	-17.6668	0.0000000E+000	0.0000000E+000	0.0000000E+000	-72.3332	0.0000000E+000	0.0000000E+000	0.0000000E+000	72.3332	0.318503	17.6668	8.88263e-08
100004	6.18749	0.831167	6.24307	-7.65075	27.8775	0.404236	7.41867e-05	1.91477	0.0339388	2	38	0.00477681	0.000765138	0	1.07881e-05	1.31805	0.838845	33.0697	1.08802e-05	2.87712e-05	2.13278e-05	3.82244e-05	2.2449e-05	2.00219e-05	0.241552	0.0712967	4.10065	9.75463e-07	7.19371e-07	6.96542e-07	5.14658e-07	4.9306e-07	7.52312e-07	0.158752	0.0213252	0.160178	7.65075	33.9388	252.652	254.921	-82.3493	0.0000000E+000	0.0000000E+000	0.0000000E+000	82.3493	0.0000000E+000	0.0000000E+000	0.0000000E+000	-82.3493	0.0000000E+000	0.0000000E+000	0.0000000E+000	-7.65075	0.0000000E+000	0.0000000E+000	0.0000000E+000	7.65075	7.44435	82.3493	7.46264e-07
79433.3	6.21101	0.865207	6.27099	-7.93039	28.6915	0.404225	0.000280865	2.31578	0.0440825	2	38	0.00512681	0.000817545	0	1.1722e-05	1.16529	0.728481	30.7775	1.65502e-05	2.31741e-05	1.86649e-05	1.97177e-05	3.07436e-05	2.63109e-05	0.2203	0.177404	3.82537	7.65286e-07	1.18578e-06	4.48136e-07	4.96201e-07	6.41725e-07	5.20353e-07	0.157939	0.0220013	0.159465	7.93039	44.0825	316.452	319.508	-82.0696	0.0000000E+000	0.0000000E+000	0.0000000E+000	82.0696	0.0000000E+000	0.0000000E+000	0.0000000E+000	-82.0696	0.0000000E+000	0.0000000E+000	0.0000000E+000	-7.93039	0.0000000E+000	0.0000000E+000	0.0000000E+000	7.93039	7.17864	82.0696	9.33916e-07
63093.8	6.24555	0.922706	6.31334	-8.40398	29.5055	0.404257	0.000463333	2.73382	0.0583953	2	38	0.0051362	0.000813548	0	1.24093e-05	1.65812	1.35093	30.6822	5.66116e-05	1.4199e-05	2.96451e-05	5.12027e-05	1.51769e-05	8.2997e-06	0.201039	0.110229	3.94593	8.14134e-07	5.29993e-07	2.12494e-07	4.89633e-07	7.98763e-07	8.80991e-07	0.156694	0.0231497	0.158395	8.40398	58.3954	395.262	399.553	-81.596	0.0000000E+000	0.0000000E+000	0.0000000E+000	81.596	0.0000000E+000	0.0000000E+000	0.0000000E+000	-81.596	0.0000000E+000	0.0000000E+000	0.0000000E+000	-8.40398	0.0000000E+000	0.0000000E+000	0.0000000E+000	8.40398	6.76873	81.596	6.87308e-07
50122.5	6.29067	1.02533	6.37368	-9.2574	30.3195	0.404189	0.000169148	3.09686	0.0801443	2	38	0.00518774	0.000813932	0	1.21834e-05	1.39862	1.05303	30.0289	1.83076e-05	1.96225e-05	2.5534e-05	4.53476e-05	3.19355e-05	1.98092e-05	0.190379	0.118419	3.84897	6.92158e-07	6.01226e-07	5.09155e-07	4.51178e-07	4.82106e-07	7.67298e-07	0.154852	0.0252397	0.156895	9.2574	80.1443	491.704	498.193	-80.7426	0.0000000E+000	0.0000000E+000	0.0000000E+000	80.7426	0.0000000E+000	0.0000000E+000	0.0000000E+000	-80.7426	0.0000000E+000	0.0000000E+000	0.0000000E+000	-9.2574	0.0000000E+000	0.0000000E+000	0.0000000E+000	9.2574	6.13523	80.7426	-2.25888e-07
39814.1	6.29134	1.24039	6.41245	-11.1532	31.1345	0.404229	0.000820824	3.22275	0.120585	2	38	0.00513771	0.000801208	0	1.16989e-05	1.48409	0.953991	30.2835	2.81041e-05	9.71318e-06	5.23438e-05	1.92715e-05	1.35398e-05	3.78139e-05	0.274715	0.0621783	3.90765	1.14148e-06	5.05964e-07	1.03548e-06	7.01937e-07	5.41782e-07	1.02533e-06	0.153001	0.0301654	0.155947	11.1532	120.585	611.616	623.39	-78.8468	0.0000000E+000	0.0000000E+000	0.0000000E+000	78.8468	0.0000000E+000	0.0000000E+000	0.0000000E+000	-78.8468	0.0000000E+000	0.0000000E+000	0.0000000E+000	-11.1532	0.0000000E+000	0.0000000E+000	0.0000000E+000	11.1532	5.07209	78.8468	-4.84568e-07
31621.1	6.4454	1.45758	6.60815	-12.7427	31.9485	0.404227	0.000642077	3.45311	0.168002	2	38	0.00517359	0.00078291	0	1.0561e-05	1.90398	1.12203	30.3466	7.19807e-05	3.80851e-05	1.55514e-05	2.62178e-05	2.79109e-05	2.23709e-05	0.287261	0.113815	4.10313	1.34912e-06	4.53334e-07	1.20788e-06	6.84288e-07	2.36563e-07	7.55124e-07	0.147601	0.0333789	0.151328	12.7427	168.002	742.903	761.662	-77.2573	0.0000000E+000	0.0000000E+000	0.0000000E+000	77.2573	0.0000000E+000	0.0000000E+000	0.0000000E+000	-77.2573	0.0000000E+000	0.0000000E+000	0.0000000E+000	-12.7427	0.0000000E+000	0.0000000E+000	0.0000000E+000	12.7427	4.42199	77.2573	-1.13787e-06
25116.9	6.50581	1.63263	6.70754	-14.0874	32.7625	0.404221	0.00124162	3.88121	0.22994	2	38	0.00519736	0.000774854	0	9.26956e-06	1.44528	0.783642	30.5127	1.50172e-05	3.95049e-05	4.2396e-05	2.73016e-05	2.43393e-05	9.9974e-06	0.249463	0.15888	4.11963	4.68607e-07	4.86824e-07	4.68976e-07	1.14386e-06	7.01482e-07	6.12738e-07	0.144602	0.0362878	0.149086	14.0874	229.94	916.282	944.693	-75.9126	0.0000000E+000	0.0000000E+000	0.0000000E+000	75.9126	0.0000000E+000	0.0000000E+000	0.0000000E+000	-75.9126	0.0000000E+000	0.0000000E+000	0.0000000E+000	-14.0874	0.0000000E+000	0.0000000E+000	0.0000000E+000	14.0874	3.98487	75.9126	-1.29143e-06
19948.8	6.55661	1.97855	6.84864	-16.7919	33.5765	0.404223	0.000249208	4.03234	0.336544	2	38	0.00509811	0.000744397	0	8.82698e-06	2.1682	0.693708	30.6597	5.53674e-05	2.17058e-05	4.8491e-05	5.37931e-05	1.58264e-05	5.19635e-05	0.334534	0.150442	4.38067	1.24118e-06	5.72942e-07	1.31421e-06	1.17116e-06	7.90928e-07	6.57833e-07	0.139788	0.0421831	0.146014	16.7919	336.544	1115.26	1164.93	-73.2081	0.0000000E+000	0.0000000E+000	0.0000000E+000	73.2081	0.0000000E+000	0.0000000E+000	0.0000000E+000	-73.2081	0.0000000E+000	0.0000000E+000	0.0000000E+000	-16.7919	0.0000000E+000	0.0000000E+000	0.0000000E+000	16.7919	3.31385	73.2081	-4.42578e-07
15847.7	6.70054	2.4137	7.12202	-19.8102	34.3905	0.404215	6.11516e-05	4.16075	0.477893	2	38	0.00514912	0.000722985	0	8.83339e-06	1.40995	0.97555	30.8111	2.05143e-05	1.63378e-05	4.59299e-05	2.79344e-05	2.11771e-05	3.27196e-05	0.190376	0.162761	4.3918	4.5412e-07	2.7167e-07	5.05394e-07	4.79449e-07	6.91108e-07	6.5181e-07	0.1321	0.0475857	0.14041	19.8102	477.893	1326.65	1410.1	-70.1898	0.0000000E+000	0.0000000E+000	0.0000000E+000	70.1898	0.0000000E+000	0.0000000E+000	0.0000000E+000	-70.1898	0.0000000E+000	0.0000000E+000	0.0000000E+000	-19.8102	0.0000000E+000	0.0000000E+000	0.0000000E+000	19.8102	2.77605	70.1898	6.41343e-09
12590.9	6.90182	2.92179	7.49479	-22.9447	35.2045	0.404239	0.00053036	4.32627	0.657493	2	38	0.00516211	0.00068876	0	8.62651e-06	1.08577	0.995372	29.6921	2.42331e-05	1.21506e-05	1.99371e-05	3.361e-05	2.41742e-05	1.31192e-05	0.242761	0.129145	4.67779	6.53049e-07	6.23625e-07	4.77022e-07	9.449e-07	3.87755e-07	7.39271e-07	0.12287	0.052015	0.133426	22.9447	657.493	1553.13	1686.56	-67.0553	0.0000000E+000	0.0000000E+000	0.0000000E+000	67.0553	0.0000000E+000	0.0000000E+000	0.0000000E+000	-67.0553	0.0000000E+000	0.0000000E+000	0.0000000E+000	-22.9447	0.0000000E+000	0.0000000E+000	0.0000000E+000	22.9447	2.36219	67.0553	-2.06882e-07
10002.2	7.10822	3.50913	7.92721	-26.2743	36.0185	0.404243	-6.3597e-05	4.53445	0.888549	2	38	0.00511835	0.000645669	0	9.93702e-06	1.48379	0.593188	30.4093	3.48008e-05	2.39489e-05	3.64868e-05	1.62263e-05	4.31588e-05	1.28439e-05	0.273625	0.170701	4.91193	8.40766e-07	3.09129e-07	6.51104e-07	5.5796e-07	1.05902e-06	5.49742e-07	0.113115	0.0558416	0.126148	26.2743	888.549	1799.88	2007.26	-63.7257	0.0000000E+000	0.0000000E+000	0.0000000E+000	63.7257	0.0000000E+000	0.0000000E+000	0.0000000E+000	-63.7257	0.0000000E+000	0.0000000E+000	0.0000000E+000	-26.2743	0.0000000E+000	0.0000000E+000	0.0000000E+000	26.2743	2.02564	63.7257	1.31051e-06
7944	7.42851	4.23607	8.55144	-29.6937	36.868	0.404131	-0.000722724	4.72953	1.16056	2	38	0.00509459	0.000595758	0	9.38062e-06	1.3816	1.09571	30.5374	1.94409e-05	2.61848e-05	2.37991e-05	2.26836e-05	1.92935e-05	4.70758e-05	0.355668	0.128168	5.25413	6.75053e-07	1.90266e-07	9.42883e-07	6.45023e-07	8.26631e-07	1.33933e-06	0.101584	0.0579275	0.116939	29.6937	1160.56	2035.19	2342.84	-60.3063	0.0000000E+000	0.0000000E+000	0.0000000E+000	60.3063	0.0000000E+000	0.0000000E+000	0.0000000E+000	-60.3063	0.0000000E+000	0.0000000E+000	0.0000000E+000	-29.6937	0.0000000E+000	0.0000000E+000	0.0000000E+000	29.6937	1.75363	60.3063	-5.564e-07
6307.74	7.89821	5.11206	9.40823	-32.9127	37.7666	0.404113	-0.000145524	4.93572	1.45723	2	38	0.00510304	0.000542401	0	8.37126e-06	1.52979	1.71464	30.463	2.61164e-05	5.32842e-05	2.41876e-05	2.626e-05	2.44527e-05	2.1755e-05	0.382594	0.328179	5.76586	7.31762e-07	1.02372e-06	3.74382e-07	5.6746e-07	7.37271e-07	1.04599e-06	0.0892303	0.0577537	0.10629	32.9127	1457.23	2251.43	2681.88	-57.0873	0.0000000E+000	0.0000000E+000	0.0000000E+000	57.0873	0.0000000E+000	0.0000000E+000	0.0000000E+000	-57.0873	0.0000000E+000	0.0000000E+000	0.0000000E+000	-32.9127	0.0000000E+000	0.0000000E+000	0.0000000E+000	32.9127	1.54501	57.0873	-1.00936e-06
5011.6	8.36535	5.95441	10.2681	-35.443	38.5227	0.404096	-0.000301928	5.33341	1.7935	2	38	0.00520406	0.000506818	0	7.86634e-06	1.85195	0.782004	30.6502	2.12029e-05	2.17776e-05	4.75077e-05	2.58689e-05	4.72186e-05	4.87214e-05	0.351701	0.21513	6.35	1.00229e-06	5.13948e-07	6.68102e-07	4.36692e-07	7.67114e-07	4.89858e-07	0.079342	0.0564752	0.0973889	35.443	1793.5	2519.69	3092.81	-54.557	0.0000000E+000	0.0000000E+000	0.0000000E+000	54.557	0.0000000E+000	0.0000000E+000	0.0000000E+000	-54.557	0.0000000E+000	0.0000000E+000	0.0000000E+000	-35.443	0.0000000E+000	0.0000000E+000	0.0000000E+000	35.443	1.4049	54.557	-5.0492e-07
3981.28	9.12662	6.96002	11.4777	-37.3294	39.2657	0.40409	-0.000283309	5.74364	2.11203	2	38	0.00525631	0.000457959	0	8.16212e-06	2.05546	0.992865	30.256	4.84871e-05	1.80734e-05	2.15814e-05	7.69378e-05	3.90046e-05	2.94424e-05	0.440156	0.23677	6.83652	5.14473e-07	6.14413e-07	7.65363e-07	1.44081e-06	2.70964e-07	6.80669e-07	0.0692791	0.0528327	0.0871257	37.3294	2112.03	2769.49	3482.92	-52.6706	0.0000000E+000	0.0000000E+000	0.0000000E+000	52.6706	0.0000000E+000	0.0000000E+000	0.0000000E+000	-52.6706	0.0000000E+000	0.0000000E+000	0.0000000E+000	-37.3294	0.0000000E+000	0.0000000E+000	0.0000000E+000	37.3294	1.31129	52.6706	2.95781e-07
3163.04	9.9461	8.0874	12.8192	-39.1153	40.0086	0.404136	0.000627174	6.22166	2.47631	2	38	0.00520931	0.000406369	0	8.45777e-06	1.43687	0.822044	29.5949	2.76607e-05	3.98549e-05	3.74578e-05	1.12269e-05	2.4455e-05	2.95412e-05	0.450032	0.197617	7.73845	5.28986e-07	1.04789e-06	8.33491e-07	4.52619e-07	8.99625e-07	4.29086e-07	0.0605248	0.0492141	0.0780082	39.1153	2476.31	3045.43	3925.15	-50.8847	0.0000000E+000	0.0000000E+000	0.0000000E+000	50.8847	0.0000000E+000	0.0000000E+000	0.0000000E+000	-50.8847	0.0000000E+000	0.0000000E+000	0.0000000E+000	-39.1153	0.0000000E+000	0.0000000E+000	0.0000000E+000	39.1153	1.22983	50.8847	2.95644e-07
2512.41	10.8873	9.20872	14.2595	-40.2254	40.7516	0.404113	-0.00100202	6.87908	2.86894	2	38	0.0051392	0.000360406	0	8.18471e-06	1.53441	0.705719	30.8163	2.73713e-05	3.06428e-05	2.50287e-05	4.49861e-05	2.34007e-05	2.83197e-05	0.391275	0.244326	8.82884	6.03779e-07	7.23071e-07	4.29293e-07	5.66022e-07	3.9973e-07	4.29788e-07	0.053544	0.0452889	0.0701288	40.2254	2868.94	3391.88	4442.48	-49.7746	0.0000000E+000	0.0000000E+000	0.0000000E+000	49.7746	0.0000000E+000	0.0000000E+000	0.0000000E+000	-49.7746	0.0000000E+000	0.0000000E+000	0.0000000E+000	-40.2254	0.0000000E+000	0.0000000E+000	0.0000000E+000	40.2254	1.18228	49.7746	-2.7306e-07
1995.64	11.6723	10.6587	15.8066	-42.401	41.4947	0.404117	-0.000234905	7.48231	3.40222	2	38	0.00505072	0.000319531	0	8.4495e-06	1.44044	2.13386	30.9937	3.01485e-05	2.27057e-05	1.09288e-05	4.06317e-05	4.02441e-05	2.07736e-05	0.610589	0.8924	9.82704	1.09617e-06	8.51775e-07	4.46189e-07	9.13377e-07	5.93645e-07	5.19676e-07	0.0467173	0.0426603	0.0632645	42.401	3402.22	3725.77	5045.44	-47.599	0.0000000E+000	0.0000000E+000	0.0000000E+000	47.599	0.0000000E+000	0.0000000E+000	0.0000000E+000	-47.599	0.0000000E+000	0.0000000E+000	0.0000000E+000	-42.401	0.0000000E+000	0.0000000E+000	0.0000000E+000	42.401	1.0951	47.599	2.64794e-07
1584.49	12.8415	11.965	17.5518	-42.9765	42.2388	0.404106	-0.000298213	8.39494	3.90123	2	38	0.00502452	0.000286269	0	8.42836e-06	1.73388	0.697267	30.2555	3.20468e-05	2.92714e-05	2.78711e-05	2.72315e-05	2.65385e-05	5.06784e-05	0.650869	0.222981	10.9069	1.0755e-06	3.78889e-07	4.03916e-07	1.04215e-06	3.20144e-07	8.01615e-07	0.0416844	0.0388393	0.0569744	42.9765	3901.23	4187	5722.81	-47.0235	0.0000000E+000	0.0000000E+000	0.0000000E+000	47.0235	0.0000000E+000	0.0000000E+000	0.0000000E+000	-47.0235	0.0000000E+000	0.0000000E+000	0.0000000E+000	-42.9765	0.0000000E+000	0.0000000E+000	0.0000000E+000	42.9765	1.07325	47.0235	-2.11385e-08
1258.79	14.0046	13.8548	19.6998	-44.6918	42.982	0.404113	0.00028271	9.12574	4.51377	2	38	0.00504112	0.000255897	0	8.24983e-06	1.59628	0.740272	30.8022	3.4656e-05	2.10933e-05	1.59002e-05	4.57512e-05	2.11512e-05	3.28067e-05	0.685416	0.506489	12.2816	4.60057e-07	5.80529e-07	6.64153e-07	8.74183e-07	5.17537e-07	9.44781e-07	0.0360866	0.0357004	0.0507618	44.6918	4513.77	4562.6	6418.06	-45.3082	0.0000000E+000	0.0000000E+000	0.0000000E+000	45.3082	0.0000000E+000	0.0000000E+000	0.0000000E+000	-45.3082	0.0000000E+000	0.0000000E+000	0.0000000E+000	-44.6918	0.0000000E+000	0.0000000E+000	0.0000000E+000	44.6918	1.01082	45.3082	-1.78534e-07
999.682	14.9993	15.8071	21.7909	-46.5021	43.7258	0.404123	-0.000186498	10.0718	5.29982	2	38	0.00498262	0.000228656	0	8.34624e-06	1.55444	1.1748	29.8899	2.60564e-05	3.26314e-05	4.62756e-05	3.36699e-05	2.09796e-05	2.09696e-05	0.932531	0.460807	13.8714	1.60275e-06	5.63873e-07	5.09174e-07	9.90995e-07	1.05658e-07	4.0951e-07	0.0315879	0.0332891	0.0458907	46.5021	5299.82	5028.96	7306.06	-43.4979	0.0000000E+000	0.0000000E+000	0.0000000E+000	43.4979	0.0000000E+000	0.0000000E+000	0.0000000E+000	-43.4979	0.0000000E+000	0.0000000E+000	0.0000000E+000	-46.5021	0.0000000E+000	0.0000000E+000	0.0000000E+000	46.5021	0.948894	43.4979	9.64108e-08
794.239	16.2714	18.0787	24.3227	-48.0118	44.4689	0.404113	-4.4992e-05	11.0841	6.12365	2	38	0.00496802	0.000204254	0	8.21822e-06	2.02401	1.44713	31.8768	7.401e-05	3.30905e-05	2.45904e-05	1.61719e-05	3.96646e-05	1.58935e-05	0.887066	1.24286	15.2382	7.67173e-07	9.82513e-07	5.92174e-07	3.85436e-07	6.87792e-07	7.10863e-07	0.0275042	0.0305592	0.0411138	48.0118	6123.65	5511.47	8238.65	-41.9882	0.0000000E+000	0.0000000E+000	0.0000000E+000	41.9882	0.0000000E+000	0.0000000E+000	0.0000000E+000	-41.9882	0.0000000E+000	0.0000000E+000	0.0000000E+000	-48.0118	0.0000000E+000	0.0000000E+000	0.0000000E+000	48.0118	0.90003	41.9882	-1.28025e-07
631.01	17.3438	21.4302	27.5692	-51.0161	45.2114	0.404159	0.00327856	11.7695	7.1115	2	38	0.00497877	0.000180592	0	8.82538e-06	1.60672	1.26712	30.987	3.2766e-05	2.13076e-05	2.64102e-05	1.68513e-05	3.7767e-05	4.38865e-05	1.09119	0.374981	17.1907	1.25357e-06	4.85268e-07	2.46939e-07	7.0126e-07	6.57567e-07	9.11583e-07	0.022819	0.0281953	0.0362723	51.0161	7111.5	5755.46	9148.7	-38.9839	0.0000000E+000	0.0000000E+000	0.0000000E+000	38.9839	0.0000000E+000	0.0000000E+000	0.0000000E+000	-38.9839	0.0000000E+000	0.0000000E+000	0.0000000E+000	-51.0161	0.0000000E+000	0.0000000E+000	0.0000000E+000	51.0161	0.809318	38.9839	6.07168e-07
501.122	18.3225	25.2336	31.1841	-54.016	46.2063	0.404122	0.000338065	12.5863	8.24116	2	39	0.00514404	0.000164957	0	9.16942e-06	1.65437	0.486195	29.3063	2.89539e-05	3.80569e-05	1.41867e-05	3.24341e-05	3.62006e-05	4.20926e-05	0.710589	0.165699	8.67544	9.60296e-07	3.7018e-07	1.9207e-07	3.57443e-07	2.62281e-07	2.15564e-07	0.0188416	0.0259485	0.0320676	54.016	8241.16	5984.04	10184.6	-35.984	0.0000000E+000	0.0000000E+000	0.0000000E+000	35.984	0.0000000E+000	0.0000000E+000	0.0000000E+000	-35.984	0.0000000E+000	0.0000000E+000	0.0000000E+000	-54.016	0.0000000E+000	0.0000000E+000	0.0000000E+000	54.016	0.726116	35.984	3.44041e-07
398.089	19.5702	30.4432	36.1909	-57.2654	46.9517	0.40411	0.000163054	13.1325	9.29247	2	39	0.00511235	0.00014126	0	9.22689e-06	1.36328	1.19451	28.0627	2.66751e-05	4.10095e-05	1.81634e-05	2.10246e-05	2.81233e-05	2.35756e-05	0.842215	0.348411	10.2932	1.00046e-06	3.26817e-07	1.86814e-07	1.15207e-07	3.38543e-07	3.48635e-07	0.0149416	0.0232429	0.0276312	57.2654	9292.47	5973.59	11046.9	-32.7346	0.0000000E+000	0.0000000E+000	0.0000000E+000	32.7346	0.0000000E+000	0.0000000E+000	0.0000000E+000	-32.7346	0.0000000E+000	0.0000000E+000	0.0000000E+000	-57.2654	0.0000000E+000	0.0000000E+000	0.0000000E+000	57.2654	0.642842	32.7346	5.74678e-08
316.316	21.1933	36.1498	41.9042	-59.6185	47.6939	0.40411	0.000312157	13.9185	10.3583	2	39	0.00505242	0.000120571	0	9.26279e-06	1.22593	0.678981	28.8667	2.14851e-05	4.31467e-05	2.40679e-05	1.24865e-05	1.27311e-05	1.81906e-05	0.710918	0.173607	11.7051	5.03389e-07	4.19358e-07	1.71523e-07	4.00976e-07	1.16117e-07	2.95235e-07	0.0120693	0.0205869	0.0238639	59.6185	10358.3	6072.71	12007.2	-30.3815	0.0000000E+000	0.0000000E+000	0.0000000E+000	30.3815	0.0000000E+000	0.0000000E+000	0.0000000E+000	-30.3815	0.0000000E+000	0.0000000E+000	0.0000000E+000	-59.6185	0.0000000E+000	0.0000000E+000	0.0000000E+000	59.6185	0.586264	30.3815	3.58928e-08
251.206	22.5887	43.3864	48.9145	-62.4967	48.4368	0.40411	0.000179455	14.6028	11.4886	2	39	0.00498535	0.00010192	0	9.42419e-06	1.17436	0.672058	30.3568	2.8175e-05	2.3076e-05	2.79499e-05	2.42935e-05	1.79445e-05	1.038e-05	0.989033	0.142232	14.4589	6.65926e-07	2.76167e-07	4.81502e-07	3.90167e-07	2.27665e-07	1.54898e-07	0.00944094	0.0181334	0.0204438	62.4967	11488.6	5981.43	12952.5	-27.5033	0.0000000E+000	0.0000000E+000	0.0000000E+000	27.5033	0.0000000E+000	0.0000000E+000	0.0000000E+000	-27.5033	0.0000000E+000	0.0000000E+000	0.0000000E+000	-62.4967	0.0000000E+000	0.0000000E+000	0.0000000E+000	62.4967	0.520639	27.5033	1.61402e-07
199.553	24.3564	53.0755	58.3973	-65.3496	49.1822	0.404103	8.8315e-05	15.0268	12.4128	2	39	0.00499227	8.54881e-05	0	9.39438e-06	1.32831	0.721828	29.7068	2.76955e-05	3.0288e-05	4.05894e-05	1.53972e-05	2.29663e-05	7.20929e-06	1.14617	0.731717	16.4581	3.02525e-07	5.01096e-07	8.46419e-08	4.53658e-07	3.26499e-07	4.6863e-07	0.00714212	0.0155636	0.0171241	65.3496	12412.8	5696.24	13657.4	-24.6504	0.0000000E+000	0.0000000E+000	0.0000000E+000	24.6504	0.0000000E+000	0.0000000E+000	0.0000000E+000	-24.6504	0.0000000E+000	0.0000000E+000	0.0000000E+000	-65.3496	0.0000000E+000	0.0000000E+000	0.0000000E+000	65.3496	0.4589	24.6504	-2.98093e-08
158.529	26.1917	64.2689	69.401	-67.8275	49.9286	0.404125	1.32036e-05	15.6211	13.3962	2	39	0.00494098	7.11946e-05	0	9.24174e-06	1.77233	0.752554	30.1232	4.59286e-05	1.90825e-05	2.91444e-05	3.93581e-05	2.42605e-05	2.93732e-05	1.22839	0.601977	19.8937	5.78019e-07	3.41417e-07	2.30489e-07	1.21694e-07	2.00228e-07	3.60702e-07	0.00543791	0.0133435	0.014409	67.8275	13396.2	5459.39	14465.9	-22.1725	0.0000000E+000	0.0000000E+000	0.0000000E+000	22.1725	0.0000000E+000	0.0000000E+000	0.0000000E+000	-22.1725	0.0000000E+000	0.0000000E+000	0.0000000E+000	-67.8275	0.0000000E+000	0.0000000E+000	0.0000000E+000	67.8275	0.407533	22.1725	-1.52636e-07
125.927	28.4373	78.4809	83.4741	-70.0822	50.6703	0.404134	0.000182995	16.1042	14.2352	2	39	0.00494084	5.919e-05	0	9.33296e-06	1.25645	0.34909	30.4624	3.22827e-05	5.83815e-06	2.28282e-05	6.73458e-06	2.70117e-05	2.15141e-05	1.12951	0.73133	23.9797	4.4141e-07	1.85127e-07	2.36145e-07	1.66369e-07	1.63225e-07	2.43433e-07	0.00408117	0.0112632	0.0119798	70.0822	14235.2	5158.07	15140.9	-19.9178	0.0000000E+000	0.0000000E+000	0.0000000E+000	19.9178	0.0000000E+000	0.0000000E+000	0.0000000E+000	-19.9178	0.0000000E+000	0.0000000E+000	0.0000000E+000	-70.0822	0.0000000E+000	0.0000000E+000	0.0000000E+000	70.0822	0.362347	19.9178	9.12192e-08
99.9682	31.2727	95.6538	100.636	-71.8955	51.4018	0.404129	0.000273761	16.644	15.0367	2	39	0.0049139	4.88284e-05	0	9.34254e-06	1.49761	0.553771	28.8119	1.91718e-05	1.8464e-05	3.68837e-05	2.64786e-05	2.54656e-05	3.33792e-05	1.85249	0.496863	27.6004	4.88434e-07	3.1791e-07	4.93492e-07	2.01009e-07	1.16891e-07	3.54753e-07	0.00308786	0.00944484	0.00993679	71.8955	15036.7	4916.05	15819.9	-18.1045	0.0000000E+000	0.0000000E+000	0.0000000E+000	18.1045	0.0000000E+000	0.0000000E+000	0.0000000E+000	-18.1045	0.0000000E+000	0.0000000E+000	0.0000000E+000	-71.8955	0.0000000E+000	0.0000000E+000	0.0000000E+000	71.8955	0.326937	18.1045	9.58345e-09