File: Python/Data/GoldElectrode/240308/240308-CVEIS_PostActivation-Fe2Fe3_5mM-HCl1M-0RPM-Ag_AgCl_BLF8-Au_RDE-C15_01_CV_C15.mpt
EC-Lab ASCII FILE
Nb header lines : 60

Cyclic Voltammetry

Run on channel : 15 (SN 19485)
User :
Electrode connection : standard
Potential control : Ewe
Ewe ctrl range : min = -1.00 V, max = 1.00 V
Ewe,I filtering : <None>
Safety Limits :
	Do not start on E overload
Channel : Floating
Acquisition started on : 03/08/2024 17:26:24.349
Loaded Setting File :  C:\Data\mathias\GoldElectrode\240308-CVEIS_PostActivation-Fe2Fe3_5mM-HCl1M-0RPM-Ag_AgCl_BLF8-Au_RDE-C15.mps
Saved on :
	File : 240308-CVEIS_PostActivation-Fe2Fe3_5mM-HCl1M-0RPM-Ag_AgCl_BLF8-Au_RDE-C15_01_CV_C15.mpr
	Directory : C:\Data\mathias\GoldElectrode\
	Host : 192.168.0.1
Device : VMP-300 (SN 0826)
Address : USB
EC-Lab for windows v11.52 (software)
Internet server v11.52 (firmware)
Command interpretor v11.52 (firmware)
Electrode material :
Initial state :
Electrolyte :
Comments :
Cable : special
Electrode surface area : 0.001 cm²
Characteristic mass : 0.001 g
Equivalent Weight : 0.000 g/eq.
Density : 0.000 g/cm3
Volume (V) : 0.001 cm³
Record EIS quality indicators
Cycle Definition : Charge/Discharge alternance
Ei (V)              0.000
vs.                 Eoc
dE/dt               20.000
dE/dt unit          mV/s
E1 (V)              1.000
vs.                 Ref
Step percent        50
N                   10
E range min (V)     -1.000
E range max (V)     1.000
I Range             Auto
I Range min         Unset
I Range max         Unset
I Range init        Unset
Bandwidth           8
E2 (V)              0.000
vs.                 Ref
nc cycles           1
Reverse Scan        1
Ef (V)              0.000
vs.                 Eoc

mode	ox/red	error	control changes	counter inc.	time/s	control/V	Ewe/V	<I>/mA	cycle number	(Q-Qo)/C	I Range	step time/s	P/W
2	0	0	0	0	0.000000000000000E+000	0.452471	0.452586	-0.000912361	1	0.0000000E+000	43	0.000000000000000E+000	-4.12922e-07
2	1	0	1	0	0.3736	0.459942	0.459432	0.0606941	1	1.45893e-05	41	0.3298	2.78848e-05
2	1	0	1	0	0.6985	0.466439	0.465936	0.0824547	1	3.80853e-05	41	0.6547	3.84187e-05
2	1	0	1	0	1.0233	0.472936	0.472535	0.0972776	1	6.74277e-05	41	0.9795	4.59671e-05
2	1	0	1	0	1.3482	0.479433	0.479355	0.107208	1	0.000100775	41	1.3044	5.13909e-05
2	1	0	1	0	1.703	0.48653	0.486233	0.113127	1	0.000140079	40	1.6592	5.50062e-05
2	1	0	1	0	2.0278	0.493025	0.492628	0.115909	1	0.000177502	40	1.984	5.71001e-05
2	1	0	1	0	2.3527	0.499523	0.499132	0.115895	1	0.00021535	40	2.3089	5.78471e-05
2	1	0	1	0	2.6775	0.50602	0.505896	0.114171	1	0.000252914	40	2.6337	5.77588e-05
2	1	0	1	0	3.0024	0.512517	0.512171	0.111081	1	0.000289722	40	2.9586	5.68927e-05
2	1	0	1	0	3.3272	0.519014	0.518698	0.107271	1	0.000325423	40	3.2834	5.56411e-05
2	1	0	1	0	3.6521	0.525511	0.525317	0.103147	1	0.000359844	40	3.6083	5.41848e-05
2	1	0	1	0	3.9769	0.532008	0.531705	0.0988955	1	0.000392889	40	3.9331	5.25832e-05
2	1	0	1	0	4.3018	0.538505	0.538055	0.0945894	1	0.00042455	40	4.258	5.08943e-05
2	1	0	1	0	4.6266	0.545002	0.544774	0.0906547	1	0.000454847	40	4.5828	4.93863e-05
2	1	0	1	0	4.9515	0.551499	0.551493	0.0865826	1	0.000483856	40	4.9077	4.77497e-05
2	1	0	1	0	5.2763	0.557995	0.557595	0.0831128	1	0.000511638	40	5.2325	4.63433e-05
2	1	0	1	0	5.6012	0.564494	0.564193	0.0797525	1	0.00053829	40	5.5574	4.49958e-05
2	1	0	1	0	5.926	0.570989	0.570662	0.0768259	1	0.000563905	40	5.8822	4.38416e-05
2	1	0	1	0	6.2508	0.577486	0.577281	0.0739798	1	0.000588566	40	6.207	4.27071e-05
2	1	0	1	0	6.5757	0.583983	0.583638	0.0714527	1	0.000612372	40	6.5319	4.17025e-05
2	1	0	1	0	6.9005	0.59048	0.589694	0.069339	1	0.000635383	40	6.8567	4.08888e-05
2	1	0	1	0	7.2254	0.596977	0.596571	0.0673462	1	0.000657694	40	7.1816	4.01768e-05
2	1	0	1	0	7.5502	0.603474	0.603215	0.0653527	1	0.000679355	40	7.5064	3.94217e-05
2	1	0	1	0	7.8751	0.609971	0.609893	0.0637565	1	0.000700442	40	7.8313	3.88846e-05
2	1	0	1	0	8.1999	0.616468	0.616078	0.0622536	1	0.000720997	40	8.1561	3.83531e-05
2	1	0	1	0	8.5248	0.622966	0.622579	0.0610414	1	0.000741101	40	8.481	3.80031e-05
2	1	0	1	0	8.8496	0.629461	0.629177	0.0597753	1	0.000760778	40	8.8058	3.76093e-05
2	1	0	1	0	9.1744	0.635958	0.635511	0.0587203	1	0.000780085	40	9.1306	3.73174e-05
2	1	0	1	0	9.4993	0.642455	0.641931	0.0578149	1	0.000799068	40	9.4555	3.71132e-05
2	1	0	1	0	9.8241	0.648952	0.648671	0.0570568	1	0.000817761	40	9.7803	3.70111e-05
2	1	0	1	0	10.149	0.655449	0.655304	0.0563877	1	0.000836218	40	10.1052	3.69511e-05
2	1	0	1	0	10.4738	0.661946	0.661679	0.0557722	1	0.00085447	40	10.43	3.69033e-05
2	1	0	1	0	10.7987	0.668443	0.6682	0.0554963	1	0.00087259	40	10.7549	3.70826e-05
2	1	0	1	0	11.1235	0.67494	0.674677	0.0554668	1	0.000890615	40	11.0797	3.74222e-05
2	1	0	1	0	11.4484	0.681437	0.681182	0.0553521	1	0.000908617	40	11.4046	3.77049e-05
2	1	0	1	0	11.7732	0.687933	0.687425	0.055614	1	0.000926651	40	11.7294	3.82305e-05
2	1	0	1	0	12.098	0.69443	0.694002	0.0561041	1	0.000944803	40	12.0542	3.89363e-05
2	1	0	1	0	12.4229	0.700927	0.70057	0.0567324	1	0.000963149	40	12.3791	3.9745e-05
2	1	0	1	0	12.7477	0.707424	0.706954	0.057802	1	0.000981784	40	12.7039	4.08634e-05
2	1	0	1	0	13.0726	0.713921	0.713711	0.0592212	1	0.00100081	40	13.0288	4.22668e-05
2	1	0	1	0	13.3974	0.720418	0.720123	0.0608967	1	0.00102031	40	13.3536	4.38531e-05
2	1	0	1	0	13.7223	0.726915	0.726499	0.0629199	1	0.00104042	40	13.6785	4.57113e-05
2	1	0	1	0	14.0471	0.733412	0.733084	0.0650288	1	0.0010612	40	14.0033	4.76715e-05
2	1	0	1	0	14.372	0.739909	0.739487	0.0674741	1	0.00108276	40	14.3282	4.98962e-05
2	1	0	1	0	14.6968	0.746405	0.746013	0.0701058	1	0.00110515	40	14.653	5.22998e-05
2	1	0	1	0	15.0216	0.752902	0.752477	0.0732275	1	0.00112847	40	14.9778	5.5102e-05
2	1	0	1	0	15.3465	0.759399	0.759171	0.0768165	1	0.00115288	40	15.3027	5.83168e-05
2	1	0	1	0	15.6713	0.765896	0.765536	0.0809668	1	0.00117852	40	15.6275	6.1983e-05
2	1	0	1	0	15.9962	0.772393	0.771729	0.0857644	1	0.0012056	40	15.9524	6.61869e-05
2	1	0	1	0	16.321	0.77889	0.778469	0.0908172	1	0.00123429	40	16.2772	7.06984e-05
2	1	0	1	0	16.6459	0.785387	0.78497	0.0968473	1	0.0012648	40	16.6021	7.60223e-05
2	1	0	1	0	16.9707	0.791884	0.791535	0.103681	1	0.00129737	40	16.9269	8.20674e-05
2	1	0	1	0	17.2956	0.798381	0.798019	0.11156	1	0.00133234	40	17.2518	8.90274e-05
2	1	0	1	0	17.6204	0.804877	0.804712	0.120752	1	0.00137006	40	17.5766	9.71703e-05
2	1	0	1	0	17.9452	0.811374	0.811055	0.131911	1	0.00141109	40	17.9014	0.000106987
2	1	0	1	0	18.2701	0.817871	0.817628	0.145335	1	0.00145609	40	18.2263	0.00011883
2	1	0	1	0	18.5949	0.824368	0.823893	0.161677	1	0.0015059	40	18.5511	0.000133204
2	1	0	1	0	18.9198	0.830865	0.830798	0.182033	1	0.00156169	40	18.876	0.000151233
2	1	0	1	0	19.2446	0.837362	0.837195	0.207401	1	0.00162487	40	19.2008	0.000173635
2	1	0	1	0	19.5695	0.843859	0.843425	0.238772	1	0.00169724	40	19.5257	0.000201386
2	1	0	1	0	19.8943	0.850356	0.849755	0.2777	1	0.00178096	40	19.8505	0.000235977
2	1	0	1	0	20.2192	0.856853	0.856436	0.325513	1	0.00187874	40	20.1754	0.000278781
2	1	0	1	0	20.544	0.86335	0.863099	0.384027	1	0.00199374	40	20.5002	0.000331453
2	1	0	1	0	20.8688	0.869846	0.869564	0.45543	1	0.00212983	40	20.825	0.000396026
2	1	0	1	0	21.1937	0.876343	0.875918	0.541449	1	0.00229148	40	21.1499	0.000474265
2	1	0	1	0	21.5185	0.88284	0.882235	0.64334	1	0.00248358	40	21.4747	0.000567577
2	1	0	1	0	21.8434	0.889337	0.888939	0.762285	1	0.00271164	40	21.7996	0.000677625
2	1	0	1	0	22.1682	0.895834	0.895545	0.898013	1	0.00298101	40	22.1244	0.000804211
2	1	0	1	0	22.4931	0.902331	0.902146	1.05015	1	0.00329722	40	22.4493	0.00094739
2	1	0	1	0	22.8479	0.909427	0.909058	1.23421	1	0.003702	39	22.8041	0.00112197
2	1	0	1	0	23.1728	0.915925	0.915501	1.41916	1	0.0041329	39	23.129	0.00129924
2	1	0	1	0	23.4976	0.922421	0.92215	1.61846	1	0.00462601	39	23.4538	0.00149246
2	1	0	1	0	23.8224	0.928918	0.928546	1.83549	1	0.00518679	39	23.7786	0.00170434
2	1	0	1	0	24.1473	0.935415	0.935176	2.07147	1	0.00582121	39	24.1035	0.00193719
2	1	0	1	0	24.4721	0.941912	0.941598	2.32781	1	0.00653542	39	24.4283	0.00219186
2	1	0	1	0	24.797	0.948409	0.947862	2.60677	1	0.00733681	39	24.7532	0.00247086
2	1	0	1	0	25.1218	0.954906	0.954623	2.90872	1	0.00823231	39	25.078	0.00277673
2	1	0	1	0	25.4467	0.961403	0.960777	3.2357	1	0.00923026	39	25.4029	0.00310879
2	1	0	1	0	25.7715	0.9679	0.967606	3.58682	1	0.0103381	39	25.7277	0.00347062
2	1	0	1	0	26.0964	0.974397	0.974181	3.9635	1	0.0115646	39	26.0526	0.00386117
2	1	0	1	0	26.4212	0.980893	0.980294	4.36487	1	0.012917	39	26.3774	0.00427885
2	1	0	1	0	26.746	0.98739	0.987184	4.78954	1	0.0144037	39	26.7022	0.00472816
2	1	0	1	0	27.0709	0.993887	0.993424	5.23866	1	0.0160329	39	27.0271	0.0052042
2	1	0	1	0	27.3774	1.00001	0.999586	5.682	1	0.0177065	39	27.3336	0.00567965
2	1	0	1	0	27.6909	0.993737	0.993413	5.0913	1	0.0193911	39	27.6471	0.00505776
2	1	0	1	0	28.0158	0.98724	0.98695	4.5607	1	0.0209568	39	27.972	0.00450119
2	1	0	1	0	28.3406	0.980743	0.980547	4.0825	1	0.0223586	39	28.2968	0.00400308
2	1	0	1	0	28.6654	0.974246	0.974026	3.65062	1	0.0236129	39	28.6216	0.0035558
2	1	0	1	0	28.9903	0.96775	0.967537	3.25606	1	0.0247333	39	28.9465	0.00315036
2	1	0	1	0	29.3151	0.961253	0.960842	2.89794	1	0.0257313	39	29.2713	0.00278446
2	1	0	1	0	29.64	0.954756	0.954477	2.57197	1	0.0266185	39	29.5962	0.00245489
2	1	0	1	0	29.9648	0.948259	0.948009	2.27511	1	0.0274044	39	29.921	0.00215682
2	1	0	1	0	30.2897	0.941762	0.941435	2.00605	1	0.0280988	39	30.2459	0.00188856
2	1	0	1	0	30.6145	0.935265	0.934994	1.76121	1	0.0287096	39	30.5707	0.00164672
2	1	0	1	0	30.9394	0.928768	0.928524	1.54042	1	0.0292452	39	30.8956	0.00143032
2	1	0	1	0	31.2642	0.922271	0.922056	1.3417	1	0.0297123	39	31.2204	0.00123712
2	1	0	1	0	31.589	0.915774	0.91542	1.16207	1	0.030118	39	31.5452	0.00106378
2	1	0	1	0	31.9139	0.909278	0.909047	1.0009	1	0.0304686	39	31.8701	0.000909867
2	1	0	1	0	32.2387	0.902781	0.902535	0.857122	1	0.0307697	39	32.1949	0.000773583
2	1	0	1	0	32.5636	0.896284	0.895938	0.729829	1	0.0310269	39	32.5198	0.000653881
2	1	0	1	0	32.8884	0.889787	0.889511	0.6178	1	0.0312451	39	32.8446	0.00054954
2	1	0	1	0	33.2133	0.88329	0.882925	0.519028	1	0.0314293	39	33.1695	0.000458263
2	1	0	1	0	33.5531	0.876493	0.876403	0.429629	1	0.0315901	39	33.5093	0.000376528
2	1	0	1	0	33.893	0.869695	0.869334	0.353976	1	0.031723	40	33.8492	0.000307724
2	1	0	1	0	34.2178	0.8632	0.86274	0.292315	1	0.0318276	40	34.174	0.000252192
2	1	0	1	0	34.5426	0.856703	0.856093	0.240038	1	0.0319137	40	34.4988	0.000205495
2	1	0	1	0	34.8675	0.850206	0.849619	0.19643	1	0.0319843	40	34.8237	0.000166891
2	1	0	1	0	35.1923	0.843709	0.843318	0.159953	1	0.0320419	40	35.1485	0.000134891
2	1	0	1	0	35.5172	0.837212	0.836878	0.12963	1	0.0320887	40	35.4734	0.000108485
2	1	0	1	0	35.842	0.830715	0.830283	0.10467	1	0.0321266	40	35.7982	8.69061e-05
2	1	0	1	0	36.1669	0.824218	0.824011	0.0837993	1	0.032157	40	36.1231	6.90516e-05
2	1	0	1	0	36.4917	0.817721	0.817401	0.0666251	1	0.0321813	40	36.4479	5.44594e-05
2	1	0	1	0	36.8166	0.811223	0.810663	0.0521825	1	0.0322005	40	36.7728	4.23024e-05
2	1	0	1	0	37.1714	0.804128	0.803475	0.0389296	1	0.0322165	41	37.1276	3.1279e-05
2	1	0	1	0	37.4962	0.797631	0.797341	0.0286452	1	0.0322274	41	37.4524	2.284e-05
2	1	0	1	0	37.8211	0.791134	0.790588	0.0196754	1	0.0322352	41	37.7773	1.55551e-05
2	1	0	1	0	38.1459	0.784637	0.784837	0.011576	1	0.0322403	41	38.1021	9.08531e-06
2	1	0	1	0	38.4708	0.77814	0.778098	0.00391295	1	0.0322427	41	38.427	3.04466e-06
2	0	0	1	0	38.8256	0.771044	0.770963	-0.00454048	1	0.0322426	42	0.1499	-3.50055e-06
2	0	0	1	0	39.1804	0.763947	0.763318	-0.0131879	1	0.0322395	41	0.5047	-1.00666e-05
2	0	0	1	0	39.5053	0.75745	0.757343	-0.0214342	1	0.0322339	41	0.8296	-1.6233e-05
2	0	0	1	0	39.8301	0.750953	0.750573	-0.0297775	1	0.0322255	41	1.1544	-2.23502e-05
2	0	0	1	0	40.155	0.744456	0.744176	-0.037943	1	0.0322145	41	1.4793	-2.82363e-05
2	0	0	1	0	40.4798	0.737959	0.737439	-0.045614	1	0.0322009	41	1.8041	-3.36375e-05
2	0	0	1	0	40.8046	0.731463	0.731088	-0.0525041	1	0.0321849	41	2.1289	-3.83851e-05
2	0	0	1	0	41.1295	0.724966	0.724778	-0.0583455	1	0.0321668	41	2.4538	-4.22875e-05
2	0	0	1	0	41.4543	0.718469	0.717981	-0.062965	1	0.0321471	41	2.7786	-4.52077e-05
2	0	0	1	0	41.7792	0.711972	0.711827	-0.0662579	1	0.032126	41	3.1035	-4.71641e-05
2	0	0	1	0	42.104	0.705475	0.705167	-0.0682629	1	0.0321041	41	3.4283	-4.81367e-05
2	0	0	1	0	42.4289	0.698978	0.698559	-0.0690576	1	0.0320817	41	3.7532	-4.82408e-05
2	0	0	1	0	42.7537	0.692481	0.692038	-0.0686799	1	0.0320593	41	4.078	-4.75291e-05
2	0	0	1	0	43.0786	0.685984	0.68549	-0.0674271	1	0.0320372	41	4.4029	-4.62206e-05
2	0	0	1	0	43.4034	0.679487	0.679161	-0.0655263	1	0.0320155	41	4.7277	-4.45029e-05
2	0	0	1	0	43.7282	0.672991	0.672879	-0.0631254	1	0.0319946	41	5.0525	-4.24758e-05
2	0	0	1	0	44.0531	0.666494	0.665884	-0.0605221	1	0.0319745	41	5.3774	-4.03007e-05
2	0	0	1	0	44.3779	0.659997	0.659834	-0.0580177	1	0.0319553	41	5.7022	-3.82821e-05
2	0	0	1	0	44.7028	0.6535	0.653183	-0.0558888	1	0.0319368	41	6.0271	-3.65056e-05
2	0	0	1	0	45.0276	0.647003	0.646973	-0.0543073	1	0.0319189	41	6.3519	-3.51353e-05
2	0	0	1	0	45.3525	0.640506	0.640387	-0.0535024	1	0.0319014	41	6.6768	-3.42623e-05
2	0	0	1	0	45.6773	0.634009	0.633858	-0.0537893	1	0.031884	41	7.0016	-3.40948e-05
2	0	0	1	0	46.0022	0.627512	0.627292	-0.0554173	1	0.0318663	41	7.3265	-3.47628e-05
2	0	0	1	0	46.327	0.621015	0.620897	-0.0588375	1	0.0318478	41	7.6513	-3.6532e-05
2	0	0	1	0	46.6518	0.614519	0.614212	-0.0647194	1	0.0318278	41	7.9761	-3.97515e-05
2	0	0	1	0	46.9767	0.608022	0.607531	-0.0739157	1	0.0318053	41	8.301	-4.49061e-05
2	0	0	1	0	47.3015	0.601525	0.601191	-0.0873149	1	0.0317793	41	8.6258	-5.2493e-05
2	0	0	1	0	47.6264	0.595028	0.594656	-0.105972	1	0.031748	41	8.9507	-6.30171e-05
2	0	0	1	0	47.9812	0.587931	0.587733	-0.132352	1	0.0317058	40	9.3055	-7.77874e-05
2	0	0	1	0	48.3061	0.581434	0.581194	-0.163219	1	0.0316576	40	9.6304	-9.48619e-05
2	0	0	1	0	48.6309	0.574937	0.574572	-0.197124	1	0.0315988	40	9.9552	-0.000113262
2	0	0	1	0	48.9558	0.568439	0.56817	-0.228834	1	0.0315292	40	10.2801	-0.000130016
2	0	0	1	0	49.2806	0.561944	0.56183	-0.253122	1	0.0314504	40	10.6049	-0.000142212
2	0	0	1	0	49.6054	0.555447	0.555101	-0.268722	1	0.0313652	40	10.9297	-0.000149168
2	0	0	1	0	49.9303	0.54895	0.548645	-0.277172	1	0.0312761	40	11.2546	-0.000152069
2	0	0	1	0	50.2551	0.542453	0.542068	-0.280229	1	0.0311852	40	11.5794	-0.000151903
2	0	0	1	0	50.58	0.535956	0.535594	-0.27848	1	0.0310941	40	11.9043	-0.000149152
2	0	0	1	0	50.9048	0.529459	0.529243	-0.272804	1	0.0310043	40	12.2291	-0.00014438
2	0	0	1	0	51.2297	0.522962	0.52281	-0.263849	1	0.0309168	40	12.554	-0.000137943
2	0	0	1	0	51.5545	0.516465	0.516235	-0.253323	1	0.0308326	40	12.8788	-0.000130774
2	0	0	1	0	51.8794	0.509968	0.509709	-0.242711	1	0.0307519	40	13.2037	-0.000123712
2	0	0	1	0	52.2042	0.503472	0.503237	-0.233217	1	0.0306745	40	13.5285	-0.000117364
2	0	0	1	0	52.529	0.496975	0.496782	-0.226018	1	0.0305999	40	13.8533	-0.000112282
2	0	0	1	0	52.8539	0.490478	0.490133	-0.221289	1	0.0305272	40	14.1782	-0.000108461
2	0	0	1	0	53.1787	0.483981	0.483737	-0.219701	1	0.0304555	40	14.503	-0.000106278
2	0	0	1	0	53.5036	0.477484	0.477374	-0.22082	1	0.0303839	40	14.8279	-0.000105414
2	0	0	1	0	53.8284	0.470987	0.470546	-0.223984	1	0.0303116	40	15.1527	-0.000105395
2	0	0	1	0	54.1533	0.46449	0.464131	-0.228818	1	0.030238	40	15.4776	-0.000106202
2	0	0	1	0	54.4781	0.457993	0.457558	-0.233613	1	0.0301627	40	15.8024	-0.000106891
2	0	0	1	0	54.803	0.451496	0.451156	-0.237935	1	0.030086	40	16.1273	-0.000107346
2	0	0	1	0	55.1278	0.445	0.444724	-0.240761	1	0.0300081	40	16.4521	-0.000107072
2	0	0	1	0	55.4526	0.438503	0.438257	-0.241659	1	0.0299296	40	16.7769	-0.000105909
2	0	0	1	0	55.7775	0.432006	0.431827	-0.240314	1	0.0298511	40	17.1018	-0.000103774
2	0	0	1	0	56.1023	0.425509	0.425272	-0.236759	1	0.0297734	40	17.4266	-0.000100687
2	0	0	1	0	56.4272	0.419012	0.418577	-0.230918	1	0.0296973	40	17.7515	-9.66571e-05
2	0	0	1	0	56.752	0.412515	0.41223	-0.223693	1	0.0296233	40	18.0763	-9.22132e-05
2	0	0	1	0	57.0769	0.406018	0.405568	-0.215268	1	0.0295518	40	18.4012	-8.73058e-05
2	0	0	1	0	57.4017	0.399521	0.399059	-0.206142	1	0.0294832	40	18.726	-8.22628e-05
2	0	0	1	0	57.7266	0.393024	0.392785	-0.196765	1	0.0294176	40	19.0509	-7.72865e-05
2	0	0	1	0	58.0514	0.386527	0.386353	-0.187454	1	0.0293551	40	19.3757	-7.24234e-05
2	0	0	1	0	58.3762	0.380031	0.379672	-0.178183	1	0.0292955	40	19.7005	-6.76511e-05
2	0	0	1	0	58.7011	0.373534	0.373439	-0.16946	1	0.0292388	40	20.0254	-6.3283e-05
2	0	0	1	0	59.0259	0.367037	0.366707	-0.161188	1	0.0291849	40	20.3502	-5.91089e-05
2	0	0	1	0	59.3508	0.36054	0.360175	-0.153443	1	0.0291336	40	20.6751	-5.52662e-05
2	0	0	1	0	59.6756	0.354043	0.3537	-0.146413	1	0.0290846	40	20.9999	-5.17862e-05
2	0	0	1	0	60.0005	0.347546	0.347273	-0.139647	1	0.0290379	40	21.3248	-4.84955e-05
2	0	0	1	0	60.3253	0.341049	0.340712	-0.133439	1	0.0289933	40	21.6496	-4.54643e-05
2	0	0	1	0	60.6502	0.334552	0.334238	-0.127755	1	0.0289506	40	21.9745	-4.27005e-05
2	0	0	1	0	60.975	0.328055	0.327919	-0.122555	1	0.0289097	40	22.2993	-4.0188e-05
2	0	0	1	0	61.2998	0.321559	0.321106	-0.117719	1	0.0288704	40	22.6241	-3.78002e-05
2	0	0	1	0	61.6247	0.315062	0.314932	-0.113205	1	0.0288326	40	22.949	-3.56517e-05
2	0	0	1	0	61.9495	0.308565	0.308441	-0.10887	1	0.0287963	40	23.2738	-3.35798e-05
2	0	0	1	0	62.2744	0.302068	0.301647	-0.105133	1	0.0287612	40	23.5987	-3.17131e-05
2	0	0	1	0	62.5992	0.295571	0.295301	-0.101307	1	0.0287274	40	23.9235	-2.99161e-05
2	0	0	1	0	62.9241	0.289074	0.2886	-0.0979723	1	0.0286947	40	24.2484	-2.82748e-05
2	0	0	1	0	63.2489	0.282577	0.282171	-0.0945502	1	0.028663	40	24.5732	-2.66793e-05
2	0	0	1	0	63.5738	0.27608	0.275757	-0.0916264	1	0.0286324	40	24.8981	-2.52667e-05
2	0	0	1	0	63.8986	0.269583	0.269394	-0.0887271	1	0.0286028	40	25.2229	-2.39025e-05
2	0	0	1	0	64.2234	0.263088	0.262778	-0.0860265	1	0.028574	40	25.5477	-2.26059e-05
2	0	0	1	0	64.5483	0.25659	0.256189	-0.0831862	1	0.0285461	40	25.8726	-2.13114e-05
2	0	0	1	0	64.8731	0.250093	0.249866	-0.0808016	1	0.028519	40	26.1974	-2.01895e-05
2	0	0	1	0	65.198	0.243596	0.243573	-0.0784914	1	0.0284927	40	26.5223	-1.91184e-05
2	0	0	1	0	65.5228	0.237099	0.236799	-0.0762	1	0.028467	40	26.8471	-1.80441e-05
2	0	0	1	0	65.8477	0.230602	0.230433	-0.074037	1	0.0284421	40	27.172	-1.70606e-05
2	0	0	1	0	66.1725	0.224105	0.223973	-0.0720939	1	0.0284178	40	27.4968	-1.61471e-05
2	0	0	1	0	66.4974	0.217608	0.217321	-0.0703819	1	0.0283942	40	27.8217	-1.52955e-05
2	0	0	1	0	66.8222	0.211111	0.210864	-0.0682326	1	0.0283711	40	28.1465	-1.43878e-05
2	0	0	1	0	67.1471	0.204614	0.204598	-0.0667713	1	0.0283486	40	28.4714	-1.36613e-05
2	0	0	1	0	67.4719	0.198118	0.197839	-0.0650485	1	0.0283266	40	28.7962	-1.28691e-05
2	0	0	1	0	67.7968	0.191619	0.191422	-0.0634634	1	0.0283052	40	29.1211	-1.21483e-05
2	0	0	1	0	68.1216	0.185124	0.184896	-0.0620781	1	0.0282842	40	29.4459	-1.1478e-05
2	0	0	1	0	68.4464	0.178627	0.178236	-0.0604534	1	0.0282637	40	29.7707	-1.0775e-05
2	0	0	1	0	68.7713	0.17213	0.171791	-0.0593463	1	0.0282437	40	30.0956	-1.01952e-05
2	0	0	1	0	69.0961	0.165633	0.165353	-0.058139	1	0.028224	40	30.4204	-9.61348e-06
2	0	0	1	0	69.421	0.159136	0.158855	-0.0569226	1	0.0282048	40	30.7453	-9.04244e-06
2	0	0	1	0	69.7458	0.152639	0.152346	-0.0558558	1	0.028186	40	31.0701	-8.50943e-06
2	0	0	1	0	70.0707	0.146142	0.145892	-0.0548715	1	0.0281676	40	31.395	-8.00532e-06
2	0	0	1	0	70.3955	0.139646	0.139375	-0.053834	1	0.0281496	40	31.7198	-7.50312e-06
2	0	0	1	0	70.7204	0.133148	0.132901	-0.0528862	1	0.0281319	40	32.0447	-7.02865e-06
2	0	0	1	0	71.0452	0.126652	0.126068	-0.0520162	1	0.0281145	40	32.3695	-6.5576e-06
2	0	0	1	0	71.37	0.120155	0.119834	-0.0511259	1	0.0280975	40	32.6943	-6.12663e-06
2	0	0	1	0	71.6949	0.113658	0.113203	-0.050298	1	0.0280807	40	33.0192	-5.69387e-06
2	0	0	1	0	72.0197	0.107161	0.107015	-0.0495248	1	0.0280643	40	33.344	-5.29992e-06
2	0	0	1	0	72.3446	0.100664	0.100538	-0.0487221	1	0.0280481	40	33.6689	-4.89843e-06
2	0	0	1	0	72.6694	0.0941673	0.0939989	-0.0478109	1	0.0280322	40	33.9937	-4.49417e-06
2	0	0	1	0	72.9943	0.0876704	0.0874121	-0.0472172	1	0.0280165	40	34.3186	-4.12736e-06
2	0	0	1	0	73.3191	0.0811735	0.0809729	-0.0467068	1	0.0280011	40	34.6434	-3.78198e-06
2	0	0	1	0	73.644	0.0746761	0.074647	-0.0458682	1	0.027986	40	34.9683	-3.42392e-06
2	0	0	1	0	73.9688	0.0681797	0.0680328	-0.0451506	1	0.027971	40	35.2931	-3.07172e-06
2	0	0	1	0	74.2936	0.0616828	0.0615922	-0.0446709	1	0.0279563	40	35.6179	-2.75138e-06
2	0	0	1	0	74.6485	0.0545862	0.0545189	-0.044264	1	0.0279405	41	35.9728	-2.41323e-06
2	0	0	1	0	74.9733	0.0480893	0.0474725	-0.0436399	1	0.0279262	41	36.2976	-2.0717e-06
2	0	0	1	0	75.2982	0.0415924	0.041291	-0.0430787	1	0.0279121	41	36.6225	-1.77876e-06
2	0	0	1	0	75.623	0.0350955	0.0348261	-0.0425457	1	0.0278982	41	36.9473	-1.4817e-06
2	0	0	1	0	75.9478	0.0285999	0.0283941	-0.0420024	1	0.0278845	41	37.2721	-1.19262e-06
2	0	0	1	0	76.2727	0.0221017	0.0216374	-0.0414643	1	0.0278709	41	37.597	-8.97181e-07
2	0	0	1	0	76.5975	0.0156048	0.0153398	-0.0409939	1	0.0278575	41	37.9218	-6.28839e-07
2	0	0	1	0	76.9224	0.00910792	0.00896368	-0.0405235	1	0.0278442	41	38.2467	-3.6324e-07
2	0	0	1	0	77.2472	0.00261103	0.00241252	-0.0400678	1	0.0278312	41	38.5715	-9.66643e-08
2	0	0	1	1	77.5428	0.00326117	0.0027477	-0.038784	1	0.0278195	41	38.8671	-1.06567e-07
2	0	0	1	1	77.8676	0.00975761	0.00950082	-0.0382682	1	0.027807	41	39.1919	-3.63579e-07
2	0	0	1	1	78.1924	0.0162545	0.0158972	-0.0377915	1	0.0277947	41	39.5167	-6.0078e-07
2	0	0	1	1	78.5173	0.0227514	0.0223664	-0.0373436	1	0.0277825	41	39.8416	-8.35241e-07
2	0	0	1	1	78.8421	0.0292483	0.0289023	-0.0369512	1	0.0277704	41	40.1664	-1.06797e-06
2	0	0	1	1	79.167	0.0357452	0.0356245	-0.0365834	1	0.0277585	41	40.4913	-1.30327e-06
2	0	0	1	1	79.4918	0.0422421	0.0421687	-0.0362388	1	0.0277467	41	40.8161	-1.52814e-06
2	0	0	1	1	79.8167	0.048739	0.0481656	-0.0358857	1	0.0277349	41	41.141	-1.72846e-06
2	0	0	1	1	80.1415	0.0552359	0.0552401	-0.0355891	1	0.0277233	41	41.4658	-1.96595e-06
2	0	0	1	1	80.4664	0.0617328	0.061493	-0.0352876	1	0.0277118	41	41.7907	-2.16994e-06
2	0	0	1	1	80.7912	0.0682297	0.0678488	-0.0349741	1	0.0277004	41	42.1155	-2.37295e-06
2	0	0	1	1	81.116	0.0747266	0.0746361	-0.0347188	1	0.0276891	41	42.4403	-2.59127e-06
2	0	0	1	1	81.4409	0.0812235	0.0808677	-0.0344758	1	0.0276779	41	42.7652	-2.78798e-06
2	0	0	1	1	81.7657	0.0877203	0.087067	-0.0342148	1	0.0276667	41	43.09	-2.97898e-06
2	0	0	1	1	82.0906	0.0942172	0.0943275	-0.0340317	1	0.0276557	41	43.4149	-3.21012e-06
2	0	0	1	1	82.4154	0.100714	0.100817	-0.0338026	1	0.0276447	41	43.7397	-3.40789e-06
2	0	0	1	1	82.7403	0.107211	0.10708	-0.0335601	1	0.0276337	41	44.0646	-3.5936e-06
2	0	0	1	1	83.0651	0.113708	0.1135	-0.0333341	1	0.0276229	41	44.3894	-3.78343e-06
2	0	0	1	1	83.39	0.120205	0.120075	-0.033105	1	0.0276121	41	44.7143	-3.97508e-06
2	0	0	1	1	83.7148	0.126702	0.126074	-0.032854	1	0.0276014	41	45.0391	-4.14204e-06
2	0	0	1	1	84.0396	0.133198	0.13308	-0.0326466	1	0.0275907	41	45.3639	-4.34461e-06
2	0	0	1	1	84.3645	0.139696	0.139595	-0.0323989	1	0.0275802	41	45.6888	-4.52272e-06
2	0	0	1	1	84.6893	0.146192	0.146029	-0.0321835	1	0.0275697	41	46.0136	-4.69974e-06
2	0	0	1	1	85.0142	0.152689	0.152498	-0.0319786	1	0.0275593	41	46.3385	-4.87667e-06
2	0	0	1	1	85.339	0.159186	0.158859	-0.0317212	1	0.027549	41	46.6633	-5.03922e-06
2	0	0	1	1	85.6639	0.165683	0.165903	-0.0315041	1	0.0275387	41	46.9882	-5.22661e-06
2	0	0	1	1	85.9887	0.17218	0.171811	-0.0312628	1	0.0275285	41	47.313	-5.3713e-06
2	0	0	1	1	86.3136	0.178677	0.178235	-0.0310682	1	0.0275184	41	47.6379	-5.53745e-06
2	0	0	1	1	86.6384	0.185174	0.184848	-0.0308497	1	0.0275083	41	47.9627	-5.70251e-06
2	0	0	1	1	86.9632	0.191669	0.191478	-0.0306626	1	0.0274984	41	48.2875	-5.87121e-06
2	0	0	1	1	87.2881	0.198168	0.197987	-0.030456	1	0.0274884	41	48.6124	-6.02988e-06
2	0	0	1	1	87.6129	0.204664	0.204749	-0.0303057	1	0.0274786	41	48.9372	-6.20506e-06
2	0	0	1	1	87.9378	0.211161	0.210725	-0.0301328	1	0.0274688	41	49.2621	-6.34974e-06
2	0	0	1	1	88.2626	0.217658	0.217519	-0.0300121	1	0.027459	41	49.5869	-6.52822e-06
2	0	0	1	1	88.5875	0.224155	0.223953	-0.0298326	1	0.0274493	41	49.9118	-6.68108e-06
2	0	0	1	1	88.9123	0.230652	0.23055	-0.029698	1	0.0274396	41	50.2366	-6.84688e-06
2	0	0	1	1	89.2372	0.237149	0.237007	-0.0295547	1	0.02743	41	50.5615	-7.00467e-06
2	0	0	1	1	89.562	0.243646	0.243257	-0.0293595	1	0.0274205	41	50.8863	-7.14192e-06
2	0	0	1	1	89.8868	0.250141	0.250069	-0.0292013	1	0.027411	41	51.2111	-7.30232e-06
2	0	0	1	1	90.2117	0.25664	0.256478	-0.029033	1	0.0274015	41	51.536	-7.44634e-06
2	0	0	1	1	90.5365	0.263136	0.262919	-0.0288622	1	0.0273921	41	51.8608	-7.5884e-06
2	0	0	1	1	90.8614	0.269633	0.269448	-0.0286788	1	0.0273828	41	52.1857	-7.72744e-06
2	0	0	1	1	91.1862	0.27613	0.275987	-0.0285118	1	0.0273735	41	52.5105	-7.86887e-06
2	0	0	1	1	91.5111	0.282627	0.282388	-0.028287	1	0.0273643	41	52.8354	-7.98791e-06
2	0	0	1	1	91.8359	0.289124	0.288562	-0.0280735	1	0.0273551	41	53.1602	-8.10094e-06
2	0	0	1	1	92.1608	0.295621	0.295081	-0.0278187	1	0.027346	41	53.4851	-8.20877e-06
2	0	0	1	1	92.4856	0.302118	0.301928	-0.0274944	1	0.0273371	41	53.8099	-8.30133e-06
2	0	0	1	1	92.8105	0.308615	0.308397	-0.0270568	1	0.0273282	41	54.1348	-8.34422e-06
2	0	0	1	1	93.1353	0.315112	0.31462	-0.0265439	1	0.0273195	41	54.4596	-8.35125e-06
2	0	0	1	1	93.4602	0.32161	0.321431	-0.0259082	1	0.027311	41	54.7845	-8.3277e-06
2	0	0	1	1	93.785	0.328105	0.327756	-0.0251494	1	0.0273027	41	55.1093	-8.24286e-06
2	0	0	1	1	94.1098	0.334602	0.334415	-0.0242291	1	0.0272947	41	55.4341	-8.10259e-06
2	0	0	1	1	94.4347	0.341099	0.341182	-0.0230761	1	0.027287	41	55.759	-7.87315e-06
2	0	0	1	1	94.7595	0.347596	0.347277	-0.0216766	1	0.0272797	41	56.0838	-7.52779e-06
2	0	0	1	1	95.0844	0.354093	0.354195	-0.0199721	1	0.027273	41	56.4087	-7.07402e-06
2	0	0	1	1	95.4092	0.36059	0.360278	-0.0177969	1	0.0272668	41	56.7335	-6.41181e-06
2	0	0	1	1	95.7341	0.367087	0.366934	-0.0151034	1	0.0272615	41	57.0584	-5.54196e-06
2	0	0	1	1	96.0589	0.373584	0.373412	-0.0117089	1	0.0272571	41	57.3832	-4.37223e-06
2	0	0	1	1	96.3838	0.380081	0.379925	-0.00744041	1	0.027254	41	57.7081	-2.8268e-06
2	0	0	1	1	96.7386	0.387177	0.387042	-0.00167741	1	0.0272523	42	58.0629	-6.49229e-07
2	1	0	1	1	97.0634	0.393674	0.393406	0.00492324	1	0.0272528	42	0.1999	1.93683e-06
2	1	0	1	1	97.4183	0.400771	0.400587	0.0137598	1	0.0272561	41	0.5548	5.51199e-06
2	1	0	1	1	97.7431	0.407268	0.406979	0.0237019	1	0.0272621	41	0.8796	9.64618e-06
2	1	0	1	1	98.068	0.413766	0.413506	0.0351585	1	0.0272716	41	1.2045	1.45383e-05
2	1	0	1	1	98.3928	0.420261	0.420085	0.0480536	1	0.0272851	41	1.5293	2.01866e-05
2	1	0	1	1	98.7176	0.426758	0.426308	0.0625334	1	0.0273031	41	1.8541	2.66585e-05
2	1	0	1	1	99.0425	0.433255	0.43341	0.078001	1	0.0273259	41	2.179	3.38064e-05
2	1	0	1	1	99.3673	0.439752	0.439451	0.0937863	1	0.0273538	41	2.5038	4.12145e-05
2	1	0	1	1	99.7072	0.446549	0.445956	0.109595	1	0.0273885	41	2.8437	4.88744e-05
2	1	0	1	1	100.009	0.452596	0.452223	0.123641	2	0.0274239	40	3.146	5.59135e-05
2	1	0	1	1	100.334	0.459093	0.458906	0.135986	2	0.0274662	40	3.4709	6.24051e-05
2	1	0	1	1	100.659	0.46559	0.465395	0.1462	2	0.0275123	40	3.7957	6.80406e-05
2	1	0	1	1	100.984	0.472085	0.471689	0.153609	2	0.0275612	40	4.1205	7.24557e-05
2	1	0	1	1	101.309	0.478583	0.478246	0.157709	2	0.0276119	40	4.4454	7.54235e-05
2	1	0	1	1	101.634	0.48508	0.484665	0.159047	2	0.0276635	40	4.7702	7.70844e-05
2	1	0	1	1	101.959	0.491577	0.491414	0.157768	2	0.0277151	40	5.0951	7.75297e-05
2	1	0	1	1	102.283	0.498074	0.497834	0.154717	2	0.0277661	40	5.4199	7.70234e-05
2	1	0	1	1	102.608	0.504571	0.504332	0.15008	2	0.0278158	40	5.7448	7.56902e-05
2	1	0	1	1	102.933	0.511068	0.51088	0.144612	2	0.0278638	40	6.0696	7.38795e-05
2	1	0	1	1	103.258	0.517565	0.517265	0.138529	2	0.02791	40	6.3945	7.16563e-05
2	1	0	1	1	103.583	0.524062	0.523766	0.132185	2	0.0279542	40	6.7193	6.92338e-05
2	1	0	1	1	103.908	0.530559	0.530225	0.125857	2	0.0279963	40	7.0442	6.67323e-05
2	1	0	1	1	104.232	0.537056	0.536711	0.1201	2	0.0280365	40	7.369	6.44588e-05
2	1	0	1	1	104.557	0.543554	0.54316	0.114281	2	0.0280748	40	7.6939	6.20729e-05
2	1	0	1	1	104.882	0.550049	0.54987	0.108865	2	0.0281112	40	8.0187	5.98616e-05
2	1	0	1	1	105.207	0.556546	0.556123	0.103844	2	0.028146	40	8.3435	5.77503e-05
2	1	0	1	1	105.532	0.563043	0.563134	0.0991723	2	0.0281793	40	8.6684	5.58473e-05
2	1	0	1	1	105.857	0.56954	0.569129	0.0951315	2	0.0282111	40	8.9932	5.41421e-05
2	1	0	1	1	106.182	0.576037	0.575676	0.0912468	2	0.0282417	40	9.3181	5.25286e-05
2	1	0	1	1	106.506	0.582534	0.582023	0.0878925	2	0.028271	40	9.6429	5.11554e-05
2	1	0	1	1	106.831	0.589031	0.588614	0.0847186	2	0.0282993	40	9.9678	4.98666e-05
2	1	0	1	1	107.156	0.595528	0.595008	0.0818939	2	0.0283266	40	10.2926	4.87275e-05
2	1	0	1	1	107.481	0.602026	0.601619	0.079165	2	0.0283529	40	10.6175	4.76272e-05
2	1	0	1	1	107.806	0.608521	0.608365	0.0768128	2	0.0283784	40	10.9423	4.67302e-05
2	1	0	1	1	108.131	0.615018	0.614671	0.0746891	2	0.0284032	40	11.2671	4.59092e-05
2	1	0	1	1	108.455	0.621515	0.621158	0.0726587	2	0.0284272	40	11.592	4.51326e-05
2	1	0	1	1	108.78	0.628012	0.627641	0.0707256	2	0.0284506	40	11.9168	4.43903e-05
2	1	0	1	1	109.105	0.634509	0.63419	0.0692136	2	0.0284735	40	12.2417	4.38946e-05
2	1	0	1	1	109.43	0.641006	0.640621	0.0676584	2	0.0284958	40	12.5665	4.33434e-05
2	1	0	1	1	109.755	0.647503	0.647148	0.0664271	2	0.0285176	40	12.8914	4.29882e-05
2	1	0	1	1	110.08	0.654	0.653621	0.0652728	2	0.028539	40	13.2162	4.26637e-05
2	1	0	1	1	110.405	0.660497	0.660157	0.0641666	2	0.0285601	40	13.5411	4.236e-05
2	1	0	1	1	110.729	0.666993	0.666806	0.0633447	2	0.0285808	40	13.8659	4.22386e-05
2	1	0	1	1	111.054	0.67349	0.673229	0.062689	2	0.0286013	40	14.1907	4.2204e-05
2	1	0	1	1	111.379	0.679987	0.67983	0.0621749	2	0.0286216	40	14.5156	4.22684e-05
2	1	0	1	1	111.704	0.686484	0.68648	0.0618927	2	0.0286418	40	14.8404	4.24881e-05
2	1	0	1	1	112.029	0.692981	0.692697	0.0620868	2	0.028662	40	15.1653	4.30073e-05
2	1	0	1	1	112.354	0.699478	0.699094	0.0623545	2	0.0286822	40	15.4901	4.35916e-05
2	1	0	1	1	112.678	0.705975	0.705756	0.0628393	2	0.0287026	40	15.815	4.43492e-05
2	1	0	1	1	113.003	0.712472	0.712113	0.0636311	2	0.0287232	40	16.1398	4.53125e-05
2	1	0	1	1	113.328	0.718969	0.718598	0.0649861	2	0.0287441	40	16.4647	4.66989e-05
2	1	0	1	1	113.653	0.725465	0.725056	0.0664944	2	0.0287654	40	16.7895	4.82122e-05
2	1	0	1	1	113.978	0.731962	0.731524	0.0682223	2	0.0287873	40	17.1143	4.99062e-05
2	1	0	1	1	114.303	0.738459	0.738178	0.0702996	2	0.0288098	40	17.4392	5.18936e-05
2	1	0	1	1	114.627	0.744956	0.744801	0.0726301	2	0.0288331	40	17.764	5.40949e-05
2	1	0	1	1	114.952	0.751453	0.751124	0.0754493	2	0.0288571	40	18.0889	5.66718e-05
2	1	0	1	1	115.277	0.75795	0.757478	0.0785834	2	0.0288822	40	18.4137	5.95252e-05
2	1	0	1	1	115.602	0.764447	0.764291	0.0823385	2	0.0289083	40	18.7386	6.29305e-05
2	1	0	1	1	115.927	0.770944	0.770649	0.0867335	2	0.0289358	40	19.0634	6.68411e-05
2	1	0	1	1	116.252	0.777441	0.777186	0.0916959	2	0.0289648	40	19.3883	7.12648e-05
2	1	0	1	1	116.577	0.783937	0.783581	0.0973053	2	0.0289955	40	19.7131	7.62466e-05
2	1	0	1	1	116.901	0.790434	0.790432	0.103839	2	0.0290282	40	20.0379	8.20779e-05
2	1	0	1	1	117.226	0.796931	0.796639	0.111492	2	0.0290632	40	20.3628	8.88187e-05
2	1	0	1	1	117.551	0.803428	0.80303	0.12026	2	0.0291009	40	20.6876	9.65728e-05
2	1	0	1	1	117.876	0.809925	0.809709	0.130894	2	0.0291417	40	21.0125	0.000105986
2	1	0	1	1	118.201	0.816422	0.816222	0.143717	2	0.0291862	40	21.3373	0.000117305
2	1	0	1	1	118.526	0.822919	0.822359	0.15944	2	0.0292355	40	21.6622	0.000131117
2	1	0	1	1	118.85	0.829416	0.829176	0.179095	2	0.0292904	40	21.987	0.000148501
2	1	0	1	1	119.175	0.835913	0.835651	0.203944	2	0.0293525	40	22.3119	0.000170426
2	1	0	1	1	119.5	0.842409	0.842026	0.235363	2	0.0294237	40	22.6367	0.000198182
2	1	0	1	1	119.825	0.848906	0.84852	0.274579	2	0.0295064	40	22.9615	0.000232986
2	1	0	1	1	120.15	0.855403	0.855018	0.323967	2	0.0296034	40	23.2864	0.000276998
2	1	0	1	1	120.475	0.8619	0.861633	0.385484	2	0.0297183	40	23.6112	0.000332146
2	1	0	1	1	120.8	0.868397	0.868247	0.461633	2	0.0298557	40	23.9361	0.000400811
2	1	0	1	1	121.124	0.874894	0.874723	0.554313	2	0.0300203	40	24.2609	0.00048487
2	1	0	1	1	121.449	0.881391	0.880871	0.665376	2	0.0302181	40	24.5858	0.00058611
2	1	0	1	1	121.774	0.887888	0.887673	0.796083	2	0.030455	40	24.9106	0.000706662
2	1	0	1	1	122.099	0.894385	0.894047	0.945851	2	0.0307376	40	25.2355	0.000845635
2	1	0	1	1	122.454	0.901481	0.901084	1.1313	2	0.0311054	39	25.5903	0.0010194
2	1	0	1	1	122.779	0.907978	0.907623	1.31928	2	0.0315032	39	25.9151	0.00119741
2	1	0	1	1	123.103	0.914475	0.914203	1.52549	2	0.031965	39	26.24	0.00139461
2	1	0	1	1	123.428	0.920972	0.920663	1.74825	2	0.0324964	39	26.5648	0.00160955
2	1	0	1	1	123.753	0.927469	0.927212	1.99243	2	0.0331039	39	26.8897	0.00184741
2	1	0	1	1	124.078	0.933966	0.933733	2.25649	2	0.0337937	39	27.2145	0.00210696
2	1	0	1	1	124.403	0.940463	0.940081	2.54325	2	0.0345731	39	27.5394	0.00239086
2	1	0	1	1	124.728	0.94696	0.946538	2.85332	2	0.0354494	39	27.8642	0.00270077
2	1	0	1	1	125.053	0.953457	0.953206	3.18753	2	0.0364306	39	28.1891	0.00303837
2	1	0	1	1	125.377	0.959953	0.95946	3.54663	2	0.0375241	39	28.5139	0.00340285
2	1	0	1	1	125.702	0.96645	0.966151	3.9298	2	0.0387381	39	28.8387	0.00379678
2	1	0	1	1	126.027	0.972947	0.972704	4.33569	2	0.0400807	39	29.1636	0.00421734
2	1	0	1	1	126.352	0.979444	0.979215	4.76633	2	0.0415589	39	29.4884	0.00466726
2	1	0	1	1	126.677	0.985941	0.985722	5.2204	2	0.0431813	39	29.8133	0.00514586
2	1	0	1	1	127.002	0.992438	0.991946	5.6964	2	0.0449543	39	30.1381	0.00565052
2	1	0	1	1	127.326	0.998935	0.998608	6.19274	2	0.0468859	39	30.463	0.00618412
2	1	0	1	1	127.619	0.995237	0.994851	5.76933	2	0.0486571	39	30.7556	0.00573963
2	1	0	1	1	127.944	0.98874	0.988361	5.16728	2	0.050431	39	31.0805	0.00510713
2	1	0	1	1	128.269	0.982243	0.981965	4.62742	2	0.0520196	39	31.4053	0.00454396
2	1	0	1	1	128.594	0.975746	0.975371	4.13864	2	0.0534417	39	31.7302	0.00403671
2	1	0	1	1	128.918	0.969249	0.968986	3.69333	2	0.054712	39	32.055	0.00357879
2	1	0	1	1	129.243	0.962752	0.962424	3.28913	2	0.0558448	39	32.3799	0.00316554
2	1	0	1	1	129.568	0.956255	0.956103	2.92045	2	0.0568518	39	32.7047	0.00279226
2	1	0	1	1	129.893	0.949758	0.949558	2.58592	2	0.057745	39	33.0296	0.00245548
2	1	0	1	1	130.218	0.943261	0.943006	2.28117	2	0.0585341	39	33.3544	0.00215116
2	1	0	1	1	130.543	0.936763	0.936466	2.00462	2	0.0592292	39	33.6793	0.00187726
2	1	0	1	1	130.868	0.930268	0.929881	1.75482	2	0.0598388	39	34.0041	0.00163177
2	1	0	1	1	131.192	0.923771	0.923525	1.52877	2	0.0603711	39	34.3289	0.00141186
2	1	0	1	1	131.517	0.917274	0.916902	1.32545	2	0.0608339	39	34.6538	0.00121531
2	1	0	1	1	131.842	0.910777	0.910561	1.14293	2	0.0612339	39	34.9786	0.00104071
2	1	0	1	1	132.167	0.90428	0.903905	0.980549	2	0.061578	39	35.3035	0.000886323
2	1	0	1	1	132.492	0.897783	0.897321	0.835439	2	0.0618723	39	35.6283	0.000749657
2	1	0	1	1	132.817	0.891286	0.891019	0.708166	2	0.0621224	39	35.9532	0.000630989
2	1	0	1	1	133.141	0.884789	0.884486	0.595773	2	0.0623335	39	36.278	0.000526953
2	1	0	1	1	133.466	0.878292	0.877874	0.498397	2	0.0625106	39	36.6029	0.00043753
2	1	0	1	1	133.821	0.871196	0.870748	0.406291	2	0.0626706	40	36.9577	0.000353777
2	1	0	1	1	134.146	0.864699	0.864324	0.335279	2	0.0627906	40	37.2825	0.00028979
2	1	0	1	1	134.471	0.858202	0.857603	0.27519	2	0.0628894	40	37.6074	0.000236004
2	1	0	1	1	134.796	0.851705	0.851303	0.224711	2	0.0629702	40	37.9322	0.000191297
2	1	0	1	1	135.121	0.845208	0.845028	0.182708	2	0.0630361	40	38.2571	0.000154393
2	1	0	1	1	135.445	0.838711	0.838245	0.147752	2	0.0630895	40	38.5819	0.000123852
2	1	0	1	1	135.77	0.832216	0.83205	0.118947	2	0.0631326	40	38.9067	9.89702e-05
2	1	0	1	1	136.095	0.825717	0.825705	0.095064	2	0.0631672	40	39.2316	7.84948e-05
2	1	0	1	1	136.42	0.819221	0.819129	0.0753697	2	0.0631947	40	39.5564	6.17375e-05
2	1	0	1	1	136.745	0.812724	0.812294	0.0589617	2	0.0632164	40	39.8813	4.78942e-05
2	1	0	1	1	137.07	0.806227	0.806038	0.0451226	2	0.0632332	40	40.2061	3.63706e-05
2	1	0	1	1	137.424	0.79913	0.798767	0.0324013	2	0.0632469	41	40.561	2.58811e-05
2	1	0	1	1	137.749	0.792633	0.792433	0.0222892	2	0.0632557	41	40.8858	1.76627e-05
2	1	0	1	1	138.074	0.786135	0.785733	0.0132129	2	0.0632614	41	41.2107	1.03818e-05
2	1	0	1	1	138.399	0.77964	0.779251	0.0047399	2	0.0632643	41	41.5355	3.69357e-06
2	0	0	1	1	138.754	0.772543	0.772013	-0.00446799	2	0.0632644	42	0.1499	-3.44935e-06
2	0	0	1	1	139.109	0.765448	0.76504	-0.0138834	2	0.0632611	41	0.5047	-1.06213e-05
2	0	0	1	1	139.433	0.758949	0.75838	-0.0227945	2	0.0632552	41	0.8296	-1.72869e-05
2	0	0	1	1	139.758	0.752451	0.751886	-0.0318026	2	0.0632463	41	1.1545	-2.3912e-05
2	0	0	1	1	140.083	0.745956	0.745669	-0.0405662	2	0.0632345	41	1.4793	-3.0249e-05
2	0	0	1	1	140.408	0.739459	0.739159	-0.0487205	2	0.0632199	41	1.8041	-3.60122e-05
2	0	0	1	1	140.733	0.732962	0.732761	-0.0559944	2	0.0632029	41	2.129	-4.10305e-05
2	0	0	1	1	141.058	0.726465	0.725836	-0.0620431	2	0.0631836	41	2.4538	-4.50331e-05
2	0	0	1	1	141.383	0.719968	0.719761	-0.0667702	2	0.0631626	41	2.7787	-4.80586e-05
2	0	0	1	1	141.707	0.713471	0.713434	-0.0700227	2	0.0631404	41	3.1035	-4.99565e-05
2	0	0	1	1	142.032	0.706974	0.706744	-0.0718519	2	0.0631173	41	3.4284	-5.07809e-05
2	0	0	1	1	142.357	0.700477	0.700325	-0.0723695	2	0.0630938	41	3.7532	-5.06822e-05
2	0	0	1	1	142.682	0.693979	0.693701	-0.0717054	2	0.0630704	41	4.0781	-4.97421e-05
2	0	0	1	1	143.007	0.687484	0.686987	-0.0700968	2	0.0630473	41	4.4029	-4.81556e-05
2	0	0	1	1	143.332	0.680987	0.680557	-0.0678317	2	0.0630249	41	4.7277	-4.61633e-05
2	0	0	1	1	143.656	0.67449	0.67436	-0.0651456	2	0.0630032	41	5.0526	-4.39316e-05
2	0	0	1	1	143.981	0.667993	0.667775	-0.0622752	2	0.0629825	41	5.3774	-4.15858e-05
2	0	0	1	1	144.306	0.661496	0.661507	-0.0595672	2	0.0629627	41	5.7023	-3.94042e-05
2	0	0	1	1	144.631	0.654999	0.654571	-0.0571866	2	0.0629438	41	6.0271	-3.74327e-05
2	0	0	1	1	144.956	0.648502	0.648022	-0.0554121	2	0.0629255	41	6.352	-3.59083e-05
2	0	0	1	1	145.281	0.642005	0.641722	-0.0544005	2	0.0629077	41	6.6768	-3.491e-05
2	0	0	1	1	145.606	0.635508	0.635119	-0.0544628	2	0.06289	41	7.0017	-3.45903e-05
2	0	0	1	1	145.93	0.629012	0.628386	-0.0558908	2	0.0628721	41	7.3265	-3.5121e-05
2	0	0	1	1	146.255	0.622515	0.621955	-0.0592076	2	0.0628535	41	7.6513	-3.68244e-05
2	0	0	1	1	146.58	0.616018	0.615954	-0.0650224	2	0.0628334	41	7.9762	-4.00508e-05
2	0	0	1	1	146.905	0.609521	0.609611	-0.0742803	2	0.0628108	41	8.301	-4.52821e-05
2	0	0	1	1	147.23	0.603024	0.602827	-0.0879118	2	0.0627846	41	8.6259	-5.29956e-05
2	0	0	1	1	147.555	0.596527	0.596316	-0.107135	2	0.0627531	41	8.9507	-6.38862e-05
2	0	0	1	1	147.909	0.589431	0.589001	-0.134904	2	0.0627102	40	9.3055	-7.94585e-05
2	0	0	1	1	148.234	0.582934	0.582542	-0.168133	2	0.0626609	40	9.6304	-9.79446e-05
2	0	0	1	1	148.559	0.576437	0.576153	-0.205544	2	0.0626	40	9.9552	-0.000118425
2	0	0	1	1	148.884	0.56994	0.569639	-0.241949	2	0.0625268	40	10.2801	-0.000137823
2	0	0	1	1	149.209	0.563443	0.563208	-0.271003	2	0.0624429	40	10.6049	-0.000152631
2	0	0	1	1	149.534	0.556946	0.556602	-0.288424	2	0.0623515	40	10.9298	-0.000160537
2	0	0	1	1	149.858	0.550449	0.550272	-0.295654	2	0.0622561	40	11.2546	-0.00016269
2	0	0	1	1	150.183	0.543952	0.543663	-0.294972	2	0.0621598	40	11.5795	-0.000160365
2	0	0	1	1	150.508	0.537455	0.537271	-0.288667	2	0.0620646	40	11.9043	-0.000155092
2	0	0	1	1	150.833	0.53096	0.530798	-0.278142	2	0.0619723	40	12.2291	-0.000147637
2	0	0	1	1	151.158	0.524462	0.524172	-0.264811	2	0.0618838	40	12.554	-0.000138807
2	0	0	1	1	151.483	0.517965	0.517727	-0.250686	2	0.0617999	40	12.8788	-0.000129787
2	0	0	1	1	151.808	0.511468	0.511285	-0.237421	2	0.0617205	40	13.2037	-0.00012139
2	0	0	1	1	152.132	0.504971	0.504816	-0.226219	2	0.0616451	40	13.5285	-0.000114199
2	0	0	1	1	152.457	0.498474	0.498421	-0.217456	2	0.061573	40	13.8534	-0.000108385
2	0	0	1	1	152.782	0.491977	0.491856	-0.211478	2	0.0615033	40	14.1782	-0.000104017
2	0	0	1	1	153.107	0.48548	0.485184	-0.209312	2	0.0614349	40	14.5031	-0.000101555
2	0	0	1	1	153.432	0.478983	0.47849	-0.210092	2	0.0613667	40	14.8279	-0.000100527
2	0	0	1	1	153.757	0.472486	0.472223	-0.213713	2	0.0612978	40	15.1528	-0.00010092
2	0	0	1	1	154.081	0.46599	0.46577	-0.218309	2	0.0612276	40	15.4776	-0.000101682
2	0	0	1	1	154.406	0.459491	0.459182	-0.224124	2	0.0611556	40	15.8025	-0.000102914
2	0	0	1	1	154.731	0.452996	0.452691	-0.229099	2	0.0610819	40	16.1273	-0.000103711
2	0	0	1	1	155.056	0.446499	0.446326	-0.23301	2	0.0610067	40	16.4521	-0.000103998
2	0	0	1	1	155.381	0.440002	0.439779	-0.23453	2	0.0609306	40	16.777	-0.000103142
2	0	0	1	1	155.706	0.433505	0.433259	-0.234014	2	0.0608543	40	17.1018	-0.000101389
2	0	0	1	1	156.031	0.427008	0.426631	-0.231203	2	0.0607785	40	17.4267	-9.86382e-05
2	0	0	1	1	156.355	0.420511	0.420274	-0.226225	2	0.0607041	40	17.7515	-9.50764e-05
2	0	0	1	1	156.68	0.414014	0.413906	-0.219319	2	0.0606316	40	18.0764	-9.07776e-05
2	0	0	1	1	157.005	0.407517	0.407283	-0.211221	2	0.0605615	40	18.4012	-8.60266e-05
2	0	0	1	1	157.33	0.401019	0.400781	-0.20241	2	0.0604941	40	18.7261	-8.11219e-05
2	0	0	1	1	157.655	0.394524	0.394235	-0.193183	2	0.0604297	40	19.0509	-7.61594e-05
2	0	0	1	1	157.98	0.388027	0.387517	-0.18403	2	0.0603683	40	19.3757	-7.13148e-05
2	0	0	1	1	158.304	0.38153	0.381098	-0.175159	2	0.0603098	40	19.7006	-6.67526e-05
2	0	0	1	1	158.629	0.375033	0.374455	-0.166501	2	0.0602542	40	20.0254	-6.23471e-05
2	0	0	1	1	158.954	0.368536	0.36817	-0.158193	2	0.0602013	40	20.3503	-5.82418e-05
2	0	0	1	1	159.279	0.362039	0.361591	-0.150546	2	0.060151	40	20.6751	-5.44362e-05
2	0	0	1	1	159.604	0.355542	0.355255	-0.143338	2	0.060103	40	21	-5.09217e-05
2	0	0	1	1	159.929	0.349045	0.348722	-0.136685	2	0.0600573	40	21.3248	-4.7665e-05
2	0	0	1	1	160.254	0.342548	0.342256	-0.130474	2	0.0600137	40	21.6497	-4.46555e-05
2	0	0	1	1	160.578	0.336052	0.335865	-0.124911	2	0.059972	40	21.9745	-4.19533e-05
2	0	0	1	1	160.903	0.329555	0.329153	-0.119554	2	0.0599321	40	22.2993	-3.93516e-05
2	0	0	1	1	161.228	0.323058	0.322929	-0.114773	2	0.0598938	40	22.6242	-3.70635e-05
2	0	0	1	1	161.553	0.316561	0.315978	-0.110101	2	0.0598571	40	22.949	-3.47896e-05
2	0	0	1	1	161.878	0.310064	0.309749	-0.105988	2	0.0598217	40	23.2739	-3.28297e-05
2	0	0	1	1	162.203	0.303567	0.303143	-0.101913	2	0.0597877	40	23.5987	-3.08942e-05
2	0	0	1	1	162.527	0.29707	0.296881	-0.0985149	2	0.0597548	40	23.9236	-2.92472e-05
2	0	0	1	1	162.852	0.290573	0.290223	-0.0950842	2	0.0597232	40	24.2484	-2.75956e-05
2	0	0	1	1	163.177	0.284076	0.28383	-0.091883	2	0.0596926	40	24.5733	-2.60792e-05
2	0	0	1	1	163.502	0.27758	0.277196	-0.0887224	2	0.059663	40	24.8981	-2.45935e-05
2	0	0	1	1	163.827	0.271083	0.270748	-0.0858889	2	0.0596343	40	25.2229	-2.32543e-05
2	0	0	1	1	164.152	0.264586	0.264153	-0.0832669	2	0.0596065	40	25.5478	-2.19952e-05
2	0	0	1	1	164.476	0.258089	0.257982	-0.0809185	2	0.0595796	40	25.8726	-2.08755e-05
2	0	0	1	1	164.801	0.251592	0.25121	-0.078406	2	0.0595534	40	26.1975	-1.96964e-05
2	0	0	1	1	165.126	0.245095	0.244563	-0.076138	2	0.059528	40	26.5223	-1.86205e-05
2	0	0	1	1	165.451	0.238598	0.238264	-0.0740339	2	0.0595032	40	26.8472	-1.76396e-05
2	0	0	1	1	165.776	0.232101	0.231843	-0.0721427	2	0.0594791	40	27.172	-1.67258e-05
2	0	0	1	1	166.101	0.225604	0.225437	-0.0700584	2	0.0594557	40	27.4969	-1.57937e-05
2	0	0	1	1	166.426	0.219108	0.2189	-0.0684126	2	0.0594328	40	27.8217	-1.49755e-05
2	0	0	1	1	166.75	0.212611	0.212196	-0.0665279	2	0.0594105	40	28.1465	-1.41169e-05
2	0	0	1	1	167.075	0.206114	0.205808	-0.0649895	2	0.0593887	40	28.4714	-1.33754e-05
2	0	0	1	1	167.4	0.199617	0.199197	-0.0635732	2	0.0593675	40	28.7962	-1.26636e-05
2	0	0	1	1	167.725	0.19312	0.192806	-0.0618643	2	0.0593467	40	29.1211	-1.19278e-05
2	0	0	1	1	168.05	0.186623	0.186566	-0.0605223	2	0.0593263	40	29.4459	-1.12914e-05
2	0	0	1	1	168.375	0.180126	0.179834	-0.0589815	2	0.0593064	40	29.7708	-1.06069e-05
2	0	0	1	1	168.699	0.173629	0.17352	-0.0579954	2	0.059287	40	30.0956	-1.00634e-05
2	0	0	1	1	169.024	0.167132	0.167112	-0.0566064	2	0.0592679	40	30.4205	-9.45963e-06
2	0	0	1	1	169.349	0.160635	0.160204	-0.0551722	2	0.0592492	40	30.7453	-8.83881e-06
2	0	0	1	1	169.674	0.154139	0.153851	-0.0539597	2	0.0592308	40	31.0701	-8.30176e-06
2	0	0	1	1	169.999	0.147642	0.147211	-0.0530143	2	0.0592128	40	31.395	-7.80431e-06
2	0	0	1	1	170.324	0.141145	0.140759	-0.051991	2	0.0591952	40	31.7198	-7.31821e-06
2	0	0	1	1	170.649	0.134648	0.134553	-0.0509887	2	0.0591778	40	32.0447	-6.86071e-06
2	0	0	1	1	170.973	0.128151	0.12801	-0.0500707	2	0.0591608	40	32.3695	-6.40953e-06
2	0	0	1	1	171.298	0.121654	0.121362	-0.0492227	2	0.059144	40	32.6944	-5.97377e-06
2	0	0	1	1	171.623	0.115157	0.114918	-0.0485863	2	0.0591276	40	33.0192	-5.58342e-06
2	0	0	1	1	171.948	0.10866	0.108297	-0.0477366	2	0.0591113	40	33.3441	-5.16975e-06
2	0	0	1	1	172.273	0.102163	0.101939	-0.0470556	2	0.0590954	40	33.6689	-4.79678e-06
2	0	0	1	1	172.598	0.0956683	0.0953679	-0.046626	2	0.0590797	40	33.9937	-4.44662e-06
2	0	0	1	1	172.922	0.0891697	0.0891142	-0.0459292	2	0.0590642	40	34.3186	-4.09295e-06
2	0	0	1	1	173.247	0.0826728	0.0826248	-0.0452904	2	0.059049	40	34.6434	-3.74211e-06
2	0	0	1	1	173.572	0.0761759	0.0760566	-0.0448908	2	0.059034	40	34.9683	-3.41424e-06
2	0	0	1	1	173.897	0.069679	0.0693086	-0.0441233	2	0.0590192	40	35.2931	-3.05813e-06
2	0	0	1	1	174.252	0.0625824	0.062236	-0.0445981	2	0.0590032	41	35.648	-2.77561e-06
2	0	0	1	1	174.577	0.0560855	0.0558658	-0.0440524	2	0.0589888	41	35.9728	-2.46103e-06
2	0	0	1	1	174.902	0.0495881	0.0491658	-0.043482	2	0.0589746	41	36.2977	-2.13783e-06
2	0	0	1	1	175.226	0.0430917	0.0426213	-0.0429279	2	0.0589605	41	36.6225	-1.82965e-06
2	0	0	1	1	175.551	0.0365948	0.036255	-0.0424084	2	0.0589467	41	36.9473	-1.53751e-06
2	0	0	1	1	175.876	0.0300979	0.0302074	-0.0419418	2	0.058933	41	37.2722	-1.26695e-06
2	0	0	1	1	176.201	0.023601	0.023605	-0.0414674	2	0.0589194	41	37.597	-9.78838e-07
2	0	0	1	1	176.526	0.0171041	0.0169555	-0.040997	2	0.058906	41	37.9219	-6.95126e-07
2	0	0	1	1	176.851	0.0106072	0.0102978	-0.0405272	2	0.0588928	41	38.2467	-4.17342e-07
2	0	0	1	1	177.175	0.00411031	0.00383664	-0.0401226	2	0.0588797	41	38.5716	-1.53936e-07
2	0	0	1	0	177.471	0.00176144	0.00143219	-0.0388646	2	0.0588679	41	38.8671	-5.56614e-08
2	0	0	1	0	177.796	0.00825833	0.00811527	-0.0383061	2	0.0588554	41	39.1919	-3.10865e-07
2	0	0	1	0	178.121	0.0147552	0.0143979	-0.0378776	2	0.058843	41	39.5168	-5.45357e-07
2	0	0	1	0	178.445	0.0212521	0.0210976	-0.037444	2	0.0588308	41	39.8416	-7.8998e-07
2	0	0	1	0	178.77	0.027749	0.0274082	-0.0370933	2	0.0588187	41	40.1665	-1.01666e-06
2	0	0	1	0	179.095	0.0342459	0.0342072	-0.0367434	2	0.0588067	41	40.4913	-1.25689e-06
2	0	0	1	0	179.42	0.0407428	0.0403808	-0.0364116	2	0.0587949	41	40.8162	-1.47033e-06
2	0	0	1	0	179.745	0.0472397	0.0470464	-0.0360923	2	0.0587831	41	41.141	-1.69801e-06
2	0	0	1	0	180.07	0.0537384	0.0534561	-0.0357859	2	0.0587714	41	41.4659	-1.91298e-06
2	0	0	1	0	180.395	0.0602335	0.0602394	-0.0355149	2	0.0587598	41	41.7907	-2.13939e-06
2	0	0	1	0	180.719	0.0667304	0.0667956	-0.0352291	2	0.0587484	41	42.1155	-2.35315e-06
2	0	0	1	0	181.044	0.0732273	0.0729931	-0.0349348	2	0.058737	41	42.4404	-2.55e-06
2	0	0	1	0	181.369	0.0797242	0.0798713	-0.0346971	2	0.0587257	41	42.7652	-2.7713e-06
2	0	0	1	0	181.694	0.0862211	0.0858418	-0.0344267	2	0.0587145	41	43.0901	-2.95525e-06
2	0	0	1	0	182.019	0.092718	0.0926079	-0.0342106	2	0.0587033	41	43.4149	-3.16817e-06
2	0	0	1	0	182.344	0.0992149	0.0988411	-0.0339723	2	0.0586923	41	43.7398	-3.35786e-06
2	0	0	1	0	182.668	0.105712	0.105716	-0.033759	2	0.0586813	41	44.0646	-3.56887e-06
2	0	0	1	0	182.993	0.11221	0.112134	-0.0335422	2	0.0586703	41	44.3895	-3.76122e-06
2	0	0	1	0	183.318	0.118706	0.118302	-0.033328	2	0.0586595	41	44.7143	-3.94277e-06
2	0	0	1	0	183.643	0.125202	0.125234	-0.0331473	2	0.0586487	41	45.0391	-4.15118e-06
2	0	0	1	0	183.968	0.131699	0.131413	-0.0329535	2	0.058638	41	45.364	-4.33051e-06
2	0	0	1	0	184.293	0.138196	0.137897	-0.0327336	2	0.0586273	41	45.6888	-4.51386e-06
2	0	0	1	0	184.618	0.144693	0.144181	-0.0325272	2	0.0586167	41	46.0137	-4.68979e-06
2	0	0	1	0	184.942	0.15119	0.150808	-0.0323534	2	0.0586062	41	46.3385	-4.87915e-06
2	0	0	1	0	185.267	0.157687	0.157542	-0.0321756	2	0.0585957	41	46.6634	-5.06902e-06
2	0	0	1	0	185.592	0.164184	0.164229	-0.0320299	2	0.0585853	41	46.9882	-5.26023e-06
2	0	0	1	0	185.917	0.170681	0.170285	-0.0318339	2	0.0585749	41	47.3131	-5.42084e-06
2	0	0	1	0	186.242	0.177178	0.176876	-0.0317031	2	0.0585646	41	47.6379	-5.6075e-06
2	0	0	1	0	186.567	0.183674	0.183354	-0.0315802	2	0.0585543	41	47.9627	-5.79035e-06
2	0	0	1	0	186.891	0.190171	0.189689	-0.0314243	2	0.0585441	41	48.2876	-5.96085e-06
2	0	0	1	0	187.216	0.196668	0.196488	-0.0312904	2	0.0585339	41	48.6124	-6.1482e-06
2	0	0	1	0	187.541	0.203165	0.202702	-0.0311252	2	0.0585238	41	48.9373	-6.30914e-06
2	0	0	1	0	187.866	0.209662	0.209477	-0.0309405	2	0.0585137	41	49.2621	-6.48132e-06
2	0	0	1	0	188.191	0.216159	0.215841	-0.0307778	2	0.0585037	41	49.587	-6.6431e-06
2	0	0	1	0	188.516	0.222656	0.222639	-0.0306365	2	0.0584937	41	49.9118	-6.82088e-06
2	0	0	1	0	188.841	0.229153	0.229075	-0.0305001	2	0.0584838	41	50.2367	-6.98681e-06
2	0	0	1	0	189.165	0.23565	0.235275	-0.0303442	2	0.0584739	41	50.5615	-7.13921e-06
2	0	0	1	0	189.49	0.242147	0.24225	-0.0302018	2	0.0584641	41	50.8863	-7.3164e-06
2	0	0	1	0	189.815	0.248643	0.248745	-0.0300186	2	0.0584543	41	51.2112	-7.46698e-06
2	0	0	1	0	190.14	0.25514	0.255234	-0.0298493	2	0.0584446	41	51.536	-7.61855e-06
2	0	0	1	0	190.465	0.261637	0.261444	-0.0296735	2	0.0584349	41	51.8609	-7.75796e-06
2	0	0	1	0	190.79	0.268134	0.267913	-0.0294478	2	0.0584253	41	52.1857	-7.88944e-06
2	0	0	1	0	191.114	0.274631	0.274549	-0.0292198	2	0.0584158	41	52.5106	-8.02226e-06
2	0	0	1	0	191.439	0.281128	0.280766	-0.0290076	2	0.0584064	41	52.8354	-8.14434e-06
2	0	0	1	0	191.764	0.287625	0.287311	-0.0287182	2	0.058397	41	53.1603	-8.25105e-06
2	0	0	1	0	192.089	0.294122	0.293609	-0.0284173	2	0.0583877	41	53.4851	-8.34355e-06
2	0	0	1	0	192.414	0.300618	0.300233	-0.028086	2	0.0583785	41	53.8099	-8.43235e-06
2	0	0	1	0	192.739	0.307115	0.3068	-0.0276553	2	0.0583695	41	54.1348	-8.48464e-06
2	0	0	1	0	193.063	0.313612	0.313672	-0.0271116	2	0.0583606	41	54.4596	-8.50416e-06
2	0	0	1	0	193.388	0.320109	0.320024	-0.0265023	2	0.0583519	41	54.7845	-8.48138e-06
2	0	0	1	0	193.713	0.326606	0.326245	-0.0256853	2	0.0583434	41	55.1093	-8.37972e-06
2	0	0	1	0	194.038	0.333103	0.332701	-0.0248215	2	0.0583352	41	55.4342	-8.25814e-06
2	0	0	1	0	194.363	0.3396	0.339402	-0.0237237	2	0.0583273	41	55.759	-8.05189e-06
2	0	0	1	0	194.688	0.346097	0.3459	-0.0223709	2	0.0583199	41	56.0839	-7.73808e-06
2	0	0	1	0	195.013	0.352594	0.352177	-0.020653	2	0.0583129	41	56.4087	-7.2735e-06
2	0	0	1	0	195.337	0.359089	0.358811	-0.0185352	2	0.0583065	41	56.7335	-6.65064e-06
2	0	0	1	0	195.662	0.365587	0.36547	-0.0159234	2	0.0583009	41	57.0584	-5.81953e-06
2	0	0	1	0	195.987	0.372084	0.372155	-0.012674	2	0.0582962	41	57.3832	-4.71669e-06
2	0	0	1	0	196.312	0.378581	0.378294	-0.00853172	2	0.0582928	41	57.7081	-3.2275e-06
2	0	0	1	0	196.637	0.385078	0.384804	-0.00349869	2	0.0582908	41	58.0329	-1.34631e-06
2	1	0	1	0	196.992	0.392175	0.39204	0.00345016	2	0.0582907	42	0.15	1.3526e-06
2	1	0	1	0	197.331	0.398971	0.39818	0.011395	2	0.0582932	42	0.4898	4.53728e-06
2	1	0	1	0	197.671	0.405768	0.40534	0.0216064	2	0.0582988	41	0.8296	8.75796e-06
2	1	0	1	0	197.996	0.412265	0.411716	0.0327612	2	0.0583076	41	1.1545	1.34883e-05
2	1	0	1	0	198.321	0.418762	0.418537	0.045591	2	0.0583203	41	1.4793	1.90815e-05
2	1	0	1	0	198.646	0.425259	0.425409	0.0597811	2	0.0583374	41	1.8042	2.54314e-05
2	1	0	1	0	198.971	0.431756	0.431445	0.0751255	2	0.0583593	41	2.129	3.24125e-05
2	1	0	1	0	199.296	0.438253	0.438138	0.0911241	2	0.0583863	41	2.4539	3.99249e-05
2	1	0	1	0	199.62	0.44475	0.444358	0.1068	2	0.0584185	41	2.7787	4.74574e-05
2	1	0	0	0	199.947	0.451322	0.451254	0.12132	2	0.0584559	40	3.1051	5.47461e-05