File: Python/ImpedanceDataOld/different flow rate_carbon felt_full-cell vanadium tests_1.6 M total vanadium_compression ratio=30%_choose the cycle number=1 or 3/SGL 2.5EA carbon felt_ve=1 cms.mpt
EC-Lab ASCII FILE
Nb header lines : 76

Potentio Electrochemical Impedance Spectroscopy

Run on channel : 1 (SN 5680)
User :
Electrode connection : standard
Potential control : Ewe
Ewe ctrl range : min = 0.00 V, max = 5.00 V
Ewe,I filtering : 50 kHz
Safety Limits :
	Do not start on E overload
Channel : Floating
Acquisition started on : 01/21/2022 14:13:40.528
Loaded Setting File :  C:\Data\baili\Compression Ratio Tests\final\SGL 2.5 Felt ve=2\EIS_fullcell_CR0_flowthrough_C01.mpr
Saved on :
	File : EIS_fullcell_CR30_flowthrough_ve=1_C01.mpr
	Directory : C:\Data\baili\Compression Ratio Tests\final\SGL 2.5 Felt ve=2\SGL 2.5 Felt ve=other\
	Host : 192.168.0.1
Device : SP-300 (SN 0955)
Address : 192.168.0.4
EC-Lab for windows v11.36 (software)
Internet server v11.36 (firmware)
Command interpretor v11.36 (firmware)
Electrode material :
Initial state :
Electrolyte :
Comments :
Current amplifier : B-10A5V
Cable : standard
Electrode surface area : 0.001 cm2
Characteristic mass : 0.001 g
Equivalent Weight : 0.000 g/eq.
Density : 0.000 g/cm3
Volume (V) : 0.000 m3
Record Power
Cycle Definition : Charge/Discharge alternance
External device configuration :
   device type : Other
   device name : Other
   Analog OUT :
      mode : E/V
      unit : speed/rpm
      max : 150.000 at 5.000 V
      min : 0.000 at 0.000 V
      current : 32.000
Mode                Single sine
E (V)               0.0000
vs.                 Eoc
tE (h:m:s)          0:00:0.0000
record              0
dI                  0.000
unit dI             mA
dt (s)              0.000
fi                  200.000
unit fi             kHz
ff                  30.000
unit ff             mHz
Nd                  12
Points              per decade
spacing             Logarithmic
Va (mV)             10.0
pw                  0.10
Na                  3
corr                0
E range min (V)     0.000
E range max (V)     5.000
I Range             Auto
Bandwidth           8
nc cycles           3
goto Ns'            0
nr cycles           0
inc. cycle          0

freq/Hz	Re(Z)/Ohm	-Im(Z)/Ohm	|Z|/Ohm	Phase(Z)/deg	time/s	<Ewe>/V	<I>/mA	Cs/uF	Cp/uF	cycle number	I Range	|Ewe|/V	|I|/A	Ns	(Q-Qo)/mA.h	Analog OUT/V	P/W	Re(Y)/Ohm-1	Im(Y)/Ohm-1	|Y|/Ohm-1	Phase(Y)/deg	Re(C)/nF	Im(C)/nF	|C|/nF	Phase(C)/deg	Re(M)	Im(M)	|M|	Phase(M)/deg	Re(Permittivity)	Im(Permittivity)	|Permittivity|	Phase(Permittivity)/deg	Re(Resistivity)/Ohm.cm	Im(Resistivity)/Ohm.cm	|Resistivity|/Ohm.cm	Phase(Resistivity)/deg	Re(Conductivity)/mS/cm	Im(Conductivity)/mS/cm	|Conductivity|/mS/cm	Phase(Conductivity)/deg	Tan(Delta)	Loss Angle(Delta)/deg	dq/mA.h
199998	0.0697461	-0.0231878	0.0734996	18.3899	1.78248	1.3926	-13.5437	-34.319	-3.41573	1	65	0.00967985	0.131699	0	-0.00254374	32	-0.018861	12.9107	-4.2923	13.6055	-18.3899	-3415.73	10274.1	10827	-108.39	0.0000000E+000	0.0000000E+000	0.0000000E+000	108.39	0.0000000E+000	0.0000000E+000	0.0000000E+000	-108.39	0.0000000E+000	0.0000000E+000	0.0000000E+000	18.3899	0.0000000E+000	0.0000000E+000	0.0000000E+000	-18.3899	-3.00788	-18.3899	-0.00254374
164731	0.0709154	-0.0180064	0.0731657	14.2471	2.35549	1.3926	4.12716	-53.6562	-3.2498	1	65	0.0104254	0.14249	0	-0.00129109	32	0.00574749	13.2472	-3.36365	13.6676	-14.2471	-3249.8	12798.9	13205	-104.247	0.0000000E+000	0.0000000E+000	0.0000000E+000	104.247	0.0000000E+000	0.0000000E+000	0.0000000E+000	-104.247	0.0000000E+000	0.0000000E+000	0.0000000E+000	14.2471	0.0000000E+000	0.0000000E+000	0.0000000E+000	-14.2471	-3.93835	-14.2471	0.00125265
135689	0.0718235	-0.0136724	0.0731132	10.778	2.92848	1.3926	4.18026	-85.7887	-3.00006	1	65	0.010533	0.144064	0	-0.00097839	32	0.00582143	13.4361	-2.55773	13.6774	-10.778	-3000.06	15759.8	16042.8	-100.778	0.0000000E+000	0.0000000E+000	0.0000000E+000	100.778	0.0000000E+000	0.0000000E+000	0.0000000E+000	-100.778	0.0000000E+000	0.0000000E+000	0.0000000E+000	10.778	0.0000000E+000	0.0000000E+000	0.0000000E+000	-10.778	-5.25316	-10.778	0.000312695
111760	0.0727045	-0.0100129	0.0733907	7.84147	3.50149	1.3926	4.10425	-142.225	-2.64736	1	65	0.0105613	0.143905	0	-0.00146372	32	0.00571556	13.4983	-1.85899	13.6257	-7.84147	-2647.36	19222.7	19404.1	-97.8415	0.0000000E+000	0.0000000E+000	0.0000000E+000	97.8415	0.0000000E+000	0.0000000E+000	0.0000000E+000	-97.8415	0.0000000E+000	0.0000000E+000	0.0000000E+000	7.84147	0.0000000E+000	0.0000000E+000	0.0000000E+000	-7.84147	-7.26109	-7.84147	-0.000485328
92052	0.0733684	-0.00691894	0.0736939	5.3873	4.07349	1.3926	4.07872	-249.889	-2.20274	1	65	0.0105499	0.143159	0	-0.00100932	32	0.00568002	13.5097	-1.27402	13.5696	-5.3873	-2202.74	23357.8	23461.5	-95.3873	0.0000000E+000	0.0000000E+000	0.0000000E+000	95.3873	0.0000000E+000	0.0000000E+000	0.0000000E+000	-95.3873	0.0000000E+000	0.0000000E+000	0.0000000E+000	5.3873	0.0000000E+000	0.0000000E+000	0.0000000E+000	-5.3873	-10.604	-5.3873	0.000454399
75823.9	0.0741721	-0.00418918	0.0742903	3.23258	4.64748	1.39259	3.99264	-501.055	-1.59323	1	65	0.0105496	0.142005	0	-0.000875605	32	0.00556011	13.4393	-0.759039	13.4607	-3.23258	-1593.23	28209.1	28254.1	-93.2326	0.0000000E+000	0.0000000E+000	0.0000000E+000	93.2326	0.0000000E+000	0.0000000E+000	0.0000000E+000	-93.2326	0.0000000E+000	0.0000000E+000	0.0000000E+000	3.23258	0.0000000E+000	0.0000000E+000	0.0000000E+000	-3.23258	-17.7056	-3.23258	0.000133715
62453.6	0.0748551	-0.00176473	0.0748759	1.35052	5.22049	1.39259	4.03773	-1444.05	-0.802155	1	65	0.010543	0.140806	0	6.47978e-05	32	0.00562291	13.3517	-0.314772	13.3554	-1.35052	-802.155	34025.2	34034.6	-91.3505	0.0000000E+000	0.0000000E+000	0.0000000E+000	91.3505	0.0000000E+000	0.0000000E+000	0.0000000E+000	-91.3505	0.0000000E+000	0.0000000E+000	0.0000000E+000	1.35052	0.0000000E+000	0.0000000E+000	0.0000000E+000	-1.35052	-42.4172	-1.35052	0.000940403
51440	0.0756879	0.000325698	0.0756886	-0.246552	5.79349	1.3926	4.12847	9499.58	0.175903	1	65	0.010521	0.139004	0	-0.00079603	32	0.00574931	13.2119	0.056853	13.212	0.246552	175.903	40877.5	40877.9	-89.7534	0.0000000E+000	0.0000000E+000	0.0000000E+000	89.7534	0.0000000E+000	0.0000000E+000	0.0000000E+000	-89.7534	0.0000000E+000	0.0000000E+000	0.0000000E+000	-0.246552	0.0000000E+000	0.0000000E+000	0.0000000E+000	0.246552	232.387	0.246552	-0.000860828
42374.9	0.0764874	0.00223701	0.0765201	-1.67524	6.36549	1.3926	4.08599	1678.97	1.43492	1	65	0.0104853	0.137026	0	-0.00046328	32	0.00569014	13.0629	0.382047	13.0685	1.67524	1434.92	49062.6	49083.5	-88.3248	0.0000000E+000	0.0000000E+000	0.0000000E+000	88.3248	0.0000000E+000	0.0000000E+000	0.0000000E+000	-88.3248	0.0000000E+000	0.0000000E+000	0.0000000E+000	-1.67524	0.0000000E+000	0.0000000E+000	0.0000000E+000	1.67524	34.1918	1.67524	0.000332749
34896.4	0.0774473	0.0039739	0.0775492	-2.93733	6.93848	1.39259	3.80166	1147.68	3.01371	1	65	0.0104634	0.134926	0	-0.000576414	32	0.00529415	12.8781	0.660788	12.895	2.93733	3013.7	58734.1	58811.4	-87.0627	0.0000000E+000	0.0000000E+000	0.0000000E+000	87.0627	0.0000000E+000	0.0000000E+000	0.0000000E+000	-87.0627	0.0000000E+000	0.0000000E+000	0.0000000E+000	-2.93733	0.0000000E+000	0.0000000E+000	0.0000000E+000	2.93733	19.489	2.93733	-0.000113134
28744.8	0.0785767	0.00557557	0.0787743	-4.05874	7.51248	1.39259	3.88849	993.051	4.97486	1	65	0.0104427	0.132565	0	-0.000343848	32	0.00541508	12.6627	0.898505	12.6945	4.05874	4974.87	70110.9	70287.2	-85.9413	0.0000000E+000	0.0000000E+000	0.0000000E+000	85.9413	0.0000000E+000	0.0000000E+000	0.0000000E+000	-85.9413	0.0000000E+000	0.0000000E+000	0.0000000E+000	-4.05874	0.0000000E+000	0.0000000E+000	0.0000000E+000	4.05874	14.093	4.05874	0.000232566
23678.7	0.0797813	0.00701227	0.0800888	-5.02303	8.08649	1.39259	4.00755	958.523	7.34812	1	65	0.0104195	0.130099	0	-0.00025431	32	0.00558088	12.4382	1.09324	12.4861	5.02303	7348.12	83602.3	83924.6	-84.977	0.0000000E+000	0.0000000E+000	0.0000000E+000	84.977	0.0000000E+000	0.0000000E+000	0.0000000E+000	-84.977	0.0000000E+000	0.0000000E+000	0.0000000E+000	-5.02303	0.0000000E+000	0.0000000E+000	0.0000000E+000	5.02303	11.3774	5.02303	8.95379e-05
19503.4	0.081093	0.00832705	0.0815194	-5.86288	8.65949	1.39259	4.02133	979.982	10.2254	1	65	0.0103833	0.127373	0	0.000636251	32	0.00560005	12.2028	1.25305	12.267	5.86288	10225.4	99579.7	100103	-84.1371	0.0000000E+000	0.0000000E+000	0.0000000E+000	84.1371	0.0000000E+000	0.0000000E+000	0.0000000E+000	-84.1371	0.0000000E+000	0.0000000E+000	0.0000000E+000	-5.86288	0.0000000E+000	0.0000000E+000	0.0000000E+000	5.86288	9.7385	5.86288	0.000890561
16061.1	0.082571	0.00965704	0.0831338	-6.67069	9.23348	1.39259	3.91122	1026.13	13.8463	1	65	0.0103477	0.124471	0	0.00205425	32	0.00544671	11.9474	1.3973	12.0288	6.67069	13846.3	118391	119198	-83.3293	0.0000000E+000	0.0000000E+000	0.0000000E+000	83.3293	0.0000000E+000	0.0000000E+000	0.0000000E+000	-83.3293	0.0000000E+000	0.0000000E+000	0.0000000E+000	-6.67069	0.0000000E+000	0.0000000E+000	0.0000000E+000	6.67069	8.55034	6.67069	0.001418
13231.1	0.0840641	0.0107726	0.0847515	-7.30249	9.8075	1.39258	3.90488	1116.61	18.0404	1	65	0.0103216	0.121786	0	0.00323635	32	0.00543785	11.7035	1.49977	11.7992	7.30249	18040.4	140779	141930	-82.6975	0.0000000E+000	0.0000000E+000	0.0000000E+000	82.6975	0.0000000E+000	0.0000000E+000	0.0000000E+000	-82.6975	0.0000000E+000	0.0000000E+000	0.0000000E+000	-7.30249	0.0000000E+000	0.0000000E+000	0.0000000E+000	7.30249	7.80353	7.30249	0.00118209
10902.2	0.0857774	0.0119255	0.0866024	-7.91499	10.3795	1.39259	3.95109	1224.13	23.2124	1	65	0.0102631	0.118508	0	0.00358373	32	0.00550225	11.437	1.59007	11.547	7.91499	23212.4	166962	168568	-82.085	0.0000000E+000	0.0000000E+000	0.0000000E+000	82.085	0.0000000E+000	0.0000000E+000	0.0000000E+000	-82.085	0.0000000E+000	0.0000000E+000	0.0000000E+000	-7.91499	0.0000000E+000	0.0000000E+000	0.0000000E+000	7.91499	7.19279	7.91499	0.000347379
8974.76	0.0876399	0.0128482	0.0885767	-8.3403	10.9761	1.3925	3.39437	1380.24	29.0403	1	65	0.0103993	0.117404	0	0.00372043	32	0.00472665	11.1703	1.63759	11.2897	8.3403	29040.3	198089	200206	-81.6597	0.0000000E+000	0.0000000E+000	0.0000000E+000	81.6597	0.0000000E+000	0.0000000E+000	0.0000000E+000	-81.6597	0.0000000E+000	0.0000000E+000	0.0000000E+000	-8.3403	0.0000000E+000	0.0000000E+000	0.0000000E+000	8.3403	6.82116	8.3403	0.000136704
7394.87	0.0895703	0.0135859	0.0905948	-8.62478	11.6646	1.3925	3.34835	1584.17	35.6263	1	65	0.0102695	0.113357	0	0.00426692	32	0.00466256	10.9133	1.65532	11.0382	8.62478	35626.3	234881	237567	-81.3752	0.0000000E+000	0.0000000E+000	0.0000000E+000	81.3752	0.0000000E+000	0.0000000E+000	0.0000000E+000	-81.3752	0.0000000E+000	0.0000000E+000	0.0000000E+000	-8.62478	0.0000000E+000	0.0000000E+000	0.0000000E+000	8.62478	6.59291	8.62478	0.000546495
6087.59	0.0914679	0.0144468	0.0926017	-8.97536	12.4664	1.39249	3.26506	1809.69	44.0461	1	65	0.0101981	0.110129	0	0.00600326	32	0.00454656	10.6667	1.68474	10.7989	8.97536	44046.1	278872	282329	-81.0246	0.0000000E+000	0.0000000E+000	0.0000000E+000	81.0246	0.0000000E+000	0.0000000E+000	0.0000000E+000	-81.0246	0.0000000E+000	0.0000000E+000	0.0000000E+000	-8.97536	0.0000000E+000	0.0000000E+000	0.0000000E+000	8.97536	6.33137	8.97536	0.00173633
5016.6	0.0935927	0.0150521	0.0947953	-9.13641	13.3917	1.39248	3.40219	2107.72	53.1416	1	65	0.0101366	0.106932	0	0.00772752	32	0.00473749	10.4152	1.67504	10.549	9.13641	53141.6	330429	334675	-80.8636	0.0000000E+000	0.0000000E+000	0.0000000E+000	80.8636	0.0000000E+000	0.0000000E+000	0.0000000E+000	-80.8636	0.0000000E+000	0.0000000E+000	0.0000000E+000	-9.13641	0.0000000E+000	0.0000000E+000	0.0000000E+000	9.13641	6.2179	9.13641	0.00172426
4131.32	0.0956768	0.0156592	0.0969497	-9.29505	14.0827	1.39248	3.30438	2460.15	64.181	1	65	0.0108618	0.112036	0	0.0082204	32	0.00460127	10.1792	1.666	10.3146	9.29505	64181	392143	397360	-80.7049	0.0000000E+000	0.0000000E+000	0.0000000E+000	80.7049	0.0000000E+000	0.0000000E+000	0.0000000E+000	-80.7049	0.0000000E+000	0.0000000E+000	0.0000000E+000	-9.29505	0.0000000E+000	0.0000000E+000	0.0000000E+000	9.29505	6.10994	9.29505	0.000492874
3403.91	0.0979937	0.0161644	0.099318	-9.36676	15.0068	1.39249	3.41244	2892.57	76.6205	1	65	0.0101732	0.102431	0	0.0100514	32	0.00475177	9.93442	1.63871	10.0687	9.36676	76620.5	464499	470776	-80.6332	0.0000000E+000	0.0000000E+000	0.0000000E+000	80.6332	0.0000000E+000	0.0000000E+000	0.0000000E+000	-80.6332	0.0000000E+000	0.0000000E+000	0.0000000E+000	-9.36676	0.0000000E+000	0.0000000E+000	0.0000000E+000	9.36676	6.06233	9.36676	0.001831
2802.31	0.1003	0.0166236	0.101668	-9.41058	15.6979	1.39248	3.47616	3416.48	91.3392	1	65	0.010451	0.102795	0	0.0104514	32	0.00484049	9.70353	1.60825	9.8359	9.41058	91339.2	551104	558622	-80.5894	0.0000000E+000	0.0000000E+000	0.0000000E+000	80.5894	0.0000000E+000	0.0000000E+000	0.0000000E+000	-80.5894	0.0000000E+000	0.0000000E+000	0.0000000E+000	-9.41058	0.0000000E+000	0.0000000E+000	0.0000000E+000	9.41058	6.03359	9.41058	0.000399996
2309.26	0.102756	0.0170015	0.104153	-9.39472	16.3898	1.39249	3.41729	4053.78	108.016	1	65	0.0106177	0.101943	0	0.0111706	32	0.00475852	9.47245	1.56726	9.60123	9.39472	108016	652844	661719	-80.6053	0.0000000E+000	0.0000000E+000	0.0000000E+000	80.6053	0.0000000E+000	0.0000000E+000	0.0000000E+000	-80.6053	0.0000000E+000	0.0000000E+000	0.0000000E+000	-9.39472	0.0000000E+000	0.0000000E+000	0.0000000E+000	9.39472	6.04397	9.39472	0.000719203
1901.83	0.105227	0.0169958	0.106591	-9.17488	17.0806	1.39249	3.54063	4923.89	125.184	1	65	0.0106983	0.100368	0	0.0122345	32	0.00493029	9.26163	1.49589	9.38166	9.17488	125184	775062	785106	-80.8251	0.0000000E+000	0.0000000E+000	0.0000000E+000	80.8251	0.0000000E+000	0.0000000E+000	0.0000000E+000	-80.8251	0.0000000E+000	0.0000000E+000	0.0000000E+000	-9.17488	0.0000000E+000	0.0000000E+000	0.0000000E+000	9.17488	6.19138	9.17488	0.00106395
1566.51	0.107858	0.0169684	0.109185	-8.94058	17.7696	1.39248	3.6023	5987.52	144.612	1	65	0.0107408	0.0983723	0	0.012713	32	0.00501614	9.04752	1.42337	9.1588	8.94058	144612	919215	930521	-81.0594	0.0000000E+000	0.0000000E+000	0.0000000E+000	81.0594	0.0000000E+000	0.0000000E+000	0.0000000E+000	-81.0594	0.0000000E+000	0.0000000E+000	0.0000000E+000	-8.94058	0.0000000E+000	0.0000000E+000	0.0000000E+000	8.94058	6.35641	8.94058	0.000478462
1290.41	0.110415	0.0167232	0.111674	-8.61248	18.4597	1.39248	3.51398	7375.16	165.39	1	65	0.0107553	0.0963095	0	0.0138181	32	0.00489315	8.85367	1.34096	8.95464	8.61248	165390	1.09198e+06	1.10444e+06	-81.3875	0.0000000E+000	0.0000000E+000	0.0000000E+000	81.3875	0.0000000E+000	0.0000000E+000	0.0000000E+000	-81.3875	0.0000000E+000	0.0000000E+000	0.0000000E+000	-8.61248	0.0000000E+000	0.0000000E+000	0.0000000E+000	8.61248	6.60247	8.61248	0.00110512
1062.62	0.112958	0.0163324	0.114133	-8.22726	19.1512	1.39247	3.52013	9170.54	187.79	1	65	0.0107467	0.0941595	0	0.0141828	32	0.00490168	8.67157	1.2538	8.76174	8.22726	187790	1.2988e+06	1.3123e+06	-81.7727	0.0000000E+000	0.0000000E+000	0.0000000E+000	81.7727	0.0000000E+000	0.0000000E+000	0.0000000E+000	-81.7727	0.0000000E+000	0.0000000E+000	0.0000000E+000	-8.22726	0.0000000E+000	0.0000000E+000	0.0000000E+000	8.22726	6.91621	8.22726	0.000364706
875.279	0.11538	0.0156516	0.116437	-7.72512	19.8417	1.39247	3.41505	11617.6	209.917	1	65	0.0107349	0.0921951	0	0.0151497	32	0.00475536	8.51037	1.15445	8.58832	7.72512	209917	1.54747e+06	1.56164e+06	-82.2749	0.0000000E+000	0.0000000E+000	0.0000000E+000	82.2749	0.0000000E+000	0.0000000E+000	0.0000000E+000	-82.2749	0.0000000E+000	0.0000000E+000	0.0000000E+000	-7.72512	0.0000000E+000	0.0000000E+000	0.0000000E+000	7.72512	7.37182	7.72512	0.000966848
721.157	0.117605	0.0147847	0.118531	-7.16534	20.5305	1.39246	3.48697	14927.2	232.243	1	65	0.0107177	0.0904218	0	0.0160347	32	0.00485546	8.37076	1.05233	8.43664	7.16534	232243	1.84738e+06	1.86192e+06	-82.8347	0.0000000E+000	0.0000000E+000	0.0000000E+000	82.8347	0.0000000E+000	0.0000000E+000	0.0000000E+000	-82.8347	0.0000000E+000	0.0000000E+000	0.0000000E+000	-7.16534	0.0000000E+000	0.0000000E+000	0.0000000E+000	7.16534	7.95451	7.16534	0.00088507
593.67	0.119771	0.0137522	0.120558	-6.55006	21.2222	1.39248	3.55293	19494.1	253.662	1	65	0.0107086	0.0888255	0	0.0171396	32	0.00494737	8.24062	0.946194	8.29477	6.55006	253662	2.2092e+06	2.22371e+06	-83.4499	0.0000000E+000	0.0000000E+000	0.0000000E+000	83.4499	0.0000000E+000	0.0000000E+000	0.0000000E+000	-83.4499	0.0000000E+000	0.0000000E+000	0.0000000E+000	-6.55006	0.0000000E+000	0.0000000E+000	0.0000000E+000	6.55006	8.70923	6.55006	0.00110485
489.217	0.12152	0.0127149	0.122183	-5.97325	21.9141	1.39247	3.60323	25586.2	277.082	1	65	0.0107008	0.08758	0	0.018213	32	0.0050174	8.14	0.851707	8.18444	5.97325	277082	2.64815e+06	2.66261e+06	-84.0267	0.0000000E+000	0.0000000E+000	0.0000000E+000	84.0267	0.0000000E+000	0.0000000E+000	0.0000000E+000	-84.0267	0.0000000E+000	0.0000000E+000	0.0000000E+000	-5.97325	0.0000000E+000	0.0000000E+000	0.0000000E+000	5.97325	9.55728	5.97325	0.00107339
402.809	0.123064	0.0114595	0.123596	-5.31997	22.6088	1.39248	3.58348	34479	296.401	1	65	0.0106769	0.0863855	0	0.0192158	32	0.00498992	8.05603	0.750167	8.09088	5.31997	296401	3.18304e+06	3.19681e+06	-84.68	0.0000000E+000	0.0000000E+000	0.0000000E+000	84.68	0.0000000E+000	0.0000000E+000	0.0000000E+000	-84.68	0.0000000E+000	0.0000000E+000	0.0000000E+000	-5.31997	0.0000000E+000	0.0000000E+000	0.0000000E+000	5.31997	10.739	5.31997	0.00100283
331.805	0.124368	0.0103088	0.124794	-4.73841	23.2957	1.39248	3.55702	46529.5	317.51	1	65	0.0106651	0.0854616	0	0.0202932	32	0.00495309	7.9858	0.661943	8.01319	4.73841	317510	3.8305e+06	3.84364e+06	-85.2616	0.0000000E+000	0.0000000E+000	0.0000000E+000	85.2616	0.0000000E+000	0.0000000E+000	0.0000000E+000	-85.2616	0.0000000E+000	0.0000000E+000	0.0000000E+000	-4.73841	0.0000000E+000	0.0000000E+000	0.0000000E+000	4.73841	12.0642	4.73841	0.0010774
273.338	0.125358	0.0092885	0.125702	-4.23763	23.99	1.39248	3.51548	62686.6	342.281	1	65	0.0106567	0.0847776	0	0.0212803	32	0.00489522	7.93359	0.587845	7.95534	4.23763	342281	4.61945e+06	4.63211e+06	-85.7624	0.0000000E+000	0.0000000E+000	0.0000000E+000	85.7624	0.0000000E+000	0.0000000E+000	0.0000000E+000	-85.7624	0.0000000E+000	0.0000000E+000	0.0000000E+000	-4.23763	0.0000000E+000	0.0000000E+000	0.0000000E+000	4.23763	13.4961	4.23763	0.000987089
225.072	0.126443	0.00822084	0.12671	-3.71993	24.6817	1.39248	3.57659	86016.5	362.072	1	65	0.0106613	0.0841399	0	0.02234	32	0.00498034	7.87544	0.512032	7.89206	3.71993	362072	5.56894e+06	5.5807e+06	-86.2801	0.0000000E+000	0.0000000E+000	0.0000000E+000	86.2801	0.0000000E+000	0.0000000E+000	0.0000000E+000	-86.2801	0.0000000E+000	0.0000000E+000	0.0000000E+000	-3.71993	0.0000000E+000	0.0000000E+000	0.0000000E+000	3.71993	15.3807	3.71993	0.00105968
185.415	0.127185	0.00737844	0.127399	-3.32021	25.3703	1.39247	3.91066	116335	390.22	1	65	0.0106587	0.0836637	0	0.023369	32	0.00544547	7.83619	0.454605	7.84937	3.32021	390220	6.72636e+06	6.73767e+06	-86.6798	0.0000000E+000	0.0000000E+000	0.0000000E+000	86.6798	0.0000000E+000	0.0000000E+000	0.0000000E+000	-86.6798	0.0000000E+000	0.0000000E+000	0.0000000E+000	-3.32021	0.0000000E+000	0.0000000E+000	0.0000000E+000	3.32021	17.2374	3.32021	0.00102899
152.703	0.127851	0.0065112	0.128016	-2.91545	26.0708	1.39247	3.91997	160070	414.096	1	65	0.0106578	0.0832533	0	0.0239939	32	0.00545845	7.80138	0.39731	7.81149	2.91545	414096	8.13098e+06	8.14152e+06	-87.0845	0.0000000E+000	0.0000000E+000	0.0000000E+000	87.0845	0.0000000E+000	0.0000000E+000	0.0000000E+000	-87.0845	0.0000000E+000	0.0000000E+000	0.0000000E+000	-2.91545	0.0000000E+000	0.0000000E+000	0.0000000E+000	2.91545	19.6355	2.91545	0.000624929
125.764	0.128457	0.00568668	0.128583	-2.53478	26.7575	1.39248	3.94494	222538	435.268	1	65	0.0106592	0.0828977	0	0.0246938	32	0.00549325	7.7695	0.343949	7.7771	2.53478	435268	9.83231e+06	9.84194e+06	-87.4652	0.0000000E+000	0.0000000E+000	0.0000000E+000	87.4652	0.0000000E+000	0.0000000E+000	0.0000000E+000	-87.4652	0.0000000E+000	0.0000000E+000	0.0000000E+000	-2.53478	0.0000000E+000	0.0000000E+000	0.0000000E+000	2.53478	22.5891	2.53478	0.000699877
103.641	0.128881	0.00515033	0.128984	-2.28844	27.4554	1.39247	3.88327	298164	475.397	1	65	0.0106527	0.0825897	0	0.0254766	32	0.00540732	7.74673	0.309575	7.75292	2.28844	475397	1.18962e+07	1.19057e+07	-87.7116	0.0000000E+000	0.0000000E+000	0.0000000E+000	87.7116	0.0000000E+000	0.0000000E+000	0.0000000E+000	-87.7116	0.0000000E+000	0.0000000E+000	0.0000000E+000	-2.28844	0.0000000E+000	0.0000000E+000	0.0000000E+000	2.28844	25.0238	2.28844	0.000782782
85.3553	0.129255	0.00447389	0.129332	-1.98239	28.1439	1.39248	3.8583	416777	498.728	1	65	0.0106519	0.0823606	0	0.0258844	32	0.00537262	7.72742	0.267469	7.73204	1.98239	498728	1.44087e+07	1.44173e+07	-88.0176	0.0000000E+000	0.0000000E+000	0.0000000E+000	88.0176	0.0000000E+000	0.0000000E+000	0.0000000E+000	-88.0176	0.0000000E+000	0.0000000E+000	0.0000000E+000	-1.98239	0.0000000E+000	0.0000000E+000	0.0000000E+000	1.98239	28.8908	1.98239	0.00040783
70.2925	0.129573	0.00389929	0.129631	-1.72371	28.8329	1.39248	3.96022	580664	525.384	1	65	0.0106475	0.0821369	0	0.0263155	32	0.00551452	7.71069	0.232041	7.71418	1.72371	525384	1.74584e+07	1.74663e+07	-88.2763	0.0000000E+000	0.0000000E+000	0.0000000E+000	88.2763	0.0000000E+000	0.0000000E+000	0.0000000E+000	-88.2763	0.0000000E+000	0.0000000E+000	0.0000000E+000	-1.72371	0.0000000E+000	0.0000000E+000	0.0000000E+000	1.72371	33.2298	1.72371	0.000431124
57.9061	0.129808	0.00349246	0.129855	-1.54116	29.546	1.39247	3.80241	786981	569.258	1	65	0.0106401	0.0819384	0	0.0274032	32	0.00529472	7.69811	0.207116	7.7009	1.54116	569259	2.11582e+07	2.11659e+07	-88.4588	0.0000000E+000	0.0000000E+000	0.0000000E+000	88.4588	0.0000000E+000	0.0000000E+000	0.0000000E+000	-88.4588	0.0000000E+000	0.0000000E+000	0.0000000E+000	-1.54116	0.0000000E+000	0.0000000E+000	0.0000000E+000	1.54116	37.1681	1.54116	0.00108773
47.6953	0.130201	0.00299784	0.130236	-1.31899	30.2654	1.39247	3.80725	1.1131e+06	589.785	1	65	0.0106515	0.0817866	0	0.0281306	32	0.00530149	7.67636	0.176746	7.67839	1.31899	589784	2.56153e+07	2.56221e+07	-88.681	0.0000000E+000	0.0000000E+000	0.0000000E+000	88.681	0.0000000E+000	0.0000000E+000	0.0000000E+000	-88.681	0.0000000E+000	0.0000000E+000	0.0000000E+000	-1.31899	0.0000000E+000	0.0000000E+000	0.0000000E+000	1.31899	43.4316	1.31899	0.000727401
39.2835	0.130216	0.00283159	0.130247	-1.24572	30.9674	1.39247	3.64869	1.4308e+06	676.25	1	65	0.0106406	0.081696	0	0.0285189	32	0.0050807	7.67592	0.166916	7.67774	1.24572	676250	3.10986e+07	3.1106e+07	-88.7543	0.0000000E+000	0.0000000E+000	0.0000000E+000	88.7543	0.0000000E+000	0.0000000E+000	0.0000000E+000	-88.7543	0.0000000E+000	0.0000000E+000	0.0000000E+000	-1.24572	0.0000000E+000	0.0000000E+000	0.0000000E+000	1.24572	45.9868	1.24572	0.000388276
32.3499	0.130505	0.00247227	0.130529	-1.08527	31.6142	1.39245	3.60621	1.98999e+06	713.888	1	65	0.0106474	0.0815714	0	0.0295104	32	0.00502147	7.65977	0.145105	7.66115	1.08527	713891	3.76845e+07	3.76913e+07	-88.9147	0.0000000E+000	0.0000000E+000	0.0000000E+000	88.9147	0.0000000E+000	0.0000000E+000	0.0000000E+000	-88.9147	0.0000000E+000	0.0000000E+000	0.0000000E+000	-1.08527	0.0000000E+000	0.0000000E+000	0.0000000E+000	1.08527	52.7877	1.08527	0.000991458
26.6457	0.130812	0.00229948	0.130832	-1.00707	32.2674	1.39246	3.63733	2.59755e+06	802.405	1	65	0.0106503	0.0814039	0	0.0304254	32	0.00506483	7.64219	0.134338	7.64337	1.00707	802406	4.56469e+07	4.5654e+07	-88.9929	0.0000000E+000	0.0000000E+000	0.0000000E+000	88.9929	0.0000000E+000	0.0000000E+000	0.0000000E+000	-88.9929	0.0000000E+000	0.0000000E+000	0.0000000E+000	-1.00707	0.0000000E+000	0.0000000E+000	0.0000000E+000	1.00707	56.8877	1.00707	0.000914996
21.9452	0.130882	0.00205015	0.130898	-0.897417	32.905	1.39246	3.59056	3.53748e+06	867.762	1	65	0.0106513	0.0813714	0	0.030631	32	0.00499971	7.63861	0.119652	7.63954	0.897417	867761	5.5398e+07	5.54048e+07	-89.1026	0.0000000E+000	0.0000000E+000	0.0000000E+000	89.1026	0.0000000E+000	0.0000000E+000	0.0000000E+000	-89.1026	0.0000000E+000	0.0000000E+000	0.0000000E+000	-0.897417	0.0000000E+000	0.0000000E+000	0.0000000E+000	0.897417	63.84	0.897417	0.000205636
18.0845	0.131153	0.00183624	0.131165	-0.802134	33.6599	1.39245	3.54892	4.79275e+06	939.301	1	65	0.0106493	0.0811902	0	0.0313299	32	0.00494171	7.62322	0.106731	7.62396	0.802134	939298	6.70891e+07	6.70957e+07	-89.1979	0.0000000E+000	0.0000000E+000	0.0000000E+000	89.1979	0.0000000E+000	0.0000000E+000	0.0000000E+000	-89.1979	0.0000000E+000	0.0000000E+000	0.0000000E+000	-0.802134	0.0000000E+000	0.0000000E+000	0.0000000E+000	0.802134	71.4245	0.802134	0.000698933
14.8904	0.131041	0.00171566	0.131052	-0.750106	34.3542	1.39246	3.62	6.22992e+06	1067.72	1	65	0.0106419	0.0812037	0	0.0319475	32	0.0050407	7.62992	0.0998953	7.63057	0.750106	1.06772e+06	8.15516e+07	8.15586e+07	-89.2499	0.0000000E+000	0.0000000E+000	0.0000000E+000	89.2499	0.0000000E+000	0.0000000E+000	0.0000000E+000	-89.2499	0.0000000E+000	0.0000000E+000	0.0000000E+000	-0.750106	0.0000000E+000	0.0000000E+000	0.0000000E+000	0.750106	76.3792	0.750106	0.000617563
12.2645	0.13362	0.00150367	0.133628	-0.644743	35.1618	1.39246	5.57227	8.63011e+06	1092.76	1	37	0.010652	0.0797139	0	0.0332406	32	0.00775916	7.48298	0.0842086	7.48346	0.644743	1.09276e+06	9.71054e+07	9.71115e+07	-89.3553	0.0000000E+000	0.0000000E+000	0.0000000E+000	89.3553	0.0000000E+000	0.0000000E+000	0.0000000E+000	-89.3553	0.0000000E+000	0.0000000E+000	0.0000000E+000	-0.644743	0.0000000E+000	0.0000000E+000	0.0000000E+000	0.644743	88.8624	0.644743	0.0012931
10.1067	0.133769	0.00144812	0.133777	-0.62023	35.8476	1.39247	3.83909	1.08744e+07	1274.24	1	37	0.0106547	0.079645	0	0.0340426	32	0.00534581	7.47469	0.0809172	7.47513	0.62023	1.27424e+06	1.17707e+08	1.17714e+08	-89.3798	0.0000000E+000	0.0000000E+000	0.0000000E+000	89.3798	0.0000000E+000	0.0000000E+000	0.0000000E+000	-89.3798	0.0000000E+000	0.0000000E+000	0.0000000E+000	-0.62023	0.0000000E+000	0.0000000E+000	0.0000000E+000	0.62023	92.3746	0.62023	0.000802036
8.31999	0.133925	0.00136482	0.133932	-0.583874	36.6612	1.39246	3.81308	1.4016e+07	1455.46	1	37	0.0106586	0.079582	0	0.0352649	32	0.00530958	7.46607	0.0760858	7.46646	0.583874	1.45547e+06	1.4282e+08	1.42828e+08	-89.4161	0.0000000E+000	0.0000000E+000	0.0000000E+000	89.4161	0.0000000E+000	0.0000000E+000	0.0000000E+000	-89.4161	0.0000000E+000	0.0000000E+000	0.0000000E+000	-0.583874	0.0000000E+000	0.0000000E+000	0.0000000E+000	0.583874	98.127	0.583874	0.00122226
6.85307	0.133966	0.00135199	0.133972	-0.578212	37.1886	1.39245	3.78739	1.71776e+07	1749.35	1	37	0.0106512	0.0795028	0	0.0351446	32	0.00527376	7.46384	0.0753254	7.46422	0.578212	1.74934e+06	1.73339e+08	1.73348e+08	-89.4218	0.0000000E+000	0.0000000E+000	0.0000000E+000	89.4218	0.0000000E+000	0.0000000E+000	0.0000000E+000	-89.4218	0.0000000E+000	0.0000000E+000	0.0000000E+000	-0.578212	0.0000000E+000	0.0000000E+000	0.0000000E+000	0.578212	99.088	0.578212	-0.000120283
5.64487	0.134133	0.00124344	0.134139	-0.531128	37.8129	1.39246	3.76501	2.26746e+07	1948.41	1	37	0.0106543	0.0794272	0	0.0364222	32	0.00524263	7.45463	0.0691059	7.45495	0.531128	1.94841e+06	2.1018e+08	2.10189e+08	-89.4689	0.0000000E+000	0.0000000E+000	0.0000000E+000	89.4689	0.0000000E+000	0.0000000E+000	0.0000000E+000	-89.4689	0.0000000E+000	0.0000000E+000	0.0000000E+000	-0.531128	0.0000000E+000	0.0000000E+000	0.0000000E+000	0.531128	107.873	0.531128	0.00127755
4.65029	0.134229	0.00121962	0.134234	-0.520584	38.5498	1.39245	3.70758	2.80617e+07	2316.53	1	37	0.0106556	0.0793804	0	0.0362512	32	0.00516264	7.44934	0.0676859	7.44965	0.520584	2.31653e+06	2.54952e+08	2.54962e+08	-89.4794	0.0000000E+000	0.0000000E+000	0.0000000E+000	89.4794	0.0000000E+000	0.0000000E+000	0.0000000E+000	-89.4794	0.0000000E+000	0.0000000E+000	0.0000000E+000	-0.520584	0.0000000E+000	0.0000000E+000	0.0000000E+000	0.520584	110.058	0.520584	-0.000170963
3.82966	0.134227	0.00110382	0.134232	-0.47116	39.4279	1.39246	3.77529	3.76499e+07	2545.93	1	37	0.0106493	0.0793355	0	0.0386532	32	0.00525694	7.44955	0.0612612	7.4498	0.47116	2.54593e+06	3.09592e+08	3.09603e+08	-89.5288	0.0000000E+000	0.0000000E+000	0.0000000E+000	89.5288	0.0000000E+000	0.0000000E+000	0.0000000E+000	-89.5288	0.0000000E+000	0.0000000E+000	0.0000000E+000	-0.47116	0.0000000E+000	0.0000000E+000	0.0000000E+000	0.47116	121.603	0.47116	0.00240195
3.15529	0.134349	0.00111105	0.134353	-0.473819	40.4758	1.39246	3.86698	4.53991e+07	3104.68	1	37	0.0106493	0.0792632	0	0.0386571	32	0.00538461	7.4428	0.0615511	7.44305	0.473819	3.10466e+06	3.7542e+08	3.75432e+08	-89.5262	0.0000000E+000	0.0000000E+000	0.0000000E+000	89.5262	0.0000000E+000	0.0000000E+000	0.0000000E+000	-89.5262	0.0000000E+000	0.0000000E+000	0.0000000E+000	-0.473819	0.0000000E+000	0.0000000E+000	0.0000000E+000	0.473819	120.921	0.473819	3.95571e-06
2.59897	0.134442	0.00107057	0.134446	-0.45624	41.7316	1.39247	3.89085	5.72012e+07	3626.91	1	37	0.0106493	0.0792087	0	0.0389514	32	0.00541787	7.4377	0.0592268	7.43794	0.45624	3.6269e+06	4.55468e+08	4.55482e+08	-89.5438	0.0000000E+000	0.0000000E+000	0.0000000E+000	89.5438	0.0000000E+000	0.0000000E+000	0.0000000E+000	-89.5438	0.0000000E+000	0.0000000E+000	0.0000000E+000	-0.45624	0.0000000E+000	0.0000000E+000	0.0000000E+000	0.45624	125.58	0.45624	0.000294313
2.14159	0.134527	0.00107153	0.134532	-0.456358	43.2429	1.39246	3.95129	6.93556e+07	4399.85	1	37	0.0106498	0.0791618	0	0.0423336	32	0.00550202	7.43296	0.0592044	7.43319	0.456358	4.39987e+06	5.5239e+08	5.52408e+08	-89.5436	0.0000000E+000	0.0000000E+000	0.0000000E+000	89.5436	0.0000000E+000	0.0000000E+000	0.0000000E+000	-89.5436	0.0000000E+000	0.0000000E+000	0.0000000E+000	-0.456358	0.0000000E+000	0.0000000E+000	0.0000000E+000	0.456358	125.547	0.456358	0.00338218
1.76354	0.134651	0.00111417	0.134656	-0.474083	45.063	1.39245	4.00013	8.09994e+07	5545.42	1	37	0.0106528	0.0791116	0	0.0458464	32	0.00556999	7.42608	0.0614471	7.42634	0.474083	5.54543e+06	6.70183e+08	6.70206e+08	-89.5259	0.0000000E+000	0.0000000E+000	0.0000000E+000	89.5259	0.0000000E+000	0.0000000E+000	0.0000000E+000	-89.5259	0.0000000E+000	0.0000000E+000	0.0000000E+000	-0.474083	0.0000000E+000	0.0000000E+000	0.0000000E+000	0.474083	120.853	0.474083	0.00351275
1.4516	0.134677	0.0011039	0.134681	-0.469623	47.2609	1.39246	4.02977	9.9322e+07	6672.51	1	37	0.0106518	0.0790888	0	0.0469074	32	0.00561129	7.4247	0.0608576	7.42495	0.469623	6.67246e+06	8.14053e+08	8.14081e+08	-89.5304	0.0000000E+000	0.0000000E+000	0.0000000E+000	89.5304	0.0000000E+000	0.0000000E+000	0.0000000E+000	-89.5304	0.0000000E+000	0.0000000E+000	0.0000000E+000	-0.469623	0.0000000E+000	0.0000000E+000	0.0000000E+000	0.469623	122.001	0.469623	0.00106107
1.19622	0.134764	0.00116754	0.134769	-0.496374	49.9141	1.39246	4.01156	1.13956e+08	8552.61	1	37	0.0106495	0.0790202	0	0.0469759	32	0.00558593	7.41981	0.0642821	7.42009	0.496374	8.55265e+06	9.87193e+08	9.8723e+08	-89.5036	0.0000000E+000	0.0000000E+000	0.0000000E+000	89.5036	0.0000000E+000	0.0000000E+000	0.0000000E+000	-89.5036	0.0000000E+000	0.0000000E+000	0.0000000E+000	-0.496374	0.0000000E+000	0.0000000E+000	0.0000000E+000	0.496374	115.426	0.496374	6.84404e-05
0.985309	0.134841	0.00117846	0.134846	-0.50073	53.1222	1.39248	4.18122	1.37067e+08	10468.5	1	37	0.0106481	0.0789648	0	0.0495645	32	0.00582227	7.41559	0.0648094	7.41587	0.50073	1.04686e+07	1.19782e+09	1.19787e+09	-89.4993	0.0000000E+000	0.0000000E+000	0.0000000E+000	89.4993	0.0000000E+000	0.0000000E+000	0.0000000E+000	-89.4993	0.0000000E+000	0.0000000E+000	0.0000000E+000	-0.50073	0.0000000E+000	0.0000000E+000	0.0000000E+000	0.50073	114.421	0.50073	0.00258864
0.811689	0.135062	0.00137826	0.135069	-0.584661	57.0023	1.39247	4.19359	1.42266e+08	14813.2	1	37	0.0106558	0.0788914	0	0.0563384	32	0.00583944	7.40322	0.075547	7.4036	0.584661	1.48132e+07	1.45161e+09	1.45169e+09	-89.4153	0.0000000E+000	0.0000000E+000	0.0000000E+000	89.4153	0.0000000E+000	0.0000000E+000	0.0000000E+000	-89.4153	0.0000000E+000	0.0000000E+000	0.0000000E+000	-0.584661	0.0000000E+000	0.0000000E+000	0.0000000E+000	0.584661	97.9949	0.584661	0.00677391
0.668478	0.134952	0.00154213	0.134961	-0.654702	61.7004	1.39247	4.39097	1.54388e+08	20157.5	1	37	0.0106492	0.0789056	0	0.0663367	32	0.0061143	7.40907	0.084665	7.40955	0.654702	2.01575e+07	1.76399e+09	1.76411e+09	-89.3453	0.0000000E+000	0.0000000E+000	0.0000000E+000	89.3453	0.0000000E+000	0.0000000E+000	0.0000000E+000	-89.3453	0.0000000E+000	0.0000000E+000	0.0000000E+000	-0.654702	0.0000000E+000	0.0000000E+000	0.0000000E+000	0.654702	87.5104	0.654702	0.00999832
0.550486	0.135096	0.00169058	0.135107	-0.716953	67.3933	1.39247	4.49325	1.71017e+08	26776.5	1	37	0.0106513	0.0788361	0	0.0763268	32	0.0062567	7.40097	0.0926146	7.40155	0.716953	2.67766e+07	2.13975e+09	2.13991e+09	-89.283	0.0000000E+000	0.0000000E+000	0.0000000E+000	89.283	0.0000000E+000	0.0000000E+000	0.0000000E+000	-89.283	0.0000000E+000	0.0000000E+000	0.0000000E+000	-0.716953	0.0000000E+000	0.0000000E+000	0.0000000E+000	0.716953	79.9114	0.716953	0.00999013
0.453687	0.135213	0.00190414	0.135226	-0.806816	74.287	1.39247	4.6691	1.84232e+08	36529.2	1	37	0.0106497	0.0787546	0	0.0837214	32	0.00650156	7.39429	0.10413	7.39502	0.806816	3.65292e+07	2.59394e+09	2.5942e+09	-89.1932	0.0000000E+000	0.0000000E+000	0.0000000E+000	89.1932	0.0000000E+000	0.0000000E+000	0.0000000E+000	-89.1932	0.0000000E+000	0.0000000E+000	0.0000000E+000	-0.806816	0.0000000E+000	0.0000000E+000	0.0000000E+000	0.806816	71.01	0.806816	0.00739457
0.373732	0.135355	0.00222586	0.135374	-0.942121	82.6439	1.39246	4.78999	1.9132e+08	51723.7	1	37	0.0106545	0.0787044	0	0.0886373	32	0.00666985	7.38596	0.121459	7.38696	0.942121	5.17239e+07	3.14533e+09	3.14576e+09	-89.0579	0.0000000E+000	0.0000000E+000	0.0000000E+000	89.0579	0.0000000E+000	0.0000000E+000	0.0000000E+000	-89.0579	0.0000000E+000	0.0000000E+000	0.0000000E+000	-0.942121	0.0000000E+000	0.0000000E+000	0.0000000E+000	0.942121	60.8103	0.942121	0.0049159
0.307821	0.135629	0.00264419	0.135655	-1.11688	92.7785	1.39247	4.95168	1.95537e+08	74291.9	1	37	0.0106488	0.0784992	0	0.0946988	32	0.00689507	7.37023	0.143688	7.37163	1.11688	7.4292e+07	3.81068e+09	3.8114e+09	-88.8831	0.0000000E+000	0.0000000E+000	0.0000000E+000	88.8831	0.0000000E+000	0.0000000E+000	0.0000000E+000	-88.8831	0.0000000E+000	0.0000000E+000	0.0000000E+000	-1.11688	0.0000000E+000	0.0000000E+000	0.0000000E+000	1.11688	51.2933	1.11688	0.00606148
0.253521	0.136157	0.00314102	0.136193	-1.32153	105.07	1.39247	5.18298	1.99864e+08	106309	1	37	0.0106524	0.0782157	0	0.107904	32	0.00721713	7.34057	0.169341	7.34253	1.32153	1.06309e+08	4.60825e+09	4.60948e+09	-88.6785	0.0000000E+000	0.0000000E+000	0.0000000E+000	88.6785	0.0000000E+000	0.0000000E+000	0.0000000E+000	-88.6785	0.0000000E+000	0.0000000E+000	0.0000000E+000	-1.32153	0.0000000E+000	0.0000000E+000	0.0000000E+000	1.32153	43.3479	1.32153	0.0132047
0.208645	0.136788	0.00351532	0.136833	-1.47212	119.995	1.39246	5.32888	2.16994e+08	143217	1	37	0.0106514	0.077842	0	0.13306	32	0.00742026	7.30577	0.187751	7.30818	1.47212	1.43217e+08	5.57287e+09	5.57471e+09	-88.5279	0.0000000E+000	0.0000000E+000	0.0000000E+000	88.5279	0.0000000E+000	0.0000000E+000	0.0000000E+000	-88.5279	0.0000000E+000	0.0000000E+000	0.0000000E+000	-1.47212	0.0000000E+000	0.0000000E+000	0.0000000E+000	1.47212	38.9119	1.47212	0.025156
0.172002	0.137523	0.00366726	0.137571	-1.52752	138.087	1.39247	5.60379	2.52316e+08	179297	1	37	0.0106512	0.0774234	0	0.172247	32	0.00780314	7.26637	0.19377	7.26895	1.52752	1.79297e+08	6.72364e+09	6.72603e+09	-88.4725	0.0000000E+000	0.0000000E+000	0.0000000E+000	88.4725	0.0000000E+000	0.0000000E+000	0.0000000E+000	-88.4725	0.0000000E+000	0.0000000E+000	0.0000000E+000	-1.52752	0.0000000E+000	0.0000000E+000	0.0000000E+000	1.52752	37.5	1.52752	0.0391878
0.141569	0.138283	0.00364457	0.138331	-1.50973	160.057	1.39247	5.92682	3.08464e+08	214119	1	37	0.0106527	0.0770082	0	0.223498	32	0.0082529	7.2265	0.19046	7.22901	1.50973	2.14119e+08	8.12418e+09	8.127e+09	-88.4903	0.0000000E+000	0.0000000E+000	0.0000000E+000	88.4903	0.0000000E+000	0.0000000E+000	0.0000000E+000	-88.4903	0.0000000E+000	0.0000000E+000	0.0000000E+000	-1.50973	0.0000000E+000	0.0000000E+000	0.0000000E+000	1.50973	37.9423	1.50973	0.0512504
0.116619	0.138922	0.00335948	0.138962	-1.38529	186.714	1.39245	6.29196	4.06237e+08	237427	1	37	0.0106487	0.0766302	0	0.281253	32	0.00876125	7.19409	0.173971	7.1962	1.38529	2.37426e+08	9.81811e+09	9.82098e+09	-88.6147	0.0000000E+000	0.0000000E+000	0.0000000E+000	88.6147	0.0000000E+000	0.0000000E+000	0.0000000E+000	-88.6147	0.0000000E+000	0.0000000E+000	0.0000000E+000	-1.38529	0.0000000E+000	0.0000000E+000	0.0000000E+000	1.38529	41.3522	1.38529	0.0577549
0.0960805	0.139532	0.0029705	0.139564	-1.21959	219.059	1.39244	6.63862	5.57642e+08	252621	1	37	0.0106509	0.0763156	0	0.339307	32	0.00924389	7.16356	0.152505	7.16519	1.21959	2.5262e+08	1.18663e+10	1.1869e+10	-88.7804	0.0000000E+000	0.0000000E+000	0.0000000E+000	88.7804	0.0000000E+000	0.0000000E+000	0.0000000E+000	-88.7804	0.0000000E+000	0.0000000E+000	0.0000000E+000	-1.21959	0.0000000E+000	0.0000000E+000	0.0000000E+000	1.21959	46.9726	1.21959	0.0580539
0.0791155	0.139968	0.00257514	0.139992	-1.05401	258.328	1.39244	7.24984	7.81193e+08	264335	1	37	0.0106551	0.0761124	0	0.398634	32	0.0100949	7.14208	0.1314	7.14329	1.05401	2.64335e+08	1.43676e+10	1.437e+10	-88.946	0.0000000E+000	0.0000000E+000	0.0000000E+000	88.946	0.0000000E+000	0.0000000E+000	0.0000000E+000	-88.946	0.0000000E+000	0.0000000E+000	0.0000000E+000	-1.05401	0.0000000E+000	0.0000000E+000	0.0000000E+000	1.05401	54.3536	1.05401	0.0593275
0.0651868	0.140393	0.00225912	0.140411	-0.921893	305.976	1.39245	7.78035	1.08074e+09	279769	1	37	0.0106536	0.0758742	0	0.466468	32	0.0108337	7.12104	0.114588	7.12196	0.921893	2.79768e+08	1.73862e+10	1.73884e+10	-89.0781	0.0000000E+000	0.0000000E+000	0.0000000E+000	89.0781	0.0000000E+000	0.0000000E+000	0.0000000E+000	-89.0781	0.0000000E+000	0.0000000E+000	0.0000000E+000	-0.921893	0.0000000E+000	0.0000000E+000	0.0000000E+000	0.921893	62.1448	0.921893	0.0678339
0.0536897	0.140667	0.00182951	0.140679	-0.745147	363.815	1.39246	8.52315	1.62029e+09	274036	1	37	0.0106532	0.075727	0	0.56562	32	0.0118681	7.10779	0.0924438	7.10839	0.745147	2.74036e+08	2.10699e+10	2.10717e+10	-89.2549	0.0000000E+000	0.0000000E+000	0.0000000E+000	89.2549	0.0000000E+000	0.0000000E+000	0.0000000E+000	-89.2549	0.0000000E+000	0.0000000E+000	0.0000000E+000	-0.745147	0.0000000E+000	0.0000000E+000	0.0000000E+000	0.745147	76.8876	0.745147	0.0991523
0.0442372	0.140839	0.00168969	0.140849	-0.687363	433.999	1.39246	9.29713	2.12924e+09	306431	1	37	0.010653	0.0756341	0	0.726499	32	0.0129459	7.09929	0.0851725	7.0998	0.687363	3.0643e+08	2.55416e+10	2.55434e+10	-89.3126	0.0000000E+000	0.0000000E+000	0.0000000E+000	89.3126	0.0000000E+000	0.0000000E+000	0.0000000E+000	-89.3126	0.0000000E+000	0.0000000E+000	0.0000000E+000	-0.687363	0.0000000E+000	0.0000000E+000	0.0000000E+000	0.687363	83.3519	0.687363	0.160878
0.036443	0.141104	0.00168049	0.141114	-0.682337	519.185	1.39244	10.1007	2.59879e+09	368556	1	37	0.0106535	0.0754959	0	0.979626	32	0.0140647	7.08598	0.0843911	7.08648	0.682337	3.68555e+08	3.09462e+10	3.09483e+10	-89.3177	0.0000000E+000	0.0000000E+000	0.0000000E+000	89.3177	0.0000000E+000	0.0000000E+000	0.0000000E+000	-89.3177	0.0000000E+000	0.0000000E+000	0.0000000E+000	-0.682337	0.0000000E+000	0.0000000E+000	0.0000000E+000	0.682337	83.966	0.682337	0.253127
0.0299919	0.141229	0.00136981	0.141235	-0.55571	622.686	1.39247	11.1872	3.87396e+09	364412	1	37	0.0106497	0.0754041	0	1.35027	32	0.0155778	7.08006	0.0686714	7.08039	0.55571	3.64412e+08	3.75711e+10	3.75728e+10	-89.4443	0.0000000E+000	0.0000000E+000	0.0000000E+000	89.4443	0.0000000E+000	0.0000000E+000	0.0000000E+000	-89.4443	0.0000000E+000	0.0000000E+000	0.0000000E+000	-0.55571	0.0000000E+000	0.0000000E+000	0.0000000E+000	0.55571	103.101	0.55571	0.370647
199998	0.0695418	-0.0231729	0.0733011	18.4292	623.689	1.39258	-6.82058	-34.3411	-3.43205	2	65	0.00920412	0.125566	0	1.35009	32	-0.00949817	12.9427	-4.3128	13.6424	-18.4292	-3432.05	10299.6	10856.4	-108.429	0.0000000E+000	0.0000000E+000	0.0000000E+000	108.429	0.0000000E+000	0.0000000E+000	0.0000000E+000	-108.429	0.0000000E+000	0.0000000E+000	0.0000000E+000	18.4292	0.0000000E+000	0.0000000E+000	0.0000000E+000	-18.4292	-3.001	-18.4292	-0.000179507
164731	0.0705792	-0.0178764	0.0728079	14.213	624.262	1.39258	11.4674	-54.0463	-3.25813	2	65	0.0103479	0.142126	0	1.35235	32	0.0159692	13.3143	-3.37227	13.7348	-14.213	-3258.13	12863.7	13269.9	-104.213	0.0000000E+000	0.0000000E+000	0.0000000E+000	104.213	0.0000000E+000	0.0000000E+000	0.0000000E+000	-104.213	0.0000000E+000	0.0000000E+000	0.0000000E+000	14.213	0.0000000E+000	0.0000000E+000	0.0000000E+000	-14.213	-3.94818	-14.213	0.00225975
135689	0.0716233	-0.0136109	0.0729051	10.7599	624.835	1.39258	11.9146	-86.1767	-3.00363	2	65	0.0105436	0.144621	0	1.35291	32	0.016592	13.4753	-2.56077	13.7165	-10.7599	-3003.63	15805.7	16088.6	-100.76	0.0000000E+000	0.0000000E+000	0.0000000E+000	100.76	0.0000000E+000	0.0000000E+000	0.0000000E+000	-100.76	0.0000000E+000	0.0000000E+000	0.0000000E+000	10.7599	0.0000000E+000	0.0000000E+000	0.0000000E+000	-10.7599	-5.26221	-10.7599	0.000554889
111760	0.0723466	-0.0100098	0.0730358	7.87738	625.409	1.39258	12.2123	-142.269	-2.67233	2	65	0.0105681	0.144697	0	1.35532	32	0.0170066	13.5627	-1.87653	13.6919	-7.87738	-2672.33	19314.4	19498.4	-97.8774	0.0000000E+000	0.0000000E+000	0.0000000E+000	97.8774	0.0000000E+000	0.0000000E+000	0.0000000E+000	-97.8774	0.0000000E+000	0.0000000E+000	0.0000000E+000	7.87738	0.0000000E+000	0.0000000E+000	0.0000000E+000	-7.87738	-7.22757	-7.87738	0.00240749
92052	0.0730662	-0.00687467	0.0733889	5.37503	625.983	1.39258	12.2637	-251.498	-2.20687	2	65	0.0105753	0.1441	0	1.35783	32	0.0170782	13.5661	-1.27641	13.626	-5.37503	-2206.87	23455.4	23559	-95.375	0.0000000E+000	0.0000000E+000	0.0000000E+000	95.375	0.0000000E+000	0.0000000E+000	0.0000000E+000	-95.375	0.0000000E+000	0.0000000E+000	0.0000000E+000	5.37503	0.0000000E+000	0.0000000E+000	0.0000000E+000	-5.37503	-10.6283	-5.37503	0.0025132
75823.9	0.0737905	-0.00415476	0.0739073	3.22263	626.557	1.39258	12.1981	-505.205	-1.59656	2	65	0.0105654	0.142955	0	1.36069	32	0.0169869	13.5091	-0.760626	13.5305	-3.22263	-1596.56	28355.6	28400.5	-93.2226	0.0000000E+000	0.0000000E+000	0.0000000E+000	93.2226	0.0000000E+000	0.0000000E+000	0.0000000E+000	-93.2226	0.0000000E+000	0.0000000E+000	0.0000000E+000	3.22263	0.0000000E+000	0.0000000E+000	0.0000000E+000	-3.22263	-17.7604	-3.22263	0.00286178
62453.6	0.0746058	-0.00181706	0.0746279	1.39519	627.13	1.39258	12.3103	-1402.47	-0.831436	2	65	0.01057	0.141636	0	1.36247	32	0.0171431	13.3958	-0.326262	13.3998	-1.39519	-831.435	34137.6	34147.7	-91.3952	0.0000000E+000	0.0000000E+000	0.0000000E+000	91.3952	0.0000000E+000	0.0000000E+000	0.0000000E+000	-91.3952	0.0000000E+000	0.0000000E+000	0.0000000E+000	1.39519	0.0000000E+000	0.0000000E+000	0.0000000E+000	-1.39519	-41.0586	-1.39519	0.00177971
51440	0.0753551	0.000338217	0.0753558	-0.257159	627.703	1.39258	12.4771	9147.95	0.184281	2	65	0.010564	0.140189	0	1.36287	32	0.0173753	13.2702	0.0595609	13.2704	0.257159	184.279	41058	41058.4	-89.7428	0.0000000E+000	0.0000000E+000	0.0000000E+000	89.7428	0.0000000E+000	0.0000000E+000	0.0000000E+000	-89.7428	0.0000000E+000	0.0000000E+000	0.0000000E+000	-0.257159	0.0000000E+000	0.0000000E+000	0.0000000E+000	0.257159	222.801	0.257159	0.000402725
42374.9	0.0762034	0.00217071	0.0762343	-1.63167	628.275	1.39257	12.4834	1730.25	1.40286	2	65	0.010546	0.138336	0	1.36392	32	0.017384	13.1121	0.37351	13.1175	1.63167	1402.86	49247.5	49267.5	-88.3683	0.0000000E+000	0.0000000E+000	0.0000000E+000	88.3683	0.0000000E+000	0.0000000E+000	0.0000000E+000	-88.3683	0.0000000E+000	0.0000000E+000	0.0000000E+000	-1.63167	0.0000000E+000	0.0000000E+000	0.0000000E+000	1.63167	35.1052	1.63167	0.00104523
34896.4	0.0772006	0.0040153	0.0773049	-2.97734	628.847	1.39258	12.492	1135.85	3.06438	2	65	0.010527	0.136176	0	1.36689	32	0.0173961	12.9183	0.671898	12.9358	2.97734	3064.38	58917.6	58997.2	-87.0227	0.0000000E+000	0.0000000E+000	0.0000000E+000	87.0227	0.0000000E+000	0.0000000E+000	0.0000000E+000	-87.0227	0.0000000E+000	0.0000000E+000	0.0000000E+000	-2.97734	0.0000000E+000	0.0000000E+000	0.0000000E+000	2.97734	19.2266	2.97734	0.00297026
28744.8	0.0782523	0.00556541	0.0784499	-4.0681	629.421	1.39257	12.3437	994.864	5.00695	2	65	0.0105174	0.134066	0	1.36918	32	0.0171894	12.7149	0.904299	12.747	4.0681	5006.95	70400	70577.8	-85.9319	0.0000000E+000	0.0000000E+000	0.0000000E+000	85.9319	0.0000000E+000	0.0000000E+000	0.0000000E+000	-85.9319	0.0000000E+000	0.0000000E+000	0.0000000E+000	-4.0681	0.0000000E+000	0.0000000E+000	0.0000000E+000	4.0681	14.0605	4.0681	0.0022934
23678.7	0.0794738	0.00707083	0.0797877	-5.08425	629.995	1.39258	12.3887	950.585	7.46552	2	65	0.0104837	0.131394	0	1.37088	32	0.0172524	12.4839	1.1107	12.5333	5.08425	7465.51	83909.9	84241.4	-84.9157	0.0000000E+000	0.0000000E+000	0.0000000E+000	84.9157	0.0000000E+000	0.0000000E+000	0.0000000E+000	-84.9157	0.0000000E+000	0.0000000E+000	0.0000000E+000	-5.08425	0.0000000E+000	0.0000000E+000	0.0000000E+000	5.08425	11.2397	5.08425	0.00169757
19503.4	0.0807891	0.00840065	0.0812247	-5.93642	630.568	1.39259	12.396	971.396	10.3907	2	65	0.010453	0.128692	0	1.37271	32	0.0172625	12.2455	1.27332	12.3115	5.93642	10390.7	99927.8	100467	-84.0636	0.0000000E+000	0.0000000E+000	0.0000000E+000	84.0636	0.0000000E+000	0.0000000E+000	0.0000000E+000	-84.0636	0.0000000E+000	0.0000000E+000	0.0000000E+000	-5.93642	0.0000000E+000	0.0000000E+000	0.0000000E+000	5.93642	9.617	5.93642	0.00182702
16061.1	0.0821603	0.00964002	0.0827239	-6.69203	631.141	1.39259	12.3274	1027.94	13.9592	2	65	0.0103895	0.125593	0	1.37386	32	0.017167	12.006	1.40869	12.0884	6.69203	13959.2	118972	119788	-83.308	0.0000000E+000	0.0000000E+000	0.0000000E+000	83.308	0.0000000E+000	0.0000000E+000	0.0000000E+000	-83.308	0.0000000E+000	0.0000000E+000	0.0000000E+000	-6.69203	0.0000000E+000	0.0000000E+000	0.0000000E+000	6.69203	8.52283	6.69203	0.00114992
13231.1	0.083866	0.0108807	0.0845689	-7.39222	631.713	1.39259	12.4338	1105.52	18.3003	2	65	0.0103402	0.122269	0	1.37465	32	0.0173152	11.7264	1.52138	11.8247	7.39222	18300.3	141055	142237	-82.6078	0.0000000E+000	0.0000000E+000	0.0000000E+000	82.6078	0.0000000E+000	0.0000000E+000	0.0000000E+000	-82.6078	0.0000000E+000	0.0000000E+000	0.0000000E+000	-7.39222	0.0000000E+000	0.0000000E+000	0.0000000E+000	7.39222	7.70776	7.39222	0.000793189
10902.2	0.085541	0.0119113	0.0863663	-7.92727	632.286	1.39258	12.4743	1225.59	23.3117	2	65	0.0102601	0.118797	0	1.37688	32	0.0173714	11.4679	1.59687	11.5786	7.92727	23311.7	167413	169029	-82.0727	0.0000000E+000	0.0000000E+000	0.0000000E+000	82.0727	0.0000000E+000	0.0000000E+000	0.0000000E+000	-82.0727	0.0000000E+000	0.0000000E+000	0.0000000E+000	-7.92727	0.0000000E+000	0.0000000E+000	0.0000000E+000	7.92727	7.18151	7.92727	0.00223327
8974.76	0.0873421	0.0128017	0.0882752	-8.33845	632.882	1.39247	11.7128	1385.25	29.1331	2	65	0.0103382	0.117114	0	1.37917	32	0.0163097	11.2085	1.64282	11.3282	8.33845	29133.1	198766	200890	-81.6615	0.0000000E+000	0.0000000E+000	0.0000000E+000	81.6615	0.0000000E+000	0.0000000E+000	0.0000000E+000	-81.6615	0.0000000E+000	0.0000000E+000	0.0000000E+000	-8.33845	0.0000000E+000	0.0000000E+000	0.0000000E+000	8.33845	6.82269	8.33845	0.00228557
7394.87	0.0892922	0.0136464	0.0903289	-8.68917	633.571	1.39247	11.6185	1577.15	35.9958	2	65	0.0101569	0.112444	0	1.38234	32	0.0161784	10.9436	1.67249	11.0707	8.68917	35995.9	235532	238266	-81.3108	0.0000000E+000	0.0000000E+000	0.0000000E+000	81.3108	0.0000000E+000	0.0000000E+000	0.0000000E+000	-81.3108	0.0000000E+000	0.0000000E+000	0.0000000E+000	-8.68917	0.0000000E+000	0.0000000E+000	0.0000000E+000	8.68917	6.5433	8.68917	0.00316738
6087.59	0.0911575	0.014427	0.092292	-8.99329	634.168	1.39247	11.7428	1812.17	44.2815	2	65	0.0108323	0.11737	0	1.38452	32	0.0163515	10.702	1.69374	10.8352	8.99329	44281.5	279794	283277	-81.0067	0.0000000E+000	0.0000000E+000	0.0000000E+000	81.0067	0.0000000E+000	0.0000000E+000	0.0000000E+000	-81.0067	0.0000000E+000	0.0000000E+000	0.0000000E+000	-8.99329	0.0000000E+000	0.0000000E+000	0.0000000E+000	8.99329	6.31854	8.99329	0.00218502