File: Python/ImpedanceDataOld/different flow rate_carbon felt_full-cell vanadium tests_1.6 M total vanadium_compression ratio=30%_choose the cycle number=1 or 3/SGL 2.5EA carbon felt_ve=0.5 cms.mpt
EC-Lab ASCII FILE
Nb header lines : 76

Potentio Electrochemical Impedance Spectroscopy

Run on channel : 1 (SN 5680)
User :
Electrode connection : standard
Potential control : Ewe
Ewe ctrl range : min = 0.00 V, max = 5.00 V
Ewe,I filtering : 50 kHz
Safety Limits :
	Do not start on E overload
Channel : Floating
Acquisition started on : 01/21/2022 13:21:12.055
Loaded Setting File :  C:\Data\baili\Compression Ratio Tests\final\SGL 2.5 Felt ve=2\EIS_fullcell_CR10_flowthrough_C01.mpr
Saved on :
	File : EIS_fullcell_CR30_flowthrough_ve=0.5_C01.mpr
	Directory : C:\Data\baili\Compression Ratio Tests\final\SGL 2.5 Felt ve=2\SGL 2.5 Felt ve=other\
	Host : 192.168.0.1
Device : SP-300 (SN 0955)
Address : 192.168.0.4
EC-Lab for windows v11.36 (software)
Internet server v11.36 (firmware)
Command interpretor v11.36 (firmware)
Electrode material :
Initial state :
Electrolyte :
Comments :
Current amplifier : B-10A5V
Cable : standard
Electrode surface area : 0.001 cm2
Characteristic mass : 0.001 g
Equivalent Weight : 0.000 g/eq.
Density : 0.000 g/cm3
Volume (V) : 0.000 m3
Record Power
Cycle Definition : Charge/Discharge alternance
External device configuration :
   device type : Other
   device name : Other
   Analog OUT :
      mode : E/V
      unit : speed/rpm
      max : 150.000 at 5.000 V
      min : 0.000 at 0.000 V
      current : 32.000
Mode                Single sine
E (V)               0.0000
vs.                 Eoc
tE (h:m:s)          0:00:0.0000
record              0
dI                  0.000
unit dI             mA
dt (s)              0.000
fi                  200.000
unit fi             kHz
ff                  30.000
unit ff             mHz
Nd                  12
Points              per decade
spacing             Logarithmic
Va (mV)             10.0
pw                  0.10
Na                  3
corr                0
E range min (V)     0.000
E range max (V)     5.000
I Range             Auto
Bandwidth           8
nc cycles           3
goto Ns'            0
nr cycles           0
inc. cycle          0

freq/Hz	Re(Z)/Ohm	-Im(Z)/Ohm	|Z|/Ohm	Phase(Z)/deg	time/s	<Ewe>/V	<I>/mA	Cs/uF	Cp/uF	cycle number	I Range	|Ewe|/V	|I|/A	Ns	(Q-Qo)/mA.h	Analog OUT/V	P/W	Re(Y)/Ohm-1	Im(Y)/Ohm-1	|Y|/Ohm-1	Phase(Y)/deg	Re(C)/nF	Im(C)/nF	|C|/nF	Phase(C)/deg	Re(M)	Im(M)	|M|	Phase(M)/deg	Re(Permittivity)	Im(Permittivity)	|Permittivity|	Phase(Permittivity)/deg	Re(Resistivity)/Ohm.cm	Im(Resistivity)/Ohm.cm	|Resistivity|/Ohm.cm	Phase(Resistivity)/deg	Re(Conductivity)/mS/cm	Im(Conductivity)/mS/cm	|Conductivity|/mS/cm	Phase(Conductivity)/deg	Tan(Delta)	Loss Angle(Delta)/deg	dq/mA.h
199998	0.0706584	-0.0232672	0.0743907	18.2262	1.78449	1.39029	-13.551	-34.2019	-3.34581	1	65	0.00981865	0.131988	0	-0.00284193	32	-0.0188397	12.7681	-4.20442	13.4425	-18.2262	-3345.81	10160.6	10697.3	-108.226	0.0000000E+000	0.0000000E+000	0.0000000E+000	108.226	0.0000000E+000	0.0000000E+000	0.0000000E+000	-108.226	0.0000000E+000	0.0000000E+000	0.0000000E+000	18.2262	0.0000000E+000	0.0000000E+000	0.0000000E+000	-18.2262	-3.03683	-18.2262	-0.00284193
135689	0.072778	-0.0137306	0.0740619	10.6841	2.93149	1.39029	3.87135	-85.4255	-2.93613	1	65	0.0105576	0.142551	0	-0.00149589	32	0.00538229	13.2682	-2.50322	13.5022	-10.6841	-2936.13	15562.8	15837.3	-100.684	0.0000000E+000	0.0000000E+000	0.0000000E+000	100.684	0.0000000E+000	0.0000000E+000	0.0000000E+000	-100.684	0.0000000E+000	0.0000000E+000	0.0000000E+000	10.6841	0.0000000E+000	0.0000000E+000	0.0000000E+000	-10.6841	-5.30043	-10.6841	0.000674228
92052	0.074351	-0.00692231	0.0746725	5.31908	4.07949	1.39028	3.85085	-249.768	-2.14643	1	65	0.0105702	0.141555	0	2.14044e-05	32	0.00535377	13.3341	-1.24145	13.3918	-5.31908	-2146.43	23054.3	23154	-95.3191	0.0000000E+000	0.0000000E+000	0.0000000E+000	95.3191	0.0000000E+000	0.0000000E+000	0.0000000E+000	-95.3191	0.0000000E+000	0.0000000E+000	0.0000000E+000	5.31908	0.0000000E+000	0.0000000E+000	0.0000000E+000	-5.31908	-10.7408	-5.31908	0.000272821
62453.6	0.0757723	-0.00188953	0.0757958	1.42849	5.2245	1.39028	3.808	-1348.68	-0.838158	1	65	0.0105457	0.139133	0	-0.00103014	32	0.00529419	13.1892	-0.3289	13.1933	-1.42849	-838.16	33611.1	33621.5	-91.4285	0.0000000E+000	0.0000000E+000	0.0000000E+000	91.4285	0.0000000E+000	0.0000000E+000	0.0000000E+000	-91.4285	0.0000000E+000	0.0000000E+000	0.0000000E+000	1.42849	0.0000000E+000	0.0000000E+000	0.0000000E+000	-1.42849	-40.1011	-1.42849	-0.000863286
42374.9	0.0774611	0.00221092	0.0774926	-1.63491	6.37149	1.39028	3.80427	1698.79	1.38281	1	65	0.0105008	0.135508	0	-0.000725033	32	0.00528902	12.8992	0.368172	12.9045	1.63491	1382.81	48447.8	48467.5	-88.3651	0.0000000E+000	0.0000000E+000	0.0000000E+000	88.3651	0.0000000E+000	0.0000000E+000	0.0000000E+000	-88.3651	0.0000000E+000	0.0000000E+000	0.0000000E+000	-1.63491	0.0000000E+000	0.0000000E+000	0.0000000E+000	1.63491	35.0358	1.63491	0.000669979
28744.8	0.0794952	0.00552118	0.0796867	-3.97298	7.51748	1.39029	3.8693	1002.83	4.81416	1	65	0.0104462	0.131091	0	0.000266774	32	0.00537944	12.519	0.869481	12.5491	3.97298	4814.16	69315.4	69482.4	-86.027	0.0000000E+000	0.0000000E+000	0.0000000E+000	86.027	0.0000000E+000	0.0000000E+000	0.0000000E+000	-86.027	0.0000000E+000	0.0000000E+000	0.0000000E+000	-3.97298	0.0000000E+000	0.0000000E+000	0.0000000E+000	3.97298	14.3982	3.97298	0.000478359
19503.4	0.0819705	0.00832291	0.082392	-5.79768	8.6625	1.39029	4.04276	980.47	10.005	1	65	0.0103853	0.126048	0	0.00223137	32	0.00562061	12.075	1.22604	12.1371	5.79768	10005	98536.6	99043.2	-84.2023	0.0000000E+000	0.0000000E+000	0.0000000E+000	84.2023	0.0000000E+000	0.0000000E+000	0.0000000E+000	-84.2023	0.0000000E+000	0.0000000E+000	0.0000000E+000	-5.79768	0.0000000E+000	0.0000000E+000	0.0000000E+000	5.79768	9.84878	5.79768	0.000161858
13231.1	0.0850587	0.0107666	0.0857374	-7.21405	9.8085	1.39028	4.05953	1117.23	17.6182	1	65	0.0103337	0.120527	0	0.0043893	32	0.0056439	11.5712	1.46467	11.6635	7.21405	17618.2	139188	140298	-82.7859	0.0000000E+000	0.0000000E+000	0.0000000E+000	82.7859	0.0000000E+000	0.0000000E+000	0.0000000E+000	-82.7859	0.0000000E+000	0.0000000E+000	0.0000000E+000	-7.21405	0.0000000E+000	0.0000000E+000	0.0000000E+000	7.21405	7.90023	7.21405	0.001245
8974.76	0.0884936	0.0127323	0.0894048	-8.18744	10.9791	1.39019	3.38077	1392.8	28.2477	1	65	0.0103906	0.11622	0	0.00690604	32	0.0046999	11.0711	1.59289	11.1851	8.18744	28247.7	196330	198352	-81.8126	0.0000000E+000	0.0000000E+000	0.0000000E+000	81.8126	0.0000000E+000	0.0000000E+000	0.0000000E+000	-81.8126	0.0000000E+000	0.0000000E+000	0.0000000E+000	-8.18744	0.0000000E+000	0.0000000E+000	0.0000000E+000	8.18744	6.95031	8.18744	0.00170049
6087.59	0.0923353	0.0142482	0.0934282	-8.7721	12.4684	1.39018	3.63286	1834.91	42.6756	1	65	0.0101736	0.108892	0	0.00864856	32	0.00505032	10.5782	1.63232	10.7034	8.7721	42675.6	276559	279832	-81.2279	0.0000000E+000	0.0000000E+000	0.0000000E+000	81.2279	0.0000000E+000	0.0000000E+000	0.0000000E+000	-81.2279	0.0000000E+000	0.0000000E+000	0.0000000E+000	-8.7721	0.0000000E+000	0.0000000E+000	0.0000000E+000	8.7721	6.48048	8.7721	0.00121388
4131.32	0.0965345	0.0155998	0.0977868	-9.17955	14.0847	1.3902	3.77036	2469.51	62.8478	1	65	0.0108384	0.110838	0	0.0102973	32	0.00524154	10.0954	1.6314	10.2263	9.17955	62847.8	388913	393959	-80.8204	0.0000000E+000	0.0000000E+000	0.0000000E+000	80.8204	0.0000000E+000	0.0000000E+000	0.0000000E+000	-80.8204	0.0000000E+000	0.0000000E+000	0.0000000E+000	-9.17955	0.0000000E+000	0.0000000E+000	0.0000000E+000	9.17955	6.18818	9.17955	0.000982063
2802.31	0.10115	0.0165281	0.102492	-9.28018	15.7	1.39019	3.52498	3436.22	89.3609	1	65	0.0104041	0.101511	0	0.0121482	32	0.00490038	9.62917	1.57342	9.75687	9.28018	89360.9	546880	554133	-80.7198	0.0000000E+000	0.0000000E+000	0.0000000E+000	80.7198	0.0000000E+000	0.0000000E+000	0.0000000E+000	-80.7198	0.0000000E+000	0.0000000E+000	0.0000000E+000	-9.28018	0.0000000E+000	0.0000000E+000	0.0000000E+000	9.28018	6.11991	9.28018	0.00109724
1901.83	0.106035	0.0170074	0.10739	-9.1123	17.0816	1.39019	3.44058	4920.53	123.412	1	65	0.010636	0.0990412	0	0.0136718	32	0.00478304	9.19434	1.47472	9.31186	9.1123	123412	769431	779265	-80.8877	0.0000000E+000	0.0000000E+000	0.0000000E+000	80.8877	0.0000000E+000	0.0000000E+000	0.0000000E+000	-80.8877	0.0000000E+000	0.0000000E+000	0.0000000E+000	-9.1123	0.0000000E+000	0.0000000E+000	0.0000000E+000	9.1123	6.23464	9.1123	0.000978081
1290.41	0.111172	0.0167355	0.112425	-8.56087	18.4617	1.39017	3.75285	7369.75	163.309	1	65	0.0106794	0.0949915	0	0.0156464	32	0.00521711	8.79575	1.32409	8.89485	8.56087	163309	1.08484e+06	1.09706e+06	-81.4391	0.0000000E+000	0.0000000E+000	0.0000000E+000	81.4391	0.0000000E+000	0.0000000E+000	0.0000000E+000	-81.4391	0.0000000E+000	0.0000000E+000	0.0000000E+000	-8.56087	0.0000000E+000	0.0000000E+000	0.0000000E+000	8.56087	6.64287	8.56087	0.000931226
875.279	0.116059	0.0154054	0.117077	-7.56113	19.8447	1.39017	3.75955	11803.2	204.365	1	65	0.0106632	0.0910788	0	0.0170861	32	0.00522642	8.46713	1.12391	8.5414	7.56113	204365	1.53961e+06	1.55311e+06	-82.4389	0.0000000E+000	0.0000000E+000	0.0000000E+000	82.4389	0.0000000E+000	0.0000000E+000	0.0000000E+000	-82.4389	0.0000000E+000	0.0000000E+000	0.0000000E+000	-7.56113	0.0000000E+000	0.0000000E+000	0.0000000E+000	7.56113	7.53363	7.56113	0.0008369
593.67	0.120281	0.0137237	0.121062	-6.5091	21.2252	1.39019	3.90544	19534.6	251.034	1	65	0.0106325	0.0878271	0	0.0183664	32	0.00542929	8.20702	0.936392	8.26026	6.5091	251034	2.20019e+06	2.21446e+06	-83.4909	0.0000000E+000	0.0000000E+000	0.0000000E+000	83.4909	0.0000000E+000	0.0000000E+000	0.0000000E+000	-83.4909	0.0000000E+000	0.0000000E+000	0.0000000E+000	-6.5091	0.0000000E+000	0.0000000E+000	0.0000000E+000	6.5091	8.76451	6.5091	0.000856271
402.809	0.123602	0.0114822	0.124134	-5.30738	22.6118	1.39017	3.91364	34410.8	294.42	1	65	0.0106085	0.0854599	0	0.0198212	32	0.00544063	8.02129	0.745154	8.05583	5.30738	294420	3.16931e+06	3.18296e+06	-84.6926	0.0000000E+000	0.0000000E+000	0.0000000E+000	84.6926	0.0000000E+000	0.0000000E+000	0.0000000E+000	-84.6926	0.0000000E+000	0.0000000E+000	0.0000000E+000	-5.30738	0.0000000E+000	0.0000000E+000	0.0000000E+000	5.30738	10.7646	5.30738	0.00046853
273.338	0.125984	0.00918204	0.126318	-4.16848	23.993	1.39017	3.80036	63413.4	335.062	1	65	0.0105948	0.0838733	0	0.0215404	32	0.00528314	7.89556	0.575447	7.9165	4.16848	335063	4.5973e+06	4.60949e+06	-85.8315	0.0000000E+000	0.0000000E+000	0.0000000E+000	85.8315	0.0000000E+000	0.0000000E+000	0.0000000E+000	-85.8315	0.0000000E+000	0.0000000E+000	0.0000000E+000	-4.16848	0.0000000E+000	0.0000000E+000	0.0000000E+000	4.16848	13.7207	4.16848	0.00102252
185.415	0.127699	0.00734264	0.12791	-3.29087	25.3733	1.39018	3.92035	116902	385.231	1	65	0.0105851	0.0827549	0	0.0230014	32	0.00544997	7.80513	0.448793	7.81802	3.29087	385231	6.6997e+06	6.71076e+06	-86.7091	0.0000000E+000	0.0000000E+000	0.0000000E+000	86.7091	0.0000000E+000	0.0000000E+000	0.0000000E+000	-86.7091	0.0000000E+000	0.0000000E+000	0.0000000E+000	-3.29087	0.0000000E+000	0.0000000E+000	0.0000000E+000	3.29087	17.3914	3.29087	0.000553311
125.764	0.128923	0.0056674	0.129048	-2.51707	26.7606	1.39018	3.90935	223295	430.67	1	65	0.0105855	0.0820275	0	0.0237455	32	0.00543471	7.74159	0.340316	7.74906	2.51707	430671	9.79699e+06	9.80645e+06	-87.4829	0.0000000E+000	0.0000000E+000	0.0000000E+000	87.4829	0.0000000E+000	0.0000000E+000	0.0000000E+000	-87.4829	0.0000000E+000	0.0000000E+000	0.0000000E+000	-2.51707	0.0000000E+000	0.0000000E+000	0.0000000E+000	2.51707	22.7482	2.51707	0.000364249
85.3553	0.129697	0.00441501	0.129772	-1.94966	28.1469	1.39018	4.00456	422336	488.834	1	65	0.010575	0.0814895	0	0.0254231	32	0.00556707	7.70138	0.262163	7.70584	1.94966	488833	1.43601e+07	1.43684e+07	-88.0503	0.0000000E+000	0.0000000E+000	0.0000000E+000	88.0503	0.0000000E+000	0.0000000E+000	0.0000000E+000	-88.0503	0.0000000E+000	0.0000000E+000	0.0000000E+000	-1.94966	0.0000000E+000	0.0000000E+000	0.0000000E+000	1.94966	29.3763	1.94966	0.000522354
57.9061	0.130334	0.00341692	0.130379	-1.50176	29.549	1.39019	4.01202	804380	552.479	1	65	0.0105775	0.0811287	0	0.0269245	32	0.00557748	7.66732	0.201011	7.66996	1.50176	552478	2.10736e+07	2.10809e+07	-88.4982	0.0000000E+000	0.0000000E+000	0.0000000E+000	88.4982	0.0000000E+000	0.0000000E+000	0.0000000E+000	-88.4982	0.0000000E+000	0.0000000E+000	0.0000000E+000	-1.50176	0.0000000E+000	0.0000000E+000	0.0000000E+000	1.50176	38.1437	1.50176	0.00064698
39.2835	0.130769	0.00283194	0.1308	-1.24061	30.9694	1.39019	3.92631	1.43063e+06	670.627	1	65	0.0105748	0.0808471	0	0.0285556	32	0.00545832	7.6435	0.165528	7.64529	1.24061	670629	3.09672e+07	3.09745e+07	-88.7594	0.0000000E+000	0.0000000E+000	0.0000000E+000	88.7594	0.0000000E+000	0.0000000E+000	0.0000000E+000	-88.7594	0.0000000E+000	0.0000000E+000	0.0000000E+000	-1.24061	0.0000000E+000	0.0000000E+000	0.0000000E+000	1.24061	46.1765	1.24061	0.000433118
26.6457	0.131162	0.00212651	0.131179	-0.928848	32.2694	1.39018	3.81955	2.80884e+06	738.129	1	65	0.0105776	0.0806351	0	0.0305991	32	0.00530987	7.62217	0.123577	7.62317	0.928848	738130	4.55274e+07	4.55333e+07	-89.0712	0.0000000E+000	0.0000000E+000	0.0000000E+000	89.0712	0.0000000E+000	0.0000000E+000	0.0000000E+000	-89.0712	0.0000000E+000	0.0000000E+000	0.0000000E+000	-0.928848	0.0000000E+000	0.0000000E+000	0.0000000E+000	0.928848	61.6794	0.928848	0.00105146
18.0845	0.131436	0.00185106	0.131449	-0.806864	33.6619	1.39019	4.02562	4.75438e+06	942.803	1	65	0.0105754	0.0804525	0	0.0322682	32	0.00559636	7.60678	0.107129	7.60753	0.806864	942800	6.69444e+07	6.69511e+07	-89.1931	0.0000000E+000	0.0000000E+000	0.0000000E+000	89.1931	0.0000000E+000	0.0000000E+000	0.0000000E+000	-89.1931	0.0000000E+000	0.0000000E+000	0.0000000E+000	-0.806864	0.0000000E+000	0.0000000E+000	0.0000000E+000	0.806864	71.0058	0.806864	0.000817215
12.2645	0.134101	0.00153195	0.13411	-0.654509	35.1628	1.39018	5.69358	8.47081e+06	1105.33	1	37	0.0105811	0.0788989	0	0.0345648	32	0.00791511	7.4561	0.0851772	7.45659	0.654509	1.10533e+06	9.67565e+07	9.67628e+07	-89.3455	0.0000000E+000	0.0000000E+000	0.0000000E+000	89.3455	0.0000000E+000	0.0000000E+000	0.0000000E+000	-89.3455	0.0000000E+000	0.0000000E+000	0.0000000E+000	-0.654509	0.0000000E+000	0.0000000E+000	0.0000000E+000	0.654509	87.5363	0.654509	0.0011949
8.31999	0.134285	0.0014333	0.134292	-0.611527	36.6621	1.39018	3.97002	1.33463e+07	1520.31	1	37	0.0105779	0.0787674	0	0.0360957	32	0.00551905	7.44602	0.0794756	7.44644	0.611527	1.5203e+06	1.42437e+08	1.42445e+08	-89.3885	0.0000000E+000	0.0000000E+000	0.0000000E+000	89.3885	0.0000000E+000	0.0000000E+000	0.0000000E+000	-89.3885	0.0000000E+000	0.0000000E+000	0.0000000E+000	-0.611527	0.0000000E+000	0.0000000E+000	0.0000000E+000	0.611527	93.6893	0.611527	0.000572261
5.64487	0.134645	0.0012888	0.134651	-0.548412	37.8139	1.39018	3.91318	2.18766e+07	2004.17	1	37	0.0105842	0.0786051	0	0.0378779	32	0.00544003	7.42627	0.0710834	7.42661	0.548412	2.00416e+06	2.09381e+08	2.0939e+08	-89.4516	0.0000000E+000	0.0000000E+000	0.0000000E+000	89.4516	0.0000000E+000	0.0000000E+000	0.0000000E+000	-89.4516	0.0000000E+000	0.0000000E+000	0.0000000E+000	-0.548412	0.0000000E+000	0.0000000E+000	0.0000000E+000	0.548412	104.473	0.548412	0.00141112
3.82966	0.134883	0.00126699	0.134889	-0.538177	39.4279	1.39018	3.98787	3.2801e+07	2893.87	1	37	0.0105827	0.0784548	0	0.0388635	32	0.00554386	7.41317	0.0696336	7.4135	0.538177	2.89388e+06	3.0808e+08	3.08094e+08	-89.4618	0.0000000E+000	0.0000000E+000	0.0000000E+000	89.4618	0.0000000E+000	0.0000000E+000	0.0000000E+000	-89.4618	0.0000000E+000	0.0000000E+000	0.0000000E+000	-0.538177	0.0000000E+000	0.0000000E+000	0.0000000E+000	0.538177	106.46	0.538177	0.000935346
2.59897	0.135055	0.00112954	0.13506	-0.479185	41.7327	1.39017	4.0305	5.42148e+07	3792	1	37	0.0105798	0.0783344	0	0.041553	32	0.00560309	7.40388	0.0619227	7.40414	0.479185	3.79202e+06	4.53396e+08	4.53412e+08	-89.5208	0.0000000E+000	0.0000000E+000	0.0000000E+000	89.5208	0.0000000E+000	0.0000000E+000	0.0000000E+000	-89.5208	0.0000000E+000	0.0000000E+000	0.0000000E+000	-0.479185	0.0000000E+000	0.0000000E+000	0.0000000E+000	0.479185	119.566	0.479185	7.62266e-05
1.76354	0.135244	0.00124877	0.13525	-0.529023	45.0631	1.39018	4.05122	7.22689e+07	6160.88	1	37	0.0105796	0.0782227	0	0.0453482	32	0.00563193	7.39341	0.0682668	7.39373	0.529023	6.16087e+06	6.67235e+08	6.67263e+08	-89.471	0.0000000E+000	0.0000000E+000	0.0000000E+000	89.471	0.0000000E+000	0.0000000E+000	0.0000000E+000	-89.471	0.0000000E+000	0.0000000E+000	0.0000000E+000	-0.529023	0.0000000E+000	0.0000000E+000	0.0000000E+000	0.529023	108.302	0.529023	0.00348892
1.19622	0.135401	0.00134299	0.135408	-0.568277	49.9141	1.39017	4.14282	9.90684e+07	9745.31	1	37	0.0105784	0.0781226	0	0.0532782	32	0.00575923	7.38474	0.0732465	7.3851	0.568277	9.74528e+06	9.82526e+08	9.82574e+08	-89.4317	0.0000000E+000	0.0000000E+000	0.0000000E+000	89.4317	0.0000000E+000	0.0000000E+000	0.0000000E+000	-89.4317	0.0000000E+000	0.0000000E+000	0.0000000E+000	-0.568277	0.0000000E+000	0.0000000E+000	0.0000000E+000	0.568277	100.82	0.568277	0.00307415
0.811689	0.135567	0.00163064	0.135577	-0.689136	57.0004	1.39019	4.01431	1.20247e+08	17394.7	1	37	0.0105824	0.0780542	0	0.0550411	32	0.00558065	7.37535	0.0887127	7.37588	0.689136	1.73946e+07	1.44615e+09	1.44625e+09	-89.3109	0.0000000E+000	0.0000000E+000	0.0000000E+000	89.3109	0.0000000E+000	0.0000000E+000	0.0000000E+000	-89.3109	0.0000000E+000	0.0000000E+000	0.0000000E+000	-0.689136	0.0000000E+000	0.0000000E+000	0.0000000E+000	0.689136	83.1375	0.689136	0.000991475
0.550486	0.135873	0.00191473	0.135886	-0.807364	67.3913	1.39019	4.27126	1.50996e+08	29980	1	37	0.0105787	0.0778497	0	0.0697038	32	0.00593786	7.35838	0.103695	7.35911	0.807364	2.998e+07	2.12743e+09	2.12764e+09	-89.1926	0.0000000E+000	0.0000000E+000	0.0000000E+000	89.1926	0.0000000E+000	0.0000000E+000	0.0000000E+000	-89.1926	0.0000000E+000	0.0000000E+000	0.0000000E+000	-0.807364	0.0000000E+000	0.0000000E+000	0.0000000E+000	0.807364	70.9617	0.807364	0.0100511
0.373732	0.136089	0.00237425	0.13611	-0.999499	82.6421	1.39018	4.36751	1.79363e+08	54576.8	1	37	0.0105813	0.0777412	0	0.0979643	32	0.00607162	7.3459	0.128159	7.34701	0.999499	5.45766e+07	3.12827e+09	3.12875e+09	-89.0005	0.0000000E+000	0.0000000E+000	0.0000000E+000	89.0005	0.0000000E+000	0.0000000E+000	0.0000000E+000	-89.0005	0.0000000E+000	0.0000000E+000	0.0000000E+000	-0.999499	0.0000000E+000	0.0000000E+000	0.0000000E+000	0.999499	57.3187	0.999499	0.0143589
0.253521	0.136378	0.00314999	0.136415	-1.32315	105.069	1.39017	4.44122	1.99295e+08	106266	1	37	0.0105778	0.0775416	0	0.117104	32	0.00617406	7.32863	0.169273	7.33059	1.32315	1.06266e+08	4.60076e+09	4.60198e+09	-88.6768	0.0000000E+000	0.0000000E+000	0.0000000E+000	88.6768	0.0000000E+000	0.0000000E+000	0.0000000E+000	-88.6768	0.0000000E+000	0.0000000E+000	0.0000000E+000	-1.32315	0.0000000E+000	0.0000000E+000	0.0000000E+000	1.32315	43.2948	1.32315	0.00770586
0.172002	0.137072	0.00435743	0.137141	-1.82078	138.084	1.39017	4.87722	2.12352e+08	214378	1	37	0.0105813	0.0771561	0	0.139801	32	0.0067802	7.28807	0.231683	7.29175	1.82078	2.14378e+08	6.74372e+09	6.74712e+09	-88.1792	0.0000000E+000	0.0000000E+000	0.0000000E+000	88.1792	0.0000000E+000	0.0000000E+000	0.0000000E+000	-88.1792	0.0000000E+000	0.0000000E+000	0.0000000E+000	-1.82078	0.0000000E+000	0.0000000E+000	0.0000000E+000	1.82078	31.4571	1.82078	0.0149788
0.116619	0.138703	0.00618453	0.138841	-2.55303	186.714	1.39016	5.44798	2.20671e+08	437850	1	37	0.0105781	0.0761888	0	0.222005	32	0.00757357	7.19535	0.320829	7.2025	2.55303	4.3785e+08	9.81983e+09	9.82958e+09	-87.447	0.0000000E+000	0.0000000E+000	0.0000000E+000	87.447	0.0000000E+000	0.0000000E+000	0.0000000E+000	-87.447	0.0000000E+000	0.0000000E+000	0.0000000E+000	-2.55303	0.0000000E+000	0.0000000E+000	0.0000000E+000	2.55303	22.4274	2.55303	0.0514433
0.0791155	0.141464	0.00676417	0.141625	-2.73755	258.328	1.39017	6.32802	2.97402e+08	678409	1	37	0.0105807	0.0747091	0	0.386051	32	0.008797	7.05283	0.337235	7.06089	2.73755	6.78409e+08	1.4188e+10	1.42042e+10	-87.2625	0.0000000E+000	0.0000000E+000	0.0000000E+000	87.2625	0.0000000E+000	0.0000000E+000	0.0000000E+000	-87.2625	0.0000000E+000	0.0000000E+000	0.0000000E+000	-2.73755	0.0000000E+000	0.0000000E+000	0.0000000E+000	2.73755	20.9137	2.73755	0.0902775
0.0536897	0.144075	0.00590952	0.144196	-2.34878	363.815	1.39017	7.51019	5.01622e+08	842508	1	37	0.0105848	0.0734056	0	0.58943	32	0.0104404	6.92917	0.284214	6.93499	2.34878	8.42509e+08	2.05405e+10	2.05577e+10	-87.6512	0.0000000E+000	0.0000000E+000	0.0000000E+000	87.6512	0.0000000E+000	0.0000000E+000	0.0000000E+000	-87.6512	0.0000000E+000	0.0000000E+000	0.0000000E+000	-2.34878	0.0000000E+000	0.0000000E+000	0.0000000E+000	2.34878	24.3802	2.34878	0.102953
0.036443	0.145983	0.00457757	0.146055	-1.79602	519.185	1.39018	9.16543	9.54051e+08	937148	1	37	0.0105812	0.0724466	0	0.862348	32	0.0127416	6.84337	0.214586	6.84673	1.79602	9.37146e+08	2.98866e+10	2.99013e+10	-88.204	0.0000000E+000	0.0000000E+000	0.0000000E+000	88.204	0.0000000E+000	0.0000000E+000	0.0000000E+000	-88.204	0.0000000E+000	0.0000000E+000	0.0000000E+000	-1.79602	0.0000000E+000	0.0000000E+000	0.0000000E+000	1.79602	31.891	1.79602	0.155552
199998	0.0704787	-0.0233375	0.0742421	18.3212	623.532	1.39027	-3.64421	-34.0988	-3.36937	2	65	0.0100387	0.135216	0	1.10117	32	-0.00506642	12.7867	-4.23403	13.4695	-18.3212	-3369.37	10175.4	10718.8	-108.321	0.0000000E+000	0.0000000E+000	0.0000000E+000	108.321	0.0000000E+000	0.0000000E+000	0.0000000E+000	-108.321	0.0000000E+000	0.0000000E+000	0.0000000E+000	18.3212	0.0000000E+000	0.0000000E+000	0.0000000E+000	-18.3212	-3.01997	-18.3212	-0.000451325
135689	0.0725292	-0.0138007	0.0738305	10.7733	624.679	1.39027	12.6531	-84.9914	-2.96965	2	65	0.0105713	0.143184	0	1.10486	32	0.0175913	13.3058	-2.5318	13.5445	-10.7733	-2969.65	15606.9	15886.9	-100.773	0.0000000E+000	0.0000000E+000	0.0000000E+000	100.773	0.0000000E+000	0.0000000E+000	0.0000000E+000	-100.773	0.0000000E+000	0.0000000E+000	0.0000000E+000	10.7733	0.0000000E+000	0.0000000E+000	0.0000000E+000	-10.7733	-5.25547	-10.7733	0.00162118
92052	0.0741244	-0.00697284	0.0744516	5.37397	625.826	1.39028	11.9065	-247.957	-2.17494	2	65	0.0105905	0.142247	0	1.10715	32	0.0165534	13.3725	-1.25794	13.4315	-5.37397	-2174.95	23120.6	23222.7	-95.374	0.0000000E+000	0.0000000E+000	0.0000000E+000	95.374	0.0000000E+000	0.0000000E+000	0.0000000E+000	-95.374	0.0000000E+000	0.0000000E+000	0.0000000E+000	5.37397	0.0000000E+000	0.0000000E+000	0.0000000E+000	-5.37397	-10.6304	-5.37397	0.00180606
62453.6	0.0755074	-0.00183225	0.0755296	1.39006	626.973	1.39028	11.5155	-1390.84	-0.818488	2	65	0.0105663	0.139896	0	1.11055	32	0.0160097	13.2359	-0.321181	13.2398	-1.39006	-818.486	33730.1	33740	-91.3901	0.0000000E+000	0.0000000E+000	0.0000000E+000	91.3901	0.0000000E+000	0.0000000E+000	0.0000000E+000	-91.3901	0.0000000E+000	0.0000000E+000	0.0000000E+000	1.39006	0.0000000E+000	0.0000000E+000	0.0000000E+000	-1.39006	-41.2102	-1.39006	0.000296095
42374.9	0.0771586	0.00228983	0.0771926	-1.69986	628.119	1.39027	11.3936	1640.24	1.44332	2	65	0.0105378	0.136513	0	1.11211	32	0.0158402	12.9489	0.384284	12.9546	1.69986	1443.32	48634.5	48655.9	-88.3001	0.0000000E+000	0.0000000E+000	0.0000000E+000	88.3001	0.0000000E+000	0.0000000E+000	0.0000000E+000	-88.3001	0.0000000E+000	0.0000000E+000	0.0000000E+000	-1.69986	0.0000000E+000	0.0000000E+000	0.0000000E+000	1.69986	33.6962	1.69986	0.000270631
28744.8	0.0792261	0.0055173	0.079418	-3.98364	629.263	1.39028	11.1639	1003.54	4.84339	2	65	0.0105043	0.132266	0	1.11619	32	0.0155209	12.5612	0.87476	12.5916	3.98364	4843.39	69549.1	69717.5	-86.0164	0.0000000E+000	0.0000000E+000	0.0000000E+000	86.0164	0.0000000E+000	0.0000000E+000	0.0000000E+000	-86.0164	0.0000000E+000	0.0000000E+000	0.0000000E+000	-3.98364	0.0000000E+000	0.0000000E+000	0.0000000E+000	3.98364	14.3596	3.98364	0.00234418
19503.4	0.0817238	0.00835068	0.0821493	-5.83433	630.41	1.39028	11.2269	977.21	10.0977	2	65	0.0104495	0.127201	0	1.12212	32	0.0156084	12.1099	1.23741	12.173	5.83433	10097.7	98821.2	99335.8	-84.1657	0.0000000E+000	0.0000000E+000	0.0000000E+000	84.1657	0.0000000E+000	0.0000000E+000	0.0000000E+000	-84.1657	0.0000000E+000	0.0000000E+000	0.0000000E+000	-5.83433	0.0000000E+000	0.0000000E+000	0.0000000E+000	5.83433	9.78648	5.83433	0.0029838
13231.1	0.0847764	0.0107642	0.0854571	-7.23618	631.557	1.39028	11.2365	1117.49	17.7299	2	65	0.01034	0.120996	0	1.12625	32	0.0156219	11.6086	1.47395	11.7018	7.23618	17729.9	139637	140759	-82.7638	0.0000000E+000	0.0000000E+000	0.0000000E+000	82.7638	0.0000000E+000	0.0000000E+000	0.0000000E+000	-82.7638	0.0000000E+000	0.0000000E+000	0.0000000E+000	-7.23618	0.0000000E+000	0.0000000E+000	0.0000000E+000	7.23618	7.87581	7.23618	0.00207675
8974.76	0.088348	0.0127443	0.0892625	-8.20835	632.725	1.39019	10.7527	1391.49	28.3645	2	65	0.0103687	0.116159	0	1.12845	32	0.0149483	11.0881	1.59948	11.2029	8.20835	28364.5	196633	198668	-81.7916	0.0000000E+000	0.0000000E+000	0.0000000E+000	81.7916	0.0000000E+000	0.0000000E+000	0.0000000E+000	-81.7916	0.0000000E+000	0.0000000E+000	0.0000000E+000	-8.20835	0.0000000E+000	0.0000000E+000	0.0000000E+000	8.20835	6.93236	8.20835	0.00149331
6087.59	0.0921248	0.0143741	0.0932394	-8.86828	634.01	1.39017	10.7978	1818.84	43.2272	2	65	0.0110041	0.118019	0	1.13304	32	0.0150107	10.5969	1.65342	10.7251	8.86828	43227.2	277046	280398	-81.1317	0.0000000E+000	0.0000000E+000	0.0000000E+000	81.1317	0.0000000E+000	0.0000000E+000	0.0000000E+000	-81.1317	0.0000000E+000	0.0000000E+000	0.0000000E+000	-8.86828	0.0000000E+000	0.0000000E+000	0.0000000E+000	8.86828	6.40908	8.86828	0.00185395
4131.32	0.0962171	0.0156328	0.0974788	-9.22845	635.626	1.39016	10.7195	2464.3	63.3793	2	65	0.0104387	0.107087	0	1.13762	32	0.0149019	10.1259	1.64519	10.2586	9.22845	63379.3	390088	395203	-80.7716	0.0000000E+000	0.0000000E+000	0.0000000E+000	80.7716	0.0000000E+000	0.0000000E+000	0.0000000E+000	-80.7716	0.0000000E+000	0.0000000E+000	0.0000000E+000	-9.22845	0.0000000E+000	0.0000000E+000	0.0000000E+000	9.22845	6.15482	9.22845	0.00193903
2802.31	0.100955	0.0166352	0.102317	-9.35702	637.008	1.39016	10.8283	3414.09	90.2485	2	65	0.010672	0.104304	0	1.14171	32	0.0150531	9.64354	1.58905	9.77358	9.35702	90248.5	547696	555082	-80.643	0.0000000E+000	0.0000000E+000	0.0000000E+000	80.643	0.0000000E+000	0.0000000E+000	0.0000000E+000	-80.643	0.0000000E+000	0.0000000E+000	0.0000000E+000	-9.35702	0.0000000E+000	0.0000000E+000	0.0000000E+000	9.35702	6.06876	9.35702	0.00199185
1901.83	0.10581	0.0170307	0.107172	-9.14365	638.39	1.39016	10.6437	4913.79	124.085	2	65	0.0106856	0.0997052	0	1.14499	32	0.0147964	9.21225	1.48276	9.33082	9.14365	124085	770930	780852	-80.8563	0.0000000E+000	0.0000000E+000	0.0000000E+000	80.8563	0.0000000E+000	0.0000000E+000	0.0000000E+000	-80.8563	0.0000000E+000	0.0000000E+000	0.0000000E+000	-9.14365	0.0000000E+000	0.0000000E+000	0.0000000E+000	9.14365	6.2129	9.14365	0.00159013
1290.41	0.110881	0.0168222	0.11215	-8.62683	639.769	1.39016	10.5658	7331.76	164.961	2	65	0.0106541	0.0949988	0	1.14917	32	0.0146882	8.81578	1.33748	8.91666	8.62683	164961	1.08731e+06	1.09975e+06	-81.3732	0.0000000E+000	0.0000000E+000	0.0000000E+000	81.3732	0.0000000E+000	0.0000000E+000	0.0000000E+000	-81.3732	0.0000000E+000	0.0000000E+000	0.0000000E+000	-8.62683	0.0000000E+000	0.0000000E+000	0.0000000E+000	8.62683	6.59132	8.62683	0.00247
875.279	0.115927	0.0157013	0.116986	-7.71328	641.151	1.39017	10.6439	11580.8	208.615	2	65	0.0106281	0.0908498	0	1.15322	32	0.0147967	8.47072	1.14729	8.54807	7.71328	208615	1.54026e+06	1.55432e+06	-82.2867	0.0000000E+000	0.0000000E+000	0.0000000E+000	82.2867	0.0000000E+000	0.0000000E+000	0.0000000E+000	-82.2867	0.0000000E+000	0.0000000E+000	0.0000000E+000	-7.71328	0.0000000E+000	0.0000000E+000	0.0000000E+000	7.71328	7.38327	7.71328	0.00231755
593.67	0.120225	0.013898	0.121026	-6.59411	642.531	1.39017	10.7053	19289.5	254.372	2	65	0.0105897	0.0874996	0	1.15783	32	0.0148823	8.20803	0.948845	8.26269	6.59411	254373	2.20046e+06	2.21511e+06	-83.4059	0.0000000E+000	0.0000000E+000	0.0000000E+000	83.4059	0.0000000E+000	0.0000000E+000	0.0000000E+000	-83.4059	0.0000000E+000	0.0000000E+000	0.0000000E+000	-6.59411	0.0000000E+000	0.0000000E+000	0.0000000E+000	6.59411	8.65054	6.59411	0.00244636
402.809	0.123612	0.0114548	0.124142	-5.29431	643.918	1.39018	10.8257	34493.2	293.678	2	65	0.0105622	0.0850817	0	1.1625	32	0.0150497	8.02093	0.743275	8.05529	5.29431	293678	3.16917e+06	3.18275e+06	-84.7057	0.0000000E+000	0.0000000E+000	0.0000000E+000	84.7057	0.0000000E+000	0.0000000E+000	0.0000000E+000	-84.7057	0.0000000E+000	0.0000000E+000	0.0000000E+000	-5.29431	0.0000000E+000	0.0000000E+000	0.0000000E+000	5.29431	10.7913	5.29431	0.00226292
273.338	0.126088	0.00933045	0.126433	-4.23215	645.299	1.39017	10.7413	62404.7	339.863	2	65	0.0105507	0.0834491	0	1.16731	32	0.0149322	7.88778	0.583692	7.90934	4.23215	339863	4.59277e+06	4.60533e+06	-85.7679	0.0000000E+000	0.0000000E+000	0.0000000E+000	85.7679	0.0000000E+000	0.0000000E+000	0.0000000E+000	-85.7679	0.0000000E+000	0.0000000E+000	0.0000000E+000	-4.23215	0.0000000E+000	0.0000000E+000	0.0000000E+000	4.23215	13.5136	4.23215	0.00239621
185.415	0.127822	0.00733168	0.128032	-3.2828	646.678	1.39018	10.8238	117077	383.92	2	65	0.0105456	0.082367	0	1.17156	32	0.0150471	7.79772	0.447266	7.81054	3.2828	383919	6.69334e+06	6.70434e+06	-86.7172	0.0000000E+000	0.0000000E+000	0.0000000E+000	86.7172	0.0000000E+000	0.0000000E+000	0.0000000E+000	-86.7172	0.0000000E+000	0.0000000E+000	0.0000000E+000	-3.2828	0.0000000E+000	0.0000000E+000	0.0000000E+000	3.2828	17.4342	3.2828	0.00179151
125.764	0.129059	0.00567619	0.129184	-2.51832	648.065	1.39017	10.8881	222949	430.431	2	65	0.0105415	0.0816006	0	1.17503	32	0.0151364	7.73343	0.340127	7.7409	2.51832	430431	9.78667e+06	9.79613e+06	-87.4817	0.0000000E+000	0.0000000E+000	0.0000000E+000	87.4817	0.0000000E+000	0.0000000E+000	0.0000000E+000	-87.4817	0.0000000E+000	0.0000000E+000	0.0000000E+000	-2.51832	0.0000000E+000	0.0000000E+000	0.0000000E+000	2.51832	22.7369	2.51832	0.00169656
85.3553	0.129955	0.00443995	0.13003	-1.95677	649.451	1.39019	11.1057	419963	489.642	2	65	0.0105476	0.0811164	0	1.17966	32	0.015439	7.68603	0.262596	7.69051	1.95677	489641	1.43315e+07	1.43399e+07	-88.0432	0.0000000E+000	0.0000000E+000	0.0000000E+000	88.0432	0.0000000E+000	0.0000000E+000	0.0000000E+000	-88.0432	0.0000000E+000	0.0000000E+000	0.0000000E+000	-1.95677	0.0000000E+000	0.0000000E+000	0.0000000E+000	1.95677	29.2693	1.95677	0.00223105
57.9061	0.130515	0.00354448	0.130563	-1.55564	650.853	1.39019	11.2062	775431	571.488	2	65	0.0105417	0.0807403	0	1.18397	32	0.0155787	7.65631	0.207927	7.65913	1.55564	571487	2.10434e+07	2.10511e+07	-88.4444	0.0000000E+000	0.0000000E+000	0.0000000E+000	88.4444	0.0000000E+000	0.0000000E+000	0.0000000E+000	-88.4444	0.0000000E+000	0.0000000E+000	0.0000000E+000	-1.55564	0.0000000E+000	0.0000000E+000	0.0000000E+000	1.55564	36.8221	1.55564	0.00182671
39.2835	0.130927	0.00280111	0.130957	-1.22562	652.274	1.39019	11.1777	1.44637e+06	661.73	2	65	0.0105379	0.0804679	0	1.18872	32	0.0155391	7.63434	0.163332	7.63608	1.22562	661732	3.09301e+07	3.09372e+07	-88.7744	0.0000000E+000	0.0000000E+000	0.0000000E+000	88.7744	0.0000000E+000	0.0000000E+000	0.0000000E+000	-88.7744	0.0000000E+000	0.0000000E+000	0.0000000E+000	-1.22562	0.0000000E+000	0.0000000E+000	0.0000000E+000	1.22562	46.7412	1.22562	0.00222247
26.6457	0.131431	0.00233541	0.131452	-1.01799	653.574	1.39019	11.1018	2.55759e+06	807.279	2	65	0.0105441	0.0802129	0	1.19277	32	0.0154337	7.60616	0.135154	7.60736	1.01799	807276	4.54317e+07	4.54389e+07	-88.982	0.0000000E+000	0.0000000E+000	0.0000000E+000	88.982	0.0000000E+000	0.0000000E+000	0.0000000E+000	-88.982	0.0000000E+000	0.0000000E+000	0.0000000E+000	-1.01799	0.0000000E+000	0.0000000E+000	0.0000000E+000	1.01799	56.2776	1.01799	0.00207957
18.0845	0.131759	0.00186253	0.131772	-0.80987	654.967	1.3902	11.1201	4.7251e+06	943.99	2	65	0.0105391	0.0799798	0	1.1975	32	0.0154591	7.58808	0.107264	7.58884	0.80987	943987	6.67799e+07	6.67866e+07	-89.1901	0.0000000E+000	0.0000000E+000	0.0000000E+000	89.1901	0.0000000E+000	0.0000000E+000	0.0000000E+000	-89.1901	0.0000000E+000	0.0000000E+000	0.0000000E+000	-0.80987	0.0000000E+000	0.0000000E+000	0.0000000E+000	0.80987	70.7421	0.80987	0.00236771
12.2645	0.134215	0.00162002	0.134224	-0.691549	656.469	1.39019	12.2886	8.01028e+06	1166.88	2	37	0.0105371	0.0785037	0	1.20236	32	0.0170835	7.44967	0.0899205	7.45022	0.691549	1.16689e+06	9.66731e+07	9.66802e+07	-89.3084	0.0000000E+000	0.0000000E+000	0.0000000E+000	89.3084	0.0000000E+000	0.0000000E+000	0.0000000E+000	-89.3084	0.0000000E+000	0.0000000E+000	0.0000000E+000	-0.691549	0.0000000E+000	0.0000000E+000	0.0000000E+000	0.691549	82.8473	0.691549	0.00247035
8.31999	0.134531	0.00143084	0.134538	-0.609362	657.968	1.39017	10.545	1.33692e+07	1512.15	2	37	0.0105422	0.0783582	0	1.20638	32	0.0146593	7.4324	0.0790493	7.43282	0.609362	1.51215e+06	1.42176e+08	1.42184e+08	-89.3906	0.0000000E+000	0.0000000E+000	0.0000000E+000	89.3906	0.0000000E+000	0.0000000E+000	0.0000000E+000	-89.3906	0.0000000E+000	0.0000000E+000	0.0000000E+000	-0.609362	0.0000000E+000	0.0000000E+000	0.0000000E+000	0.609362	94.0224	0.609362	0.00192299
5.64487	0.134738	0.00124962	0.134744	-0.531372	659.12	1.39017	10.5105	2.25625e+07	1940.56	2	37	0.0105401	0.0782228	0	1.2101	32	0.0146114	7.42116	0.0688272	7.42148	0.531372	1.94056e+06	2.09237e+08	2.09246e+08	-89.4686	0.0000000E+000	0.0000000E+000	0.0000000E+000	89.4686	0.0000000E+000	0.0000000E+000	0.0000000E+000	-89.4686	0.0000000E+000	0.0000000E+000	0.0000000E+000	-0.531372	0.0000000E+000	0.0000000E+000	0.0000000E+000	0.531372	107.823	0.531372	0.00191166
3.82966	0.134928	0.0012724	0.134934	-0.540298	660.735	1.39018	10.4272	3.26615e+07	2904.32	2	37	0.0105344	0.0780709	0	1.21389	32	0.0144956	7.41072	0.069885	7.41105	0.540298	2.90432e+06	3.07978e+08	3.07992e+08	-89.4597	0.0000000E+000	0.0000000E+000	0.0000000E+000	89.4597	0.0000000E+000	0.0000000E+000	0.0000000E+000	-89.4597	0.0000000E+000	0.0000000E+000	0.0000000E+000	-0.540298	0.0000000E+000	0.0000000E+000	0.0000000E+000	0.540298	106.042	0.540298	0.00161622
2.59897	0.135274	0.0012253	0.13528	-0.518965	663.04	1.39017	10.545	4.99778e+07	4100.11	2	37	0.010545	0.07795	0	1.22199	32	0.0146594	7.39179	0.0669541	7.3921	0.518965	4.10013e+06	4.52656e+08	4.52675e+08	-89.481	0.0000000E+000	0.0000000E+000	0.0000000E+000	89.481	0.0000000E+000	0.0000000E+000	0.0000000E+000	-89.481	0.0000000E+000	0.0000000E+000	0.0000000E+000	-0.518965	0.0000000E+000	0.0000000E+000	0.0000000E+000	0.518965	110.401	0.518965	0.00338533
1.76354	0.135482	0.00122593	0.135488	-0.518435	666.372	1.39018	10.7693	7.36152e+07	6026.97	2	37	0.0105415	0.0778038	0	1.22993	32	0.0149712	7.38043	0.066783	7.38074	0.518435	6.02694e+06	6.66063e+08	6.6609e+08	-89.4816	0.0000000E+000	0.0000000E+000	0.0000000E+000	89.4816	0.0000000E+000	0.0000000E+000	0.0000000E+000	-89.4816	0.0000000E+000	0.0000000E+000	0.0000000E+000	-0.518435	0.0000000E+000	0.0000000E+000	0.0000000E+000	0.518435	110.514	0.518435	0.00555075
1.19622	0.135664	0.00131417	0.13567	-0.555005	671.223	1.39017	10.6745	1.01241e+08	9499.28	2	37	0.0105433	0.0777125	0	1.24843	32	0.0148394	7.37046	0.0713973	7.3708	0.555005	9.49934e+06	9.80626e+08	9.80672e+08	-89.445	0.0000000E+000	0.0000000E+000	0.0000000E+000	89.445	0.0000000E+000	0.0000000E+000	0.0000000E+000	-89.445	0.0000000E+000	0.0000000E+000	0.0000000E+000	-0.555005	0.0000000E+000	0.0000000E+000	0.0000000E+000	0.555005	103.232	0.555005	0.00952684
0.811689	0.135632	0.00142862	0.13564	-0.603478	678.311	1.39018	10.8294	1.3725e+08	15225.6	2	37	0.0105408	0.0777119	0	1.26467	32	0.0150548	7.37206	0.0776505	7.37247	0.603478	1.52256e+07	1.44551e+09	1.44559e+09	-89.3965	0.0000000E+000	0.0000000E+000	0.0000000E+000	89.3965	0.0000000E+000	0.0000000E+000	0.0000000E+000	-89.3965	0.0000000E+000	0.0000000E+000	0.0000000E+000	-0.603478	0.0000000E+000	0.0000000E+000	0.0000000E+000	0.603478	94.9391	0.603478	0.00802432
0.550486	0.136057	0.00189884	0.13607	-0.799582	688.701	1.39018	11.1585	1.5226e+08	29650.8	2	37	0.0105391	0.0774537	0	1.29404	32	0.0155124	7.34843	0.102556	7.34914	0.799582	2.96509e+07	2.12456e+09	2.12476e+09	-89.2004	0.0000000E+000	0.0000000E+000	0.0000000E+000	89.2004	0.0000000E+000	0.0000000E+000	0.0000000E+000	-89.2004	0.0000000E+000	0.0000000E+000	0.0000000E+000	-0.799582	0.0000000E+000	0.0000000E+000	0.0000000E+000	0.799582	71.6525	0.799582	0.0182127
0.373732	0.136225	0.00234276	0.136245	-0.985261	703.952	1.39018	11.2215	1.81774e+08	53746.1	2	37	0.010543	0.0773832	0	1.35307	32	0.0156	7.33865	0.126208	7.33974	0.985261	5.37461e+07	3.12519e+09	3.12565e+09	-89.0147	0.0000000E+000	0.0000000E+000	0.0000000E+000	89.0147	0.0000000E+000	0.0000000E+000	0.0000000E+000	-89.0147	0.0000000E+000	0.0000000E+000	0.0000000E+000	-0.985261	0.0000000E+000	0.0000000E+000	0.0000000E+000	0.985261	58.1471	0.985261	0.0326549
0.253521	0.136579	0.00315783	0.136616	-1.32449	726.379	1.39019	11.3383	1.98801e+08	106217	2	37	0.0105398	0.0771491	0	1.42395	32	0.0157625	7.31784	0.169194	7.3198	1.32449	1.06216e+08	4.59398e+09	4.59521e+09	-88.6755	0.0000000E+000	0.0000000E+000	0.0000000E+000	88.6755	0.0000000E+000	0.0000000E+000	0.0000000E+000	-88.6755	0.0000000E+000	0.0000000E+000	0.0000000E+000	-1.32449	0.0000000E+000	0.0000000E+000	0.0000000E+000	1.32449	43.2511	1.32449	0.0356827
0.172002	0.137146	0.00437179	0.137216	-1.82579	759.395	1.39017	11.6513	2.11655e+08	214850	2	37	0.0105409	0.0768195	0	1.50667	32	0.0161972	7.28408	0.232193	7.28778	1.82579	2.14851e+08	6.74002e+09	6.74345e+09	-88.1742	0.0000000E+000	0.0000000E+000	0.0000000E+000	88.1742	0.0000000E+000	0.0000000E+000	0.0000000E+000	-88.1742	0.0000000E+000	0.0000000E+000	0.0000000E+000	-1.82579	0.0000000E+000	0.0000000E+000	0.0000000E+000	1.82579	31.3708	1.82579	0.0450843
0.116619	0.13891	0.00614974	0.139046	-2.5349	808.024	1.39018	12.0794	2.21919e+08	434100	2	37	0.0105388	0.0757935	0	1.65898	32	0.0167926	7.18481	0.318081	7.19185	2.5349	4.341e+08	9.80545e+09	9.81505e+09	-87.4651	0.0000000E+000	0.0000000E+000	0.0000000E+000	87.4651	0.0000000E+000	0.0000000E+000	0.0000000E+000	-87.4651	0.0000000E+000	0.0000000E+000	0.0000000E+000	-2.5349	0.0000000E+000	0.0000000E+000	0.0000000E+000	2.5349	22.588	2.5349	0.0903856