File: Python/Experiments/Baichen/IronSymmetricNIPSElectrode/FTFF/Data/ve=1cms.mpt
EC-Lab ASCII FILE
Nb header lines : 66

Potentio Electrochemical Impedance Spectroscopy

Run on channel : 1 (SN 50780)
User :
CE vs. WE compliance from -10 V to 10 V
Electrode connection : standard
Potential control : Ewe
Ewe ctrl range : min = -10.00 V, max = 10.00 V
Safety Limits :
	Do not start on E overload
Acquisition started on : 02/13/2023 18:29:28.162
Loaded Setting File :  NONE
Saved on :
	File : NoPattern_FTFF_05Fe_2MHCL_ve1cms_EIS_PCGA_01_PEIS_C01.mpr
	Directory : C:\Users\sto063\Documents\EC-Lab\Data\Baichen\Micormolding\20230213_denseNoPatternS3_FTFF\
	Host : 131.155.90.158
Device : VSP-3e (SN .003050)
Address : USB
EC-Lab for windows v11.43 (software)
Internet server v11.40 (firmware)
Command interpretor v11.40 (firmware)
Electrode material :
Initial state :
Electrolyte :
Comments :
Electrode surface area : 0.001 cm2
Characteristic mass : 0.001 g
Equivalent Weight : 0.000 g/eq.
Density : 0.000 g/cm3
Volume (V) : 0.001 cm3
Cycle Definition : Charge/Discharge alternance
Mode                Single sine
E (V)               0.0000
vs.                 Eoc
tE (h:m:s)          0:00:0.0000
record              0
dI                  0.000
unit dI             mA
dt (s)              0.000
fi                  200.000
unit fi             kHz
ff                  5.000
unit ff             mHz
Nd                  8
Points              per decade
spacing             Logarithmic
Va (mV)             10.0
pw                  0.10
Na                  5
corr                0
E range min (V)     -10.000
E range max (V)     10.000
I Range             Auto
Bandwidth           5
nc cycles           0
goto Ns'            0
nr cycles           0
inc. cycle          0

Modify on : 02/13/2023 18:29
ff                  3.000

freq/Hz	Re(Z)/Ohm	-Im(Z)/Ohm	|Z|/Ohm	Phase(Z)/deg	time/s	<Ewe>/V	<I>/mA	Cs/uF	Cp/uF	cycle number	I Range	|Ewe|/V	|I|/A	Ns	(Q-Qo)/mA.h	Re(Y)/Ohm-1	Im(Y)/Ohm-1	|Y|/Ohm-1	Phase(Y)/deg	Re(C)/nF	Im(C)/nF	|C|/nF	Phase(C)/deg	Re(M)	Im(M)	|M|	Phase(M)/deg	Re(Permittivity)	Im(Permittivity)	|Permittivity|	Phase(Permittivity)/deg	Re(Resistivity)/Ohm.cm	Im(Resistivity)/Ohm.cm	|Resistivity|/Ohm.cm	Phase(Resistivity)/deg	Re(Conductivity)/mS/cm	Im(Conductivity)/mS/cm	|Conductivity|/mS/cm	Phase(Conductivity)/deg	Tan(Delta)	Loss Angle(Delta)/deg	dq/mA.h
199998	0.196687	-0.147746	0.245997	36.9128	1.73948	-0.000541448	-2.16378	-5.38616	-1.94289	1	9	0.00100648	0.00409142	0	-0.000890705	3.25024	-2.44149	4.06509	-36.9128	-1942.89	2586.49	3234.93	-126.913	0.0000000E+000	0.0000000E+000	0.0000000E+000	126.913	0.0000000E+000	0.0000000E+000	0.0000000E+000	-126.913	0.0000000E+000	0.0000000E+000	0.0000000E+000	36.9128	0.0000000E+000	0.0000000E+000	0.0000000E+000	-36.9128	-1.33125	-36.9128	-0.000890705
149393	0.204958	-0.108861	0.232075	27.9745	2.5635	-0.000549123	-1.95513	-9.78624	-2.15331	1	9	0.00199636	0.00860223	0	-0.00134696	3.80548	-2.02124	4.30896	-27.9745	-2153.31	4054.14	4590.52	-117.975	0.0000000E+000	0.0000000E+000	0.0000000E+000	117.975	0.0000000E+000	0.0000000E+000	0.0000000E+000	-117.975	0.0000000E+000	0.0000000E+000	0.0000000E+000	27.9745	0.0000000E+000	0.0000000E+000	0.0000000E+000	-27.9745	-1.88275	-27.9745	-0.000456257
111593	0.207811	-0.0799514	0.222661	21.0433	3.38748	-0.000573899	-1.85656	-17.8385	-2.29998	1	9	0.00500831	0.022493	0	-0.00179731	4.19162	-1.61265	4.49114	-21.0433	-2299.98	5978.15	6405.33	-111.043	0.0000000E+000	0.0000000E+000	0.0000000E+000	111.043	0.0000000E+000	0.0000000E+000	0.0000000E+000	-111.043	0.0000000E+000	0.0000000E+000	0.0000000E+000	21.0433	0.0000000E+000	0.0000000E+000	0.0000000E+000	-21.0433	-2.59922	-21.0433	-0.000450346
83358.1	0.208461	-0.0578981	0.216352	15.5221	4.34848	-0.000567751	-1.75351	-32.9767	-2.36164	1	9	0.0234788	0.108521	0	-0.00232489	4.45351	-1.23692	4.62209	-15.5221	-2361.64	8503.05	8824.92	-105.522	0.0000000E+000	0.0000000E+000	0.0000000E+000	105.522	0.0000000E+000	0.0000000E+000	0.0000000E+000	-105.522	0.0000000E+000	0.0000000E+000	0.0000000E+000	15.5221	0.0000000E+000	0.0000000E+000	0.0000000E+000	-15.5221	-3.60049	-15.5221	-0.000527585
62258.8	0.209046	-0.0419049	0.213205	11.3351	6.40549	-0.000473454	-1.24166	-61.0035	-2.35662	1	9	0.0124285	0.0582935	0	-0.00292807	4.59883	-0.92187	4.69032	-11.3351	-2356.62	11756.2	11990.1	-101.335	0.0000000E+000	0.0000000E+000	0.0000000E+000	101.335	0.0000000E+000	0.0000000E+000	0.0000000E+000	-101.335	0.0000000E+000	0.0000000E+000	0.0000000E+000	11.3351	0.0000000E+000	0.0000000E+000	0.0000000E+000	-11.3351	-4.98859	-11.3351	-0.00060318
46782.2	0.209986	-0.0301715	0.212143	8.17647	7.50349	-0.000428671	-1.03815	-112.757	-2.28076	1	9	0.00931849	0.0439256	0	-0.00324773	4.66589	-0.670409	4.71381	-8.17647	-2280.76	15873.5	16036.6	-98.1765	0.0000000E+000	0.0000000E+000	0.0000000E+000	98.1765	0.0000000E+000	0.0000000E+000	0.0000000E+000	-98.1765	0.0000000E+000	0.0000000E+000	0.0000000E+000	8.17647	0.0000000E+000	0.0000000E+000	0.0000000E+000	-8.17647	-6.95977	-8.17647	-0.000319653
34989.2	0.21075	-0.0209166	0.211786	5.66793	8.32747	-0.000410582	-0.946747	-217.468	-2.1212	1	9	0.00927467	0.0437927	0	-0.00340383	4.69867	-0.466334	4.72175	-5.66793	-2121.2	21372.8	21477.8	-95.6679	0.0000000E+000	0.0000000E+000	0.0000000E+000	95.6679	0.0000000E+000	0.0000000E+000	0.0000000E+000	-95.6679	0.0000000E+000	0.0000000E+000	0.0000000E+000	5.66793	0.0000000E+000	0.0000000E+000	0.0000000E+000	-5.66793	-10.0758	-5.66793	-0.000156104
26165.4	0.211892	-0.0140087	0.212355	3.78245	9.15148	-0.000401492	-0.900718	-434.205	-1.88958	1	9	0.00991477	0.0466896	0	-0.00365291	4.69884	-0.310651	4.70909	-3.78245	-1889.58	28581.4	28643.8	-93.7825	0.0000000E+000	0.0000000E+000	0.0000000E+000	93.7825	0.0000000E+000	0.0000000E+000	0.0000000E+000	-93.7825	0.0000000E+000	0.0000000E+000	0.0000000E+000	3.78245	0.0000000E+000	0.0000000E+000	0.0000000E+000	-3.78245	-15.1258	-3.78245	-0.000249082
19568.4	0.21312	-0.00886791	0.213305	2.3827	9.97549	-0.000396816	-0.876174	-917.158	-1.58521	1	9	0.0102937	0.0482583	0	-0.00385819	4.68408	-0.194904	4.68813	-2.3827	-1585.21	38096.9	38129.9	-92.3827	0.0000000E+000	0.0000000E+000	0.0000000E+000	92.3827	0.0000000E+000	0.0000000E+000	0.0000000E+000	-92.3827	0.0000000E+000	0.0000000E+000	0.0000000E+000	2.3827	0.0000000E+000	0.0000000E+000	0.0000000E+000	-2.3827	-24.0327	-2.3827	-0.000205278
14632.2	0.214194	-0.00512641	0.214255	1.37103	10.7995	-0.000392382	-0.862951	-2121.76	-1.21468	1	9	0.0104723	0.0488778	0	-0.0040664	4.66599	-0.111673	4.66732	-1.37103	-1214.67	50752.1	50766.7	-91.371	0.0000000E+000	0.0000000E+000	0.0000000E+000	91.371	0.0000000E+000	0.0000000E+000	0.0000000E+000	-91.371	0.0000000E+000	0.0000000E+000	0.0000000E+000	1.37103	0.0000000E+000	0.0000000E+000	0.0000000E+000	-1.37103	-41.7824	-1.37103	-0.000208214
10939.4	0.215581	-0.00238484	0.215594	0.633803	11.6235	-0.000397487	-0.859687	-6100.54	-0.746472	1	9	0.0104911	0.0486614	0	-0.00433708	4.63806	-0.051308	4.63834	-0.633803	-746.474	67478.3	67482.5	-90.6338	0.0000000E+000	0.0000000E+000	0.0000000E+000	90.6338	0.0000000E+000	0.0000000E+000	0.0000000E+000	-90.6338	0.0000000E+000	0.0000000E+000	0.0000000E+000	0.633803	0.0000000E+000	0.0000000E+000	0.0000000E+000	-0.633803	-90.3964	-0.633803	-0.000270671
8179.21	0.21649	-0.000310854	0.216491	0.0822696	12.5411	-0.000391358	-0.80894	-62596.9	-0.129058	1	9	0.0103498	0.047807	0	-0.00457498	4.61913	-0.0066325	4.61914	-0.0822696	-129.055	89881.3	89881.4	-90.0823	0.0000000E+000	0.0000000E+000	0.0000000E+000	90.0823	0.0000000E+000	0.0000000E+000	0.0000000E+000	-90.0823	0.0000000E+000	0.0000000E+000	0.0000000E+000	0.0822696	0.0000000E+000	0.0000000E+000	0.0000000E+000	-0.0822696	-696.439	-0.0822696	-0.000237906
6121.38	0.21773	0.00109822	0.217732	-0.288995	13.6927	-0.000408068	-0.803532	23674.6	0.602301	1	9	0.0102846	0.0472352	0	-0.00478964	4.59274	0.0231655	4.5928	0.288995	602.299	119410	119412	-89.711	0.0000000E+000	0.0000000E+000	0.0000000E+000	89.711	0.0000000E+000	0.0000000E+000	0.0000000E+000	-89.711	0.0000000E+000	0.0000000E+000	0.0000000E+000	-0.288995	0.0000000E+000	0.0000000E+000	0.0000000E+000	0.288995	198.257	0.288995	-0.000214659
4576.46	0.218825	0.00212257	0.218835	-0.555744	15.0307	-0.000383068	-0.738442	16384.3	1.54141	1	9	0.0101671	0.0464598	0	-0.00510764	4.56943	0.0443229	4.56965	0.555744	1541.4	158910	158918	-89.4443	0.0000000E+000	0.0000000E+000	0.0000000E+000	89.4443	0.0000000E+000	0.0000000E+000	0.0000000E+000	-89.4443	0.0000000E+000	0.0000000E+000	0.0000000E+000	-0.555744	0.0000000E+000	0.0000000E+000	0.0000000E+000	0.555744	103.094	0.555744	-0.000318004
3421.09	0.219939	0.002736	0.219956	-0.712712	16.1467	-0.000383105	-0.73391	17003.5	2.63086	1	9	0.0107763	0.0489927	0	-0.00534851	4.546	0.0565514	4.54635	0.712712	2630.88	211487	211504	-89.2873	0.0000000E+000	0.0000000E+000	0.0000000E+000	89.2873	0.0000000E+000	0.0000000E+000	0.0000000E+000	-89.2873	0.0000000E+000	0.0000000E+000	0.0000000E+000	-0.712712	0.0000000E+000	0.0000000E+000	0.0000000E+000	0.712712	80.3871	0.712712	-0.000240864
2570.82	0.220902	0.00301089	0.220922	-0.780894	17.4837	-0.000392047	-0.774922	20561.4	3.81913	1	9	0.0102128	0.0462282	0	-0.00565905	4.52606	0.0616903	4.52648	0.780894	3819.12	280200	280226	-89.2191	0.0000000E+000	0.0000000E+000	0.0000000E+000	89.2191	0.0000000E+000	0.0000000E+000	0.0000000E+000	-89.2191	0.0000000E+000	0.0000000E+000	0.0000000E+000	-0.780894	0.0000000E+000	0.0000000E+000	0.0000000E+000	0.780894	73.3675	0.780894	-0.000310545
1913.16	0.221844	0.00319076	0.221867	-0.824022	18.5999	-0.000383888	-0.747357	26072	5.39233	1	9	0.0104109	0.0469241	0	-0.00589507	4.50673	0.0648198	4.5072	0.824022	5392.31	374912	374951	-89.176	0.0000000E+000	0.0000000E+000	0.0000000E+000	89.176	0.0000000E+000	0.0000000E+000	0.0000000E+000	-89.176	0.0000000E+000	0.0000000E+000	0.0000000E+000	-0.824022	0.0000000E+000	0.0000000E+000	0.0000000E+000	0.824022	69.5271	0.824022	-0.00023602
1432.29	0.222563	0.00318765	0.222586	-0.820562	19.7154	-0.000387539	-0.751591	34859.2	7.14933	1	9	0.0105154	0.0472421	0	-0.00611851	4.49219	0.0643393	4.49265	0.820562	7149.35	499168	499219	-89.1794	0.0000000E+000	0.0000000E+000	0.0000000E+000	89.1794	0.0000000E+000	0.0000000E+000	0.0000000E+000	-89.1794	0.0000000E+000	0.0000000E+000	0.0000000E+000	-0.820562	0.0000000E+000	0.0000000E+000	0.0000000E+000	0.820562	69.8203	0.820562	-0.000223437
1070.34	0.223218	0.00316007	0.22324	-0.811076	20.8307	-0.000387446	-0.760617	47054.5	9.42866	1	9	0.0105707	0.0473511	0	-0.00631237	4.47904	0.0634092	4.47949	0.811076	9428.63	666012	666079	-89.1889	0.0000000E+000	0.0000000E+000	0.0000000E+000	89.1889	0.0000000E+000	0.0000000E+000	0.0000000E+000	-89.1889	0.0000000E+000	0.0000000E+000	0.0000000E+000	-0.811076	0.0000000E+000	0.0000000E+000	0.0000000E+000	0.811076	70.637	0.811076	-0.000193856
800.256	0.223954	0.00314756	0.223976	-0.805209	21.9467	-0.000404845	-0.751982	63185.6	12.4785	1	9	0.0106071	0.0473581	0	-0.00650038	4.46432	0.0627436	4.46476	0.805209	12478.4	887864	887952	-89.1948	0.0000000E+000	0.0000000E+000	0.0000000E+000	89.1948	0.0000000E+000	0.0000000E+000	0.0000000E+000	-89.1948	0.0000000E+000	0.0000000E+000	0.0000000E+000	-0.805209	0.0000000E+000	0.0000000E+000	0.0000000E+000	0.805209	71.1517	0.805209	-0.000188018
598.659	0.224532	0.00299768	0.224552	-0.764898	23.0662	-0.000384204	-0.73074	88686.1	15.8049	1	9	0.0106238	0.047311	0	-0.00671903	4.45291	0.0594498	4.45331	0.764898	15804.9	1.18382e+06	1.18392e+06	-89.2351	0.0000000E+000	0.0000000E+000	0.0000000E+000	89.2351	0.0000000E+000	0.0000000E+000	0.0000000E+000	-89.2351	0.0000000E+000	0.0000000E+000	0.0000000E+000	-0.764898	0.0000000E+000	0.0000000E+000	0.0000000E+000	0.764898	74.902	0.764898	-0.000218647
447.85	0.224986	0.00297087	0.225006	-0.756526	24.1867	-0.000387204	-0.745847	119620	20.8536	1	9	0.0106289	0.0472382	0	-0.0069777	4.44394	0.0586806	4.44432	0.756526	20853.5	1.57927e+06	1.5794e+06	-89.2435	0.0000000E+000	0.0000000E+000	0.0000000E+000	89.2435	0.0000000E+000	0.0000000E+000	0.0000000E+000	-89.2435	0.0000000E+000	0.0000000E+000	0.0000000E+000	-0.756526	0.0000000E+000	0.0000000E+000	0.0000000E+000	0.756526	75.7309	0.756526	-0.000258668
334.679	0.225545	0.00304356	0.225566	-0.773115	25.303	-0.00039404	-0.744709	156247	28.4464	1	9	0.0106371	0.0471574	0	-0.00721197	4.43289	0.0598184	4.4333	0.773115	28446.5	2.10804e+06	2.10823e+06	-89.2269	0.0000000E+000	0.0000000E+000	0.0000000E+000	89.2269	0.0000000E+000	0.0000000E+000	0.0000000E+000	-89.2269	0.0000000E+000	0.0000000E+000	0.0000000E+000	-0.773115	0.0000000E+000	0.0000000E+000	0.0000000E+000	0.773115	74.1058	0.773115	-0.000234274
250.401	0.225978	0.00312848	0.226	-0.793161	26.4184	-0.000389849	-0.732101	203166	38.9315	1	9	0.010638	0.047071	0	-0.0074623	4.42435	0.0612514	4.42478	0.793161	38931.4	2.81213e+06	2.81239e+06	-89.2068	0.0000000E+000	0.0000000E+000	0.0000000E+000	89.2068	0.0000000E+000	0.0000000E+000	0.0000000E+000	-89.2068	0.0000000E+000	0.0000000E+000	0.0000000E+000	-0.793161	0.0000000E+000	0.0000000E+000	0.0000000E+000	0.793161	72.2327	0.793161	-0.000250325
187.217	0.226516	0.00309161	0.226537	-0.781954	27.5224	-0.000396238	-0.748346	274974	51.2131	1	9	0.0106412	0.0469735	0	-0.00768279	4.41388	0.0602429	4.41429	0.781954	51213	3.75228e+06	3.75263e+06	-89.218	0.0000000E+000	0.0000000E+000	0.0000000E+000	89.218	0.0000000E+000	0.0000000E+000	0.0000000E+000	-89.218	0.0000000E+000	0.0000000E+000	0.0000000E+000	-0.781954	0.0000000E+000	0.0000000E+000	0.0000000E+000	0.781954	73.268	0.781954	-0.000220496
140.045	0.226944	0.00343839	0.22697	-0.868014	28.6377	-0.000404379	-0.738461	330520	75.853	1	9	0.0106384	0.0468713	0	-0.00794358	4.40537	0.0667451	4.40587	0.868014	75852.8	5.00651e+06	5.00709e+06	-89.132	0.0000000E+000	0.0000000E+000	0.0000000E+000	89.132	0.0000000E+000	0.0000000E+000	0.0000000E+000	-89.132	0.0000000E+000	0.0000000E+000	0.0000000E+000	-0.868014	0.0000000E+000	0.0000000E+000	0.0000000E+000	0.868014	66.0029	0.868014	-0.00026079
104.765	0.227465	0.00369549	0.227495	-0.93077	29.7572	-0.000392084	-0.725182	411084	108.475	1	9	0.0106386	0.0467643	0	-0.00819684	4.39512	0.0714051	4.3957	0.93077	108476	6.67688e+06	6.67776e+06	-89.0692	0.0000000E+000	0.0000000E+000	0.0000000E+000	89.0692	0.0000000E+000	0.0000000E+000	0.0000000E+000	-89.0692	0.0000000E+000	0.0000000E+000	0.0000000E+000	-0.93077	0.0000000E+000	0.0000000E+000	0.0000000E+000	0.93077	61.552	0.93077	-0.000253254
78.3208	0.228105	0.00409187	0.228142	-1.02769	30.8941	-0.000386756	-0.716827	496617	159.755	1	9	0.0106431	0.0466514	0	-0.00842926	4.38253	0.0786161	4.38324	1.02769	159756	8.9057e+06	8.90714e+06	-88.9723	0.0000000E+000	0.0000000E+000	0.0000000E+000	88.9723	0.0000000E+000	0.0000000E+000	0.0000000E+000	-88.9723	0.0000000E+000	0.0000000E+000	0.0000000E+000	-1.02769	0.0000000E+000	0.0000000E+000	0.0000000E+000	1.02769	55.746	1.02769	-0.000232419
58.5938	0.228654	0.00446014	0.228698	-1.11747	32.0346	-0.000383552	-0.700844	609005	231.629	1	9	0.0106375	0.0465134	0	-0.00863835	4.37175	0.0852756	4.37258	1.11747	231629	1.18747e+07	1.1877e+07	-88.8825	0.0000000E+000	0.0000000E+000	0.0000000E+000	88.8825	0.0000000E+000	0.0000000E+000	0.0000000E+000	-88.8825	0.0000000E+000	0.0000000E+000	0.0000000E+000	-1.11747	0.0000000E+000	0.0000000E+000	0.0000000E+000	1.11747	51.2662	1.11747	-0.000209092
43.7811	0.229355	0.00492005	0.229408	-1.2289	33.1783	-0.000382174	-0.707744	738863	339.848	1	9	0.0106393	0.0463771	0	-0.00887481	4.35804	0.0934871	4.35904	1.2289	339847	1.58425e+07	1.58462e+07	-88.7711	0.0000000E+000	0.0000000E+000	0.0000000E+000	88.7711	0.0000000E+000	0.0000000E+000	0.0000000E+000	-88.7711	0.0000000E+000	0.0000000E+000	0.0000000E+000	-1.2289	0.0000000E+000	0.0000000E+000	0.0000000E+000	1.2289	46.6165	1.2289	-0.000236465
32.747	0.230048	0.00540192	0.230112	-1.34515	34.3635	-0.000383031	-0.70573	899706	495.815	1	9	0.0106347	0.0462153	0	-0.00906218	4.34452	0.102017	4.34572	1.34515	495815	2.1115e+07	2.11208e+07	-88.6548	0.0000000E+000	0.0000000E+000	0.0000000E+000	88.6548	0.0000000E+000	0.0000000E+000	0.0000000E+000	-88.6548	0.0000000E+000	0.0000000E+000	0.0000000E+000	-1.34515	0.0000000E+000	0.0000000E+000	0.0000000E+000	1.34515	42.5864	1.34515	-0.000187369
24.506	0.231038	0.00625	0.231122	-1.54958	35.4988	-0.000388359	-0.733202	1.03913e+06	759.881	1	9	0.0106416	0.0460432	0	-0.00919131	4.32513	0.117003	4.32672	1.54958	759882	2.80898e+07	2.81e+07	-88.4504	0.0000000E+000	0.0000000E+000	0.0000000E+000	88.4504	0.0000000E+000	0.0000000E+000	0.0000000E+000	-88.4504	0.0000000E+000	0.0000000E+000	0.0000000E+000	-1.54958	0.0000000E+000	0.0000000E+000	0.0000000E+000	1.54958	36.966	1.54958	-0.000129127
18.3392	0.231931	0.00705094	0.232038	-1.74131	36.7059	-0.00038508	-0.744783	1.23082e+06	1136.49	1	9	0.0106375	0.0458438	0	-0.00949202	4.30764	0.130957	4.30963	1.74131	1.13649e+06	3.73834e+07	3.74007e+07	-88.2587	0.0000000E+000	0.0000000E+000	0.0000000E+000	88.2587	0.0000000E+000	0.0000000E+000	0.0000000E+000	-88.2587	0.0000000E+000	0.0000000E+000	0.0000000E+000	-1.74131	0.0000000E+000	0.0000000E+000	0.0000000E+000	1.74131	32.8937	1.74131	-0.000300707
13.6901	0.233027	0.00800721	0.233164	-1.96801	37.9169	-0.000392149	-0.75326	1.45188e+06	1712.26	1	9	0.010637	0.04562	0	-0.0096146	4.28629	0.147285	4.28882	1.96801	1.71226e+06	4.98304e+07	4.98598e+07	-88.032	0.0000000E+000	0.0000000E+000	0.0000000E+000	88.032	0.0000000E+000	0.0000000E+000	0.0000000E+000	-88.032	0.0000000E+000	0.0000000E+000	0.0000000E+000	-1.96801	0.0000000E+000	0.0000000E+000	0.0000000E+000	1.96801	29.1021	1.96801	-0.000122579
10.2392	0.234349	0.00919665	0.234529	-2.24733	39.0101	-0.000394171	-0.728017	1.69015e+06	2598.91	1	9	0.0106389	0.0453628	0	-0.0097895	4.26058	0.1672	4.26386	2.24733	2.59891e+06	6.62253e+07	6.62762e+07	-87.7527	0.0000000E+000	0.0000000E+000	0.0000000E+000	87.7527	0.0000000E+000	0.0000000E+000	0.0000000E+000	-87.7527	0.0000000E+000	0.0000000E+000	0.0000000E+000	-2.24733	0.0000000E+000	0.0000000E+000	0.0000000E+000	2.24733	25.482	2.24733	-0.000174907
7.65931	0.235824	0.0104887	0.236057	-2.54666	40.4329	-0.000389616	-0.705842	1.98111e+06	3911.29	1	9	0.0106398	0.0450729	0	-0.0100261	4.23209	0.18823	4.23627	2.54666	3.91129e+06	8.79397e+07	8.80266e+07	-87.4533	0.0000000E+000	0.0000000E+000	0.0000000E+000	87.4533	0.0000000E+000	0.0000000E+000	0.0000000E+000	-87.4533	0.0000000E+000	0.0000000E+000	0.0000000E+000	-2.54666	0.0000000E+000	0.0000000E+000	0.0000000E+000	2.54666	22.4835	2.54666	-0.000236557
5.72764	0.237483	0.0120766	0.237789	-2.91113	41.4233	-0.000402665	-0.733463	2.30091e+06	5934.76	1	9	0.0106386	0.0447396	0	-0.0107302	4.19998	0.213579	4.2054	2.91113	5.93476e+06	1.16705e+08	1.16856e+08	-87.0889	0.0000000E+000	0.0000000E+000	0.0000000E+000	87.0889	0.0000000E+000	0.0000000E+000	0.0000000E+000	-87.0889	0.0000000E+000	0.0000000E+000	0.0000000E+000	-2.91113	0.0000000E+000	0.0000000E+000	0.0000000E+000	2.91113	19.6647	2.91113	-0.000704177
4.28317	0.239338	0.0138994	0.239742	-3.32368	42.7083	-0.00037937	-0.718673	2.67337e+06	8985.96	1	9	0.0106378	0.044372	0	-0.0105283	4.16414	0.24183	4.17116	3.32368	8.98596e+06	1.54732e+08	1.54993e+08	-86.6763	0.0000000E+000	0.0000000E+000	0.0000000E+000	86.6763	0.0000000E+000	0.0000000E+000	0.0000000E+000	-86.6763	0.0000000E+000	0.0000000E+000	0.0000000E+000	-3.32368	0.0000000E+000	0.0000000E+000	0.0000000E+000	3.32368	17.2193	3.32368	0.000201959
3.20184	0.241453	0.0160033	0.241983	-3.79197	44.3892	-0.000388209	-0.6908	3.10607e+06	13585	1	9	0.0106349	0.0439489	0	-0.0116771	4.12348	0.273301	4.13253	3.79197	1.3585e+07	2.04967e+08	2.05417e+08	-86.208	0.0000000E+000	0.0000000E+000	0.0000000E+000	86.208	0.0000000E+000	0.0000000E+000	0.0000000E+000	-86.208	0.0000000E+000	0.0000000E+000	0.0000000E+000	-3.79197	0.0000000E+000	0.0000000E+000	0.0000000E+000	3.79197	15.0877	3.79197	-0.00114883
2.39794	0.244115	0.0185183	0.244817	-4.33809	46.5989	-0.000384931	-0.718977	3.5841e+06	20506.9	1	9	0.0106379	0.0434526	0	-0.0109288	4.07299	0.308972	4.08469	4.33809	2.05069e+07	2.7033e+08	2.71107e+08	-85.6619	0.0000000E+000	0.0000000E+000	0.0000000E+000	85.6619	0.0000000E+000	0.0000000E+000	0.0000000E+000	-85.6619	0.0000000E+000	0.0000000E+000	0.0000000E+000	-4.33809	0.0000000E+000	0.0000000E+000	0.0000000E+000	4.33809	13.1824	4.33809	0.000748327
1.79186	0.247357	0.021177	0.248262	-4.89333	49.5261	-0.00037154	-0.70314	4.19423e+06	30518.3	1	9	0.0106386	0.0428524	0	-0.011318	4.01332	0.343592	4.028	4.89333	3.05183e+07	3.56468e+08	3.57772e+08	-85.1067	0.0000000E+000	0.0000000E+000	0.0000000E+000	85.1067	0.0000000E+000	0.0000000E+000	0.0000000E+000	-85.1067	0.0000000E+000	0.0000000E+000	0.0000000E+000	-4.89333	0.0000000E+000	0.0000000E+000	0.0000000E+000	4.89333	11.6805	4.89333	-0.000389205
1.33959	0.250679	0.0244996	0.251873	-5.58196	53.4127	-0.000376638	-0.613473	4.84941e+06	45882.1	1	9	0.0106396	0.0422419	0	-0.0135432	3.95143	0.386185	3.97026	5.58196	4.58821e+07	4.69464e+08	4.717e+08	-84.418	0.0000000E+000	0.0000000E+000	0.0000000E+000	84.418	0.0000000E+000	0.0000000E+000	0.0000000E+000	-84.418	0.0000000E+000	0.0000000E+000	0.0000000E+000	-5.58196	0.0000000E+000	0.0000000E+000	0.0000000E+000	5.58196	10.232	5.58196	-0.0022252
1.00237	0.254759	0.0279632	0.256289	-6.2639	59.6239	-0.000372416	-0.751329	5.67811e+06	67595.5	1	10	0.0106375	0.0415059	0	-0.0156676	3.87855	0.425723	3.90185	6.2639	6.75955e+07	6.15829e+08	6.19528e+08	-83.7361	0.0000000E+000	0.0000000E+000	0.0000000E+000	83.7361	0.0000000E+000	0.0000000E+000	0.0000000E+000	-83.7361	0.0000000E+000	0.0000000E+000	0.0000000E+000	-6.2639	0.0000000E+000	0.0000000E+000	0.0000000E+000	6.2639	9.11051	6.2639	-0.00212442
0.750048	0.259573	0.0320165	0.26154	-7.03151	66.5017	-0.000378949	-0.947025	6.62761e+06	99317.9	1	10	0.0106388	0.0406776	0	-0.0156967	3.79475	0.468055	3.8235	7.03151	9.93179e+07	8.05218e+08	8.1132e+08	-82.9685	0.0000000E+000	0.0000000E+000	0.0000000E+000	82.9685	0.0000000E+000	0.0000000E+000	0.0000000E+000	-82.9685	0.0000000E+000	0.0000000E+000	0.0000000E+000	-7.03151	0.0000000E+000	0.0000000E+000	0.0000000E+000	7.03151	8.10748	7.03151	-2.90533e-05
0.559956	0.264935	0.0362852	0.267409	-7.79864	75.6895	-0.000373141	-0.697347	7.83316e+06	144227	1	10	0.0106361	0.0397748	0	-0.0151157	3.70501	0.507434	3.7396	7.79864	1.44227e+08	1.05307e+09	1.0629e+09	-82.2014	0.0000000E+000	0.0000000E+000	0.0000000E+000	82.2014	0.0000000E+000	0.0000000E+000	0.0000000E+000	-82.2014	0.0000000E+000	0.0000000E+000	0.0000000E+000	-7.79864	0.0000000E+000	0.0000000E+000	0.0000000E+000	7.79864	7.30147	7.79864	0.000580906
0.418766	0.271696	0.0409692	0.274768	-8.57506	87.9481	-0.000380452	-0.718502	9.27664e+06	206241	1	10	0.0106359	0.0387089	0	-0.0160108	3.59875	0.542658	3.63944	8.57506	2.06241e+08	1.36773e+09	1.38319e+09	-81.4249	0.0000000E+000	0.0000000E+000	0.0000000E+000	81.4249	0.0000000E+000	0.0000000E+000	0.0000000E+000	-81.4249	0.0000000E+000	0.0000000E+000	0.0000000E+000	-8.57506	0.0000000E+000	0.0000000E+000	0.0000000E+000	8.57506	6.63172	8.57506	-0.000895062
0.313252	0.277701	0.0464858	0.281565	-9.50292	104.312	-0.000373531	-0.703278	1.09296e+07	297913	1	10	0.0106401	0.0377891	0	-0.0206448	3.50284	0.586358	3.55158	9.50292	2.97913e+08	1.7797e+09	1.80446e+09	-80.4971	0.0000000E+000	0.0000000E+000	0.0000000E+000	80.4971	0.0000000E+000	0.0000000E+000	0.0000000E+000	-80.4971	0.0000000E+000	0.0000000E+000	0.0000000E+000	-9.50292	0.0000000E+000	0.0000000E+000	0.0000000E+000	9.50292	5.97389	9.50292	-0.00463397
0.234567	0.284155	0.0522538	0.28892	-10.4198	126.142	-0.000373295	-0.72688	1.29848e+07	424733	1	10	0.0106391	0.0368237	0	-0.0295252	3.40409	0.625985	3.46117	10.4198	4.24734e+08	2.30969e+09	2.34842e+09	-79.5802	0.0000000E+000	0.0000000E+000	0.0000000E+000	79.5802	0.0000000E+000	0.0000000E+000	0.0000000E+000	-79.5802	0.0000000E+000	0.0000000E+000	0.0000000E+000	-10.4198	0.0000000E+000	0.0000000E+000	0.0000000E+000	10.4198	5.43798	10.4198	-0.00888043
0.175514	0.291114	0.0594951	0.297131	-11.5505	155.295	-0.000373007	-0.687745	1.52414e+07	611070	1	10	0.0106372	0.0357998	0	-0.0410583	3.29736	0.673882	3.36551	11.5505	6.1107e+08	2.99002e+09	3.05182e+09	-78.4495	0.0000000E+000	0.0000000E+000	0.0000000E+000	78.4495	0.0000000E+000	0.0000000E+000	0.0000000E+000	-78.4495	0.0000000E+000	0.0000000E+000	0.0000000E+000	-11.5505	0.0000000E+000	0.0000000E+000	0.0000000E+000	11.5505	4.89308	11.5505	-0.0115331
0.130994	0.298762	0.0699393	0.306839	-13.1755	194.333	-0.000376825	-0.662082	1.73719e+07	902541	1	10	0.0106387	0.0346718	0	-0.0515784	3.17324	0.742846	3.25903	13.1755	9.02541e+08	3.85542e+09	3.95965e+09	-76.8245	0.0000000E+000	0.0000000E+000	0.0000000E+000	76.8245	0.0000000E+000	0.0000000E+000	0.0000000E+000	-76.8245	0.0000000E+000	0.0000000E+000	0.0000000E+000	-13.1755	0.0000000E+000	0.0000000E+000	0.0000000E+000	13.1755	4.27174	13.1755	-0.0105201
0.0980091	0.307051	0.0840051	0.318335	-15.301	246.487	-0.000375384	-0.635154	1.93307e+07	1.34614e+06	1	10	0.0106398	0.0334234	0	-0.0572832	3.03	0.828968	3.14135	15.301	1.34614e+09	4.92035e+09	5.10117e+09	-74.699	0.0000000E+000	0.0000000E+000	0.0000000E+000	74.699	0.0000000E+000	0.0000000E+000	0.0000000E+000	-74.699	0.0000000E+000	0.0000000E+000	0.0000000E+000	-15.301	0.0000000E+000	0.0000000E+000	0.0000000E+000	15.301	3.65514	15.301	-0.00570477
0.0732907	0.317714	0.101501	0.333534	-17.7173	316.211	-0.000373035	-0.621908	2.13943e+07	1.98136e+06	1	10	0.0106386	0.0318966	0	-0.0573463	2.85599	0.912414	2.99819	17.7173	1.98136e+09	6.20194e+09	6.51075e+09	-72.2827	0.0000000E+000	0.0000000E+000	0.0000000E+000	72.2827	0.0000000E+000	0.0000000E+000	0.0000000E+000	-72.2827	0.0000000E+000	0.0000000E+000	0.0000000E+000	-17.7173	0.0000000E+000	0.0000000E+000	0.0000000E+000	17.7173	3.13014	17.7173	-6.30785e-05
0.0547723	0.333653	0.12352	0.355783	-20.3148	409.486	-0.000374506	-0.593777	2.35246e+07	2.83548e+06	1	10	0.010635	0.0298919	0	-0.0570249	2.63587	0.975813	2.8107	20.3148	2.83548e+09	7.6592e+09	8.16721e+09	-69.6852	0.0000000E+000	0.0000000E+000	0.0000000E+000	69.6852	0.0000000E+000	0.0000000E+000	0.0000000E+000	-69.6852	0.0000000E+000	0.0000000E+000	0.0000000E+000	-20.3148	0.0000000E+000	0.0000000E+000	0.0000000E+000	20.3148	2.70121	20.3148	0.000321394
0.040958	0.356649	0.150662	0.387166	-22.901	534.201	-0.000374766	-0.574739	2.57916e+07	3.90561e+06	1	10	0.010635	0.0274689	0	-0.0672377	2.37928	1.0051	2.58287	22.901	3.90561e+09	9.24543e+09	1.00365e+10	-67.099	0.0000000E+000	0.0000000E+000	0.0000000E+000	67.099	0.0000000E+000	0.0000000E+000	0.0000000E+000	-67.099	0.0000000E+000	0.0000000E+000	0.0000000E+000	-22.901	0.0000000E+000	0.0000000E+000	0.0000000E+000	22.901	2.36722	22.901	-0.0102128
0.0306507	0.388254	0.180867	0.428315	-24.9783	700.834	-0.000371771	-0.57013	2.87092e+07	5.11931e+06	1	10	0.01064	0.0248416	0	-0.101666	2.11636	0.985898	2.33473	24.9783	5.11931e+09	1.09893e+10	1.21232e+10	-65.0217	0.0000000E+000	0.0000000E+000	0.0000000E+000	65.0217	0.0000000E+000	0.0000000E+000	0.0000000E+000	-65.0217	0.0000000E+000	0.0000000E+000	0.0000000E+000	-24.9783	0.0000000E+000	0.0000000E+000	0.0000000E+000	24.9783	2.14663	24.9783	-0.0344287
0.0229122	0.433908	0.208551	0.481425	-25.6705	923.726	-0.00037275	-0.523653	3.33075e+07	6.25042e+06	1	10	0.0106376	0.0220961	0	-0.162484	1.87215	0.899819	2.07717	25.6705	6.25042e+09	1.30045e+10	1.44286e+10	-64.3295	0.0000000E+000	0.0000000E+000	0.0000000E+000	64.3295	0.0000000E+000	0.0000000E+000	0.0000000E+000	-64.3295	0.0000000E+000	0.0000000E+000	0.0000000E+000	-25.6705	0.0000000E+000	0.0000000E+000	0.0000000E+000	25.6705	2.08059	25.6705	-0.0608175
0.0171417	0.492633	0.227424	0.542595	-24.7804	1221.63	-0.000373225	-0.523757	4.08253e+07	7.17218e+06	1	10	0.0106388	0.0196073	0	-0.240158	1.67329	0.772476	1.84299	24.7804	7.17218e+09	1.5536e+10	1.71116e+10	-65.2196	0.0000000E+000	0.0000000E+000	0.0000000E+000	65.2196	0.0000000E+000	0.0000000E+000	0.0000000E+000	-65.2196	0.0000000E+000	0.0000000E+000	0.0000000E+000	-24.7804	0.0000000E+000	0.0000000E+000	0.0000000E+000	24.7804	2.16614	24.7804	-0.0776745
0.0128333	0.558787	0.231565	0.604868	-22.5094	1619.53	-0.000375226	-0.508868	5.3556e+07	7.84932e+06	1	10	0.0106384	0.0175879	0	-0.321931	1.5273	0.632924	1.65325	22.5094	7.84932e+09	1.89411e+10	2.05031e+10	-67.4906	0.0000000E+000	0.0000000E+000	0.0000000E+000	67.4906	0.0000000E+000	0.0000000E+000	0.0000000E+000	-67.4906	0.0000000E+000	0.0000000E+000	0.0000000E+000	-22.5094	0.0000000E+000	0.0000000E+000	0.0000000E+000	22.5094	2.41309	22.5094	-0.0817728
0.00959514	0.622969	0.215354	0.659142	-19.0698	2151.68	-0.000370198	-0.509732	7.70221e+07	8.22175e+06	1	10	0.0106381	0.0161393	0	-0.397475	1.43387	0.495673	1.51712	19.0698	8.22175e+09	2.37836e+10	2.51646e+10	-70.9302	0.0000000E+000	0.0000000E+000	0.0000000E+000	70.9302	0.0000000E+000	0.0000000E+000	0.0000000E+000	-70.9302	0.0000000E+000	0.0000000E+000	0.0000000E+000	-19.0698	0.0000000E+000	0.0000000E+000	0.0000000E+000	19.0698	2.89277	19.0698	-0.0755435
0.00717595	0.671895	0.18536	0.696994	-15.423	2863.22	-0.000371429	-0.49516	1.19653e+08	8.46251e+06	1	10	0.0106389	0.015264	0	-0.462543	1.38307	0.381556	1.43473	15.423	8.46251e+09	3.06749e+10	3.18208e+10	-74.577	0.0000000E+000	0.0000000E+000	0.0000000E+000	74.577	0.0000000E+000	0.0000000E+000	0.0000000E+000	-74.577	0.0000000E+000	0.0000000E+000	0.0000000E+000	-15.423	0.0000000E+000	0.0000000E+000	0.0000000E+000	15.423	3.6248	15.423	-0.065068
0.0053664	0.704742	0.154347	0.721446	-12.3534	3814.67	-0.000379666	-0.498971	1.9215e+08	8.79482e+06	1	10	0.0106411	0.0147497	0	-0.525929	1.35401	0.296544	1.3861	12.3534	8.79482e+09	4.01568e+10	4.11087e+10	-77.6466	0.0000000E+000	0.0000000E+000	0.0000000E+000	77.6466	0.0000000E+000	0.0000000E+000	0.0000000E+000	-77.6466	0.0000000E+000	0.0000000E+000	0.0000000E+000	-12.3534	0.0000000E+000	0.0000000E+000	0.0000000E+000	12.3534	4.56597	12.3534	-0.0633859
0.00401319	0.726098	0.125528	0.736868	-9.80835	5086.92	-0.000382608	-0.508505	3.15929e+08	9.16833e+06	1	10	0.0106366	0.0144349	0	-0.604324	1.33726	0.231185	1.35709	9.80835	9.16833e+09	5.30329e+10	5.38196e+10	-80.1916	0.0000000E+000	0.0000000E+000	0.0000000E+000	80.1916	0.0000000E+000	0.0000000E+000	0.0000000E+000	-80.1916	0.0000000E+000	0.0000000E+000	0.0000000E+000	-9.80835	0.0000000E+000	0.0000000E+000	0.0000000E+000	9.80835	5.78436	9.80835	-0.0783949
0.00300081	0.741048	0.100861	0.74788	-7.7507	6788.37	-0.000377524	-0.507333	5.25844e+08	9.56407e+06	1	10	0.0106373	0.0142232	0	-0.758205	1.3249	0.180327	1.33711	7.7507	9.56407e+09	7.0269e+10	7.09169e+10	-82.2493	0.0000000E+000	0.0000000E+000	0.0000000E+000	82.2493	0.0000000E+000	0.0000000E+000	0.0000000E+000	-82.2493	0.0000000E+000	0.0000000E+000	0.0000000E+000	-7.7507	0.0000000E+000	0.0000000E+000	0.0000000E+000	7.7507	7.34718	7.7507	-0.153882