File: Python/Experiments/IRFB/240503-Felt-1p5M_FeCl2FeCl3-1M_HCl/Data/240503-EIS-Felt-1p5M_FeCl2FeCl3-1M_HCl-10mLmin-20mHz_10ppd-Warmup_C15.mpt
EC-Lab ASCII FILE
Nb header lines : 66

Potentio Electrochemical Impedance Spectroscopy

Run on channel : 15 (SN 19485)
User :
Electrode connection : standard
Potential control : Ewe
Ewe ctrl range : min = -1.00 V, max = 1.00 V
Ewe,I filtering : <None>
Safety Limits :
	Do not start on E overload
Channel : Floating
Acquisition started on : 05/03/2024 11:49:26.278
Loaded Setting File :  C:\Data\mathias\IRFB\240418-EIS-Cloth2-0p5M_FeCl2FeCl3-1M_HCl-20mLmin-25mHz_10ppd-Warmup_C15.mpr
Saved on :
	File : 240503-EIS-Felt-1p5M_FeCl2FeCl3-1M_HCl-10mLmin-20mHz_10ppd-Warmup_C15.mpr
	Directory : C:\Data\mathias\IRFB\
	Host : 192.168.0.1
Device : VMP-300 (SN 0826)
Address : USB
EC-Lab for windows v11.52 (software)
Internet server v11.52 (firmware)
Command interpretor v11.52 (firmware)
Electrode material :
Initial state :
Electrolyte :
Comments :
Cable : special
Electrode surface area : 0.001 cm²
Characteristic mass : 0.001 g
Equivalent Weight : 0.000 g/eq.
Density : 0.000 g/cm3
Volume (V) : 0.001 cm³
Record EIS quality indicators
Cycle Definition : Charge/Discharge alternance
Mode                Single sine
E (V)               0.0000
vs.                 Eoc
tE (h:m:s)          0:00:0.0000
record              0
dI                  0.000
unit dI             mA
dt (s)              0.000
fi                  220.000
unit fi             kHz
ff                  20.000
unit ff             mHz
Nd                  10
Points              per decade
spacing             Logarithmic
Va (mV)             5.0
pw                  0.10
Na                  3
corr                1
E range min (V)     -1.000
E range max (V)     1.000
I Range             Auto
Bandwidth           8
nc cycles           2
goto Ns'            0
nr cycles           999
inc. cycle          1

freq/Hz	Re(Z)/Ohm	-Im(Z)/Ohm	|Z|/Ohm	Phase(Z)/deg	time/s	<Ewe>/V	<I>/mA	Cs/µF	Cp/µF	cycle number	I Range	|Ewe|/V	|I|/A	Ns	(Q-Qo)/mA.h	THD Ewe/%	NSD Ewe/%	NSR Ewe/%	|Ewe h2|/V	|Ewe h3|/V	|Ewe h4|/V	|Ewe h5|/V	|Ewe h6|/V	|Ewe h7|/V	THD I/%	NSD I/%	NSR I/%	|I h2|/A	|I h3|/A	|I h4|/A	|I h5|/A	|I h6|/A	|I h7|/A	Re(Y)/Ohm-1	Im(Y)/Ohm-1	|Y|/Ohm-1	Phase(Y)/deg	Re(C)/nF	Im(C)/nF	|C|/nF	Phase(C)/deg	Re(M)	Im(M)	|M|	Phase(M)/deg	Re(Permittivity)	Im(Permittivity)	|Permittivity|	Phase(Permittivity)/deg	Re(Resistivity)/Ohm.cm	Im(Resistivity)/Ohm.cm	|Resistivity|/Ohm.cm	Phase(Resistivity)/deg	Re(Conductivity)/mS/cm	Im(Conductivity)/mS/cm	|Conductivity|/mS/cm	Phase(Conductivity)/deg	Tan(Delta)	Loss Angle(Delta)/deg	dq/mA.h
220003	0.0869741	-0.0165405	0.088533	10.7678	1.86248	-0.000411326	-2.85661	-43.7365	-1.52662	1	37	0.00312453	0.0352923	0	-0.00145411	-1	-1	-1	0	0	0	0	0	0	-1	-1	-1	0	0	0	0	0	0	11.0963	-2.11027	11.2952	-10.7678	-1526.62	8027.35	8171.23	-100.768	0.0000000E+000	0.0000000E+000	0.0000000E+000	100.768	0.0000000E+000	0.0000000E+000	0.0000000E+000	-100.768	0.0000000E+000	0.0000000E+000	0.0000000E+000	10.7678	0.0000000E+000	0.0000000E+000	0.0000000E+000	-10.7678	5.25826	79.2322	-0.00145411
87106.6	0.0931111	-0.00375271	0.0931867	2.30797	6.42048	-0.000415799	-2.67182	-486.883	-0.789598	1	37	0.00522612	0.0560823	0	-0.00475483	0.362042	0.217429	6.71479	4.27974e-06	9.05742e-06	6.05665e-06	1.10062e-05	6.67997e-06	4.1242e-06	0.0847711	0.0242971	0.429166	1.06727e-05	4.72079e-05	4.39533e-06	4.01699e-06	4.24886e-06	5.11525e-06	10.7224	-0.432153	10.7312	-2.30797	-789.599	19591.3	19607.2	-92.308	0.0000000E+000	0.0000000E+000	0.0000000E+000	92.308	0.0000000E+000	0.0000000E+000	0.0000000E+000	-92.308	0.0000000E+000	0.0000000E+000	0.0000000E+000	2.30797	0.0000000E+000	0.0000000E+000	0.0000000E+000	-2.30797	24.8117	87.692	-0.000749458
34488.2	0.0964331	0.00173033	0.0964487	-1.02797	11.1215	-0.000429146	-2.65256	2666.98	0.858394	1	37	0.00518429	0.0537519	0	-0.00790704	0.407024	0.137428	6.71099	8.87289e-06	7.18643e-06	3.04773e-06	1.10661e-05	9.17251e-06	8.43256e-06	0.111364	0.0553436	0.44971	8.22925e-06	5.58282e-05	4.27022e-06	8.02089e-06	3.31528e-06	3.628e-06	10.3665	0.18601	10.3682	1.02797	858.396	47839.2	47846.9	-88.972	0.0000000E+000	0.0000000E+000	0.0000000E+000	88.972	0.0000000E+000	0.0000000E+000	0.0000000E+000	-88.972	0.0000000E+000	0.0000000E+000	0.0000000E+000	-1.02797	0.0000000E+000	0.0000000E+000	0.0000000E+000	1.02797	55.731	88.972	-0.000823699
13658	0.0999368	0.00318659	0.0999876	-1.82632	15.8215	-0.000418018	-2.50452	3656.86	3.71423	1	37	0.00515174	0.0515238	0	-0.0112019	0.340004	0.157428	6.84497	6.20313e-06	5.56181e-06	6.24638e-06	9.27976e-06	6.94804e-06	4.40285e-06	0.101733	0.0118496	0.472807	7.85405e-06	4.89995e-05	4.07988e-06	6.29788e-06	4.27775e-06	4.06772e-06	9.99616	0.318738	10.0012	1.82632	3714.22	116484	116544	-88.1737	0.0000000E+000	0.0000000E+000	0.0000000E+000	88.1737	0.0000000E+000	0.0000000E+000	0.0000000E+000	-88.1737	0.0000000E+000	0.0000000E+000	0.0000000E+000	-1.82632	0.0000000E+000	0.0000000E+000	0.0000000E+000	1.82632	31.3617	88.1737	-0.000851545
5406.63	0.102401	0.00311237	0.102448	-1.74091	20.7497	-0.000548186	-3.33505	9458.08	8.72923	1	37	0.00517708	0.0505336	0	-0.0154415	0.339603	0.22655	6.7865	6.53849e-06	1.02499e-05	6.83376e-06	3.46508e-06	5.70922e-06	5.74623e-06	0.106313	0.100108	0.501832	7.1738e-06	5.34807e-05	1.8054e-05	1.17831e-05	6.66297e-06	6.43073e-06	9.75652	0.296539	9.76103	1.74091	8729.21	287203	287336	-88.2591	0.0000000E+000	0.0000000E+000	0.0000000E+000	88.2591	0.0000000E+000	0.0000000E+000	0.0000000E+000	-88.2591	0.0000000E+000	0.0000000E+000	0.0000000E+000	-1.74091	0.0000000E+000	0.0000000E+000	0.0000000E+000	1.74091	32.9013	88.2591	-0.00115958
2140.69	0.104214	0.00260637	0.104246	-1.43266	26.1397	-0.000536964	-3.35941	28525.4	17.8312	1	37	0.00516321	0.0495289	0	-0.0203522	0.400329	0.145405	6.78586	6.09199e-06	8.89248e-06	9.02663e-06	9.80233e-06	7.06492e-06	5.26912e-06	0.0629504	0.0224916	0.504556	1.09734e-05	2.76352e-05	2.30594e-06	5.45626e-06	7.5901e-06	6.05007e-06	9.58966	0.239835	9.59266	1.43266	17831.2	712968	713191	-88.5673	0.0000000E+000	0.0000000E+000	0.0000000E+000	88.5673	0.0000000E+000	0.0000000E+000	0.0000000E+000	-88.5673	0.0000000E+000	0.0000000E+000	0.0000000E+000	-1.43266	0.0000000E+000	0.0000000E+000	0.0000000E+000	1.43266	39.9843	88.5673	-0.0011904
847.556	0.105485	0.00214278	0.105507	-1.16372	31.5293	-0.000541792	-3.39023	87634.3	36.1465	1	37	0.0051207	0.0485341	0	-0.0251791	0.437491	0.201629	6.83409	7.67966e-06	6.27059e-06	1.17353e-05	9.85563e-06	6.3331e-06	7.64034e-06	0.0399151	0.101	0.514193	8.22916e-06	4.71785e-06	6.41868e-06	1.27158e-05	5.82141e-06	3.20739e-06	9.47608	0.192493	9.47804	1.16372	36146.5	1.77943e+06	1.7798e+06	-88.8363	0.0000000E+000	0.0000000E+000	0.0000000E+000	88.8363	0.0000000E+000	0.0000000E+000	0.0000000E+000	-88.8363	0.0000000E+000	0.0000000E+000	0.0000000E+000	-1.16372	0.0000000E+000	0.0000000E+000	0.0000000E+000	1.16372	49.2282	88.8363	-0.00120417
335.537	0.106553	0.00140243	0.106562	-0.754072	36.6935	-0.000534205	-3.31534	338220	58.5807	1	37	0.0053482	0.0501886	0	-0.0299409	0.307548	0.388653	6.60198	7.74453e-06	7.70677e-06	4.71287e-06	4.54878e-06	5.19345e-06	7.80317e-06	0.0651028	0.0172494	0.506764	1.08868e-05	2.07684e-05	5.48685e-06	9.378e-06	4.17924e-06	4.46614e-06	9.38339	0.123502	9.3842	0.754072	58580.9	4.45082e+06	4.4512e+06	-89.2459	0.0000000E+000	0.0000000E+000	0.0000000E+000	89.2459	0.0000000E+000	0.0000000E+000	0.0000000E+000	-89.2459	0.0000000E+000	0.0000000E+000	0.0000000E+000	-0.754072	0.0000000E+000	0.0000000E+000	0.0000000E+000	0.754072	75.9775	89.2459	-0.00101771
132.916	0.106839	0.00107255	0.106844	-0.57517	41.4149	-0.000518789	-3.35472	1.11641e+06	112.501	1	37	0.00547003	0.0511963	0	-0.0342946	0.42405	0.149003	6.41167	1.15301e-05	6.61455e-06	9.71216e-06	1.20816e-05	4.97382e-06	6.39939e-06	0.0878964	0.0342597	0.483221	8.97971e-06	3.38056e-05	4.63353e-06	2.98857e-05	6.32145e-06	6.78576e-06	9.35895	0.093954	9.35942	0.57517	112502	1.12065e+07	1.12071e+07	-89.4248	0.0000000E+000	0.0000000E+000	0.0000000E+000	89.4248	0.0000000E+000	0.0000000E+000	0.0000000E+000	-89.4248	0.0000000E+000	0.0000000E+000	0.0000000E+000	-0.57517	0.0000000E+000	0.0000000E+000	0.0000000E+000	0.57517	99.612	89.4248	-0.00106383
52.6255	0.107711	0.00121949	0.107717	-0.648672	46.1438	-0.000508481	-3.38281	2.47996e+06	317.856	1	37	0.00511649	0.0474992	0	-0.0386005	0.456138	0.159601	6.98345	1.21286e-05	8.92537e-06	3.99111e-06	1.22681e-05	6.10883e-06	7.44551e-06	0.103562	0.130781	0.500431	8.92918e-06	6.48952e-05	7.9527e-06	3.19941e-05	7.45084e-06	8.62584e-06	9.28295	0.105101	9.28355	0.648672	317857	2.80744e+07	2.80762e+07	-89.3513	0.0000000E+000	0.0000000E+000	0.0000000E+000	89.3513	0.0000000E+000	0.0000000E+000	0.0000000E+000	-89.3513	0.0000000E+000	0.0000000E+000	0.0000000E+000	-0.648672	0.0000000E+000	0.0000000E+000	0.0000000E+000	0.648672	88.324	89.3513	-0.0010208
20.8333	0.108207	0.00168404	0.10822	-0.891627	50.5928	-0.000511725	-3.34776	4.53639e+06	1098.49	1	37	0.00512101	0.0473202	0	-0.0427152	0.418839	0.218389	6.96124	8.96514e-06	4.16426e-06	5.16922e-06	7.82525e-06	9.62006e-06	1.12774e-05	0.156595	0.174952	0.483107	4.52332e-05	3.51907e-05	1.86981e-05	3.7521e-05	1.26633e-05	1.57494e-05	9.2393	0.143792	9.24041	0.891627	1.09849e+06	7.05831e+07	7.05916e+07	-89.1084	0.0000000E+000	0.0000000E+000	0.0000000E+000	89.1084	0.0000000E+000	0.0000000E+000	0.0000000E+000	-89.1084	0.0000000E+000	0.0000000E+000	0.0000000E+000	-0.891627	0.0000000E+000	0.0000000E+000	0.0000000E+000	0.891627	64.2546	89.1084	-0.0010339
8.24973	0.109263	0.00177167	0.109278	-0.928949	55.1832	-0.000519843	-3.36057	1.08893e+07	2862.19	1	37	0.00512831	0.0469292	0	-0.0470904	0.281389	0.0987608	4.79963	4.3987e-06	7.5958e-06	8.42355e-06	4.15733e-06	4.62221e-06	3.57842e-06	0.275359	0.153539	0.365452	7.42575e-05	5.43084e-05	1.80207e-05	4.60149e-05	8.48161e-05	1.6088e-05	9.1498	0.148361	9.151	0.928949	2.86219e+06	1.76519e+08	1.76542e+08	-89.0711	0.0000000E+000	0.0000000E+000	0.0000000E+000	89.0711	0.0000000E+000	0.0000000E+000	0.0000000E+000	-89.0711	0.0000000E+000	0.0000000E+000	0.0000000E+000	-0.928949	0.0000000E+000	0.0000000E+000	0.0000000E+000	0.928949	61.6727	89.0711	-0.00116876
3.26541	0.110063	0.0024409	0.110091	-1.27045	62.2865	-0.000514345	-3.48137	1.99679e+07	9815.96	1	37	0.00512582	0.04656	0	-0.0532471	0.211449	0.105664	2.76962	4.52222e-06	5.96063e-06	3.22504e-06	4.40823e-06	3.04375e-06	2.81316e-06	0.230921	0.180921	0.382404	6.59386e-05	4.12581e-05	4.00302e-05	4.15221e-05	2.95163e-05	2.06337e-05	9.0812	0.201396	9.08343	1.27045	9.81597e+06	4.42614e+08	4.42723e+08	-88.7295	0.0000000E+000	0.0000000E+000	0.0000000E+000	88.7295	0.0000000E+000	0.0000000E+000	0.0000000E+000	-88.7295	0.0000000E+000	0.0000000E+000	0.0000000E+000	-1.27045	0.0000000E+000	0.0000000E+000	0.0000000E+000	1.27045	45.0913	88.7295	-0.00179262
1.29325	0.111051	0.00412472	0.111128	-2.12713	77.5871	-0.000512318	-3.35749	2.98362e+07	41104.1	1	37	0.0051251	0.0461189	0	-0.0658499	0.159334	0.0790344	1.58934	3.1246e-06	4.14332e-06	2.46786e-06	2.12631e-06	4.363e-06	1.67957e-06	0.220197	0.296974	0.379306	4.99681e-05	5.72729e-05	1.31159e-05	3.15287e-05	9.17982e-06	9.24482e-06	8.99243	0.334001	8.99863	2.12713	4.11042e+07	1.10666e+09	1.10743e+09	-87.8729	0.0000000E+000	0.0000000E+000	0.0000000E+000	87.8729	0.0000000E+000	0.0000000E+000	0.0000000E+000	-87.8729	0.0000000E+000	0.0000000E+000	0.0000000E+000	-2.12713	0.0000000E+000	0.0000000E+000	0.0000000E+000	2.12713	26.9234	87.8729	-0.0017841
0.511825	0.112824	0.0080971	0.113114	-4.10493	113.799	-0.00051156	-3.40965	3.84033e+07	196785	1	37	0.00512188	0.0452805	0	-0.105477	0.142762	0.069882	0.988301	2.74127e-06	3.71586e-06	1.24658e-06	4.78057e-06	1.39779e-06	8.64038e-07	0.36637	0.612803	0.440009	9.77604e-05	4.55272e-05	4.7415e-05	4.43488e-05	6.21469e-06	1.30323e-05	8.81793	0.632839	8.8406	4.10493	1.96785e+08	2.74198e+09	2.74904e+09	-85.8951	0.0000000E+000	0.0000000E+000	0.0000000E+000	85.8951	0.0000000E+000	0.0000000E+000	0.0000000E+000	-85.8951	0.0000000E+000	0.0000000E+000	0.0000000E+000	-4.10493	0.0000000E+000	0.0000000E+000	0.0000000E+000	4.10493	13.9339	85.8951	-0.0152012
0.202719	0.118155	0.0147897	0.119078	-7.13467	203.1	-0.000519297	-3.36003	5.30844e+07	818887	1	37	0.00511912	0.0429898	0	-0.191345	0.103837	0.116932	0.618567	1.63523e-06	3.87357e-06	6.32602e-07	2.55895e-06	1.2817e-06	1.00257e-06	0.657998	0.122248	0.264048	2.64496e-05	0.000242492	3.94417e-05	0.000116348	1.81963e-05	9.17182e-05	8.33287	1.04303	8.39789	7.13467	8.18888e+08	6.54214e+09	6.59319e+09	-82.8653	0.0000000E+000	0.0000000E+000	0.0000000E+000	82.8653	0.0000000E+000	0.0000000E+000	0.0000000E+000	-82.8653	0.0000000E+000	0.0000000E+000	0.0000000E+000	-7.13467	0.0000000E+000	0.0000000E+000	0.0000000E+000	7.13467	7.98906	82.8653	-0.0370558
0.0802383	0.132596	0.0204553	0.134164	-8.76979	426.708	-0.000509604	-3.37284	9.69689e+07	2.25409e+06	1	37	0.00511242	0.0381057	0	-0.369918	0.0920575	0.0909449	0.402726	2.41433e-06	2.67735e-06	1.02007e-06	2.35013e-06	9.93095e-07	4.4995e-07	0.12122	0.141583	0.923388	4.03708e-05	5.39292e-05	2.50345e-05	2.84447e-05	3.14786e-05	3.96284e-05	7.36641	1.1364	7.45355	8.76979	2.25409e+09	1.46115e+10	1.47843e+10	-81.2302	0.0000000E+000	0.0000000E+000	0.0000000E+000	81.2302	0.0000000E+000	0.0000000E+000	0.0000000E+000	-81.2302	0.0000000E+000	0.0000000E+000	0.0000000E+000	-8.76979	0.0000000E+000	0.0000000E+000	0.0000000E+000	8.76979	6.48221	81.2302	-0.060601
0.0317924	0.146898	0.0143323	0.147595	-5.57251	989.173	-0.000522315	-3.40956	3.49286e+08	3.29358e+06	1	37	0.00510871	0.034613	0	-0.964985	0.122558	0.10168	0.280302	2.2328e-06	4.96977e-06	1.31427e-06	1.95184e-06	1.11358e-06	6.26753e-07	0.166905	0.153415	1.08407	2.48211e-05	3.63555e-05	1.34344e-05	4.13729e-05	1.32286e-05	6.73666e-06	6.74327	0.657917	6.77529	5.57251	3.29357e+09	3.37572e+10	3.39175e+10	-84.4275	0.0000000E+000	0.0000000E+000	0.0000000E+000	84.4275	0.0000000E+000	0.0000000E+000	0.0000000E+000	-84.4275	0.0000000E+000	0.0000000E+000	0.0000000E+000	-5.57251	0.0000000E+000	0.0000000E+000	0.0000000E+000	5.57251	10.2494	84.4275	-0.199386
174510	0.0877755	-0.0143555	0.0889417	9.28836	1539.8	-0.000415594	-4.57032	-63.5304	-1.65503	2	37	0.0044507	0.0500407	0	-1.43271	-1	-1	-1	0	0	0	0	0	0	-1	-1	-1	0	0	0	0	0	0	11.0959	-1.81471	11.2433	-9.28836	-1655.03	10119.6	10254	-99.2884	0.0000000E+000	0.0000000E+000	0.0000000E+000	99.2884	0.0000000E+000	0.0000000E+000	0.0000000E+000	-99.2884	0.0000000E+000	0.0000000E+000	0.0000000E+000	9.28836	0.0000000E+000	0.0000000E+000	0.0000000E+000	-9.28836	6.11443	80.7116	-0.00169277
69097	0.0922385	-0.00287068	0.0922831	1.7826	1544.5	-0.000422883	-2.80612	-802.373	-0.776427	2	37	0.00521542	0.0565154	0	-1.43691	0.403127	0.267219	5.87926	6.67738e-06	9.23659e-06	9.02329e-06	7.33841e-06	6.47752e-06	7.13921e-06	0.101489	0.0524427	0.350593	1.25033e-05	5.38294e-05	4.76109e-06	6.40768e-06	8.9479e-06	2.31925e-06	10.831	-0.337085	10.8362	-1.7826	-776.426	24947.6	24959.7	-91.7826	0.0000000E+000	0.0000000E+000	0.0000000E+000	91.7826	0.0000000E+000	0.0000000E+000	0.0000000E+000	-91.7826	0.0000000E+000	0.0000000E+000	0.0000000E+000	1.7826	0.0000000E+000	0.0000000E+000	0.0000000E+000	-1.7826	32.1313	88.2174	-0.000953956
27362.3	0.0957812	0.0019788	0.0958017	-1.18354	1549.2	-0.000410189	-2.69421	2939.45	1.25407	2	37	0.00519443	0.0542207	0	-1.44036	0.423263	0.196483	5.87306	9.11243e-06	8.14017e-06	6.35191e-06	9.66255e-06	9.25101e-06	7.73303e-06	0.114904	0.0371197	0.36868	7.59035e-06	6.08136e-05	5.4018e-06	9.41367e-06	3.37702e-06	6.04039e-06	10.436	0.215603	10.4382	1.18354	1254.08	60701.8	60714.8	-88.8165	0.0000000E+000	0.0000000E+000	0.0000000E+000	88.8165	0.0000000E+000	0.0000000E+000	0.0000000E+000	-88.8165	0.0000000E+000	0.0000000E+000	0.0000000E+000	-1.18354	0.0000000E+000	0.0000000E+000	0.0000000E+000	1.18354	48.4037	88.8165	-0.000843113
10837.3	0.099077	0.00307357	0.0991246	-1.77686	1553.9	-0.000426145	-2.73763	4778.11	4.59388	2	37	0.00515608	0.0520161	0	-1.44401	0.368971	0.226799	5.98496	9.17685e-06	9.27467e-06	7.13215e-06	7.59356e-06	2.57947e-06	4.37917e-06	0.100103	0.0327687	0.39027	3.32803e-06	4.507e-05	5.43042e-06	6.193e-06	4.85523e-06	1.91898e-05	10.0835	0.31281	10.0883	1.77686	4593.88	148084	148155	-88.2231	0.0000000E+000	0.0000000E+000	0.0000000E+000	88.2231	0.0000000E+000	0.0000000E+000	0.0000000E+000	-88.2231	0.0000000E+000	0.0000000E+000	0.0000000E+000	-1.77686	0.0000000E+000	0.0000000E+000	0.0000000E+000	1.77686	32.2351	88.2231	-0.000942107
4288.63	0.101267	0.00294256	0.101309	-1.66441	1559.01	-0.000553778	-3.6705	12611.8	10.6397	2	37	0.00516906	0.0510226	0	-1.44908	0.299709	0.179712	5.8919	6.07065e-06	5.6113e-06	3.17178e-06	3.45385e-06	9.25219e-06	3.59894e-06	0.0904706	0.03282	0.400806	7.52953e-06	4.421e-05	5.4084e-06	9.0766e-06	6.02075e-06	3.60086e-06	9.86659	0.286699	9.87075	1.66441	10639.7	366158	366313	-88.3356	0.0000000E+000	0.0000000E+000	0.0000000E+000	88.3356	0.0000000E+000	0.0000000E+000	0.0000000E+000	-88.3356	0.0000000E+000	0.0000000E+000	0.0000000E+000	-1.66441	0.0000000E+000	0.0000000E+000	0.0000000E+000	1.66441	34.4145	88.3356	-0.00129534
1698.37	0.102957	0.00253986	0.102988	-1.41316	1564.4	-0.00056116	-3.59349	36895.9	22.4402	2	37	0.00513392	0.0498498	0	-1.45454	0.198957	0.120414	5.9414	5.45511e-06	3.38182e-06	3.53608e-06	2.16465e-06	3.43772e-06	3.16057e-06	0.0550433	0.0655494	0.400008	5.63808e-06	2.22563e-05	4.00325e-06	2.92115e-06	2.40979e-06	4.16659e-06	9.70693	0.239463	9.70988	1.41316	22440.3	909642	909919	-88.5868	0.0000000E+000	0.0000000E+000	0.0000000E+000	88.5868	0.0000000E+000	0.0000000E+000	0.0000000E+000	-88.5868	0.0000000E+000	0.0000000E+000	0.0000000E+000	-1.41316	0.0000000E+000	0.0000000E+000	0.0000000E+000	1.41316	40.5363	88.5868	-0.00135129
672.366	0.104292	0.00187901	0.104309	-1.03217	1569.78	-0.000511109	-3.45079	125975	40.8787	2	37	0.00512995	0.0491802	0	-1.45952	0.371145	0.141472	5.99814	7.6359e-06	5.69539e-06	9.42178e-06	6.88683e-06	5.93114e-06	6.2889e-06	0.0303277	0.012461	0.418059	8.37581e-06	1.21574e-05	5.10063e-06	1.27811e-05	4.99152e-06	4.96455e-06	9.58532	0.172696	9.58688	1.03217	40878.8	2.26893e+06	2.2693e+06	-88.9678	0.0000000E+000	0.0000000E+000	0.0000000E+000	88.9678	0.0000000E+000	0.0000000E+000	0.0000000E+000	-88.9678	0.0000000E+000	0.0000000E+000	0.0000000E+000	-1.03217	0.0000000E+000	0.0000000E+000	0.0000000E+000	1.03217	55.504	88.9678	-0.00118377
266.278	0.105167	0.00117054	0.105174	-0.63769	1574.94	-0.000516254	-3.45945	510623	63.2493	2	37	0.00500719	0.0476088	0	-1.46452	0.391766	0.271295	6.10612	6.06675e-06	1.02077e-05	7.67219e-06	6.73705e-06	6.79804e-06	7.18283e-06	0.0632932	0.0175709	0.431649	5.12488e-06	2.25335e-05	1.54042e-06	1.60896e-05	9.9154e-06	2.30415e-06	9.50749	0.105821	9.50808	0.63769	63249.1	5.68265e+06	5.68301e+06	-89.3623	0.0000000E+000	0.0000000E+000	0.0000000E+000	89.3623	0.0000000E+000	0.0000000E+000	0.0000000E+000	-89.3623	0.0000000E+000	0.0000000E+000	0.0000000E+000	-0.63769	0.0000000E+000	0.0000000E+000	0.0000000E+000	0.63769	89.8453	89.3623	-0.00124118
105.438	0.105584	0.00119785	0.105591	-0.649992	1579.44	-0.000519796	-3.38534	1.26014e+06	162.17	2	37	0.00536856	0.0508431	0	-1.46899	0.402845	0.223567	5.72341	9.75963e-06	9.52618e-06	8.40744e-06	6.67274e-06	9.07903e-06	3.92421e-06	0.0995688	0.0233917	0.390732	6.68555e-06	3.08858e-05	5.53231e-06	2.73989e-05	6.13698e-06	5.10407e-06	9.46992	0.107436	9.47053	0.649992	162171	1.42945e+07	1.42954e+07	-89.35	0.0000000E+000	0.0000000E+000	0.0000000E+000	89.35	0.0000000E+000	0.0000000E+000	0.0000000E+000	-89.35	0.0000000E+000	0.0000000E+000	0.0000000E+000	-0.649992	0.0000000E+000	0.0000000E+000	0.0000000E+000	0.649992	88.1447	89.35	-0.00112832
41.7501	0.106124	0.00142362	0.106133	-0.768559	1583.92	-0.000502572	-3.41154	2.67774e+06	481.783	2	37	0.00542848	0.0511477	0	-1.47334	0.325985	0.191537	5.64368	5.74739e-06	8.02234e-06	8.04256e-06	3.59659e-06	8.22567e-06	6.04831e-06	0.103771	0.0323647	0.397791	8.21328e-06	3.78924e-05	8.77644e-06	3.64846e-05	8.21872e-06	4.50738e-06	9.42125	0.126383	9.4221	0.768559	481785	3.59146e+07	3.59178e+07	-89.2314	0.0000000E+000	0.0000000E+000	0.0000000E+000	89.2314	0.0000000E+000	0.0000000E+000	0.0000000E+000	-89.2314	0.0000000E+000	0.0000000E+000	0.0000000E+000	-0.768559	0.0000000E+000	0.0000000E+000	0.0000000E+000	0.768559	74.5452	89.2314	-0.00110137
16.5286	0.10693	0.00163996	0.106942	-0.878668	1588.35	-0.00050397	-3.37992	5.87151e+06	1380.77	2	37	0.00543854	0.050855	0	-1.47767	0.296092	0.127402	5.59428	6.15988e-06	4.73729e-06	3.91577e-06	9.68844e-06	6.63224e-06	3.4489e-06	0.121172	0.0510547	0.389093	1.83933e-05	5.10551e-05	1.06941e-05	3.63142e-05	9.88529e-06	7.47138e-06	9.34975	0.143396	9.35085	0.878668	1.38077e+06	9.00294e+07	9.004e+07	-89.1213	0.0000000E+000	0.0000000E+000	0.0000000E+000	89.1213	0.0000000E+000	0.0000000E+000	0.0000000E+000	-89.1213	0.0000000E+000	0.0000000E+000	0.0000000E+000	-0.878668	0.0000000E+000	0.0000000E+000	0.0000000E+000	0.878668	65.2024	89.1213	-0.00108826
6.54313	0.107922	0.0020168	0.10794	-1.0706	1593.23	-0.000493979	-3.35087	1.20607e+07	4210.45	2	37	0.00544097	0.0504072	0	-1.48249	0.285523	0.0908425	4.05398	6.06284e-06	6.44648e-06	4.44734e-06	5.10427e-06	6.40599e-06	7.18096e-06	0.162603	0.0983385	0.302852	1.71556e-05	1.20385e-05	6.81259e-06	3.52674e-05	1.12206e-05	1.30871e-05	9.26275	0.173099	9.26437	1.0706	4.21044e+06	2.25307e+08	2.25346e+08	-88.9294	0.0000000E+000	0.0000000E+000	0.0000000E+000	88.9294	0.0000000E+000	0.0000000E+000	0.0000000E+000	-88.9294	0.0000000E+000	0.0000000E+000	0.0000000E+000	-1.0706	0.0000000E+000	0.0000000E+000	0.0000000E+000	1.0706	53.5114	88.9294	-0.00158295
2.58949	0.108806	0.00271658	0.10884	-1.43022	1601.71	-0.00049948	-3.32123	2.26247e+07	14094.6	2	37	0.00543722	0.0499562	0	-1.49058	0.160576	0.0633702	2.05199	4.16688e-06	4.5684e-06	1.5498e-06	3.31167e-06	2.89774e-06	3.47999e-06	0.175244	0.146055	0.202322	4.46395e-05	3.44728e-05	1.45598e-05	4.18692e-05	3.98714e-05	2.04539e-05	9.18497	0.229323	9.18783	1.43022	1.40946e+07	5.64525e+08	5.64701e+08	-88.5698	0.0000000E+000	0.0000000E+000	0.0000000E+000	88.5698	0.0000000E+000	0.0000000E+000	0.0000000E+000	-88.5698	0.0000000E+000	0.0000000E+000	0.0000000E+000	-1.43022	0.0000000E+000	0.0000000E+000	0.0000000E+000	1.43022	40.0525	88.5698	-0.00295471
1.02607	0.109925	0.00483477	0.110031	-2.5184	1620.58	-0.000501353	-3.37576	3.20824e+07	61942.6	2	37	0.00543623	0.0494064	0	-1.50648	0.136126	0.0669487	1.30522	2.68913e-06	5.4683e-06	1.97727e-06	2.10202e-06	2.29861e-06	1.01301e-06	0.261604	0.316066	0.206073	4.48675e-05	2.03109e-05	1.83299e-05	4.60466e-05	7.6541e-06	4.79931e-06	9.07958	0.399344	9.08836	2.5184	6.19425e+07	1.40834e+09	1.4097e+09	-87.4816	0.0000000E+000	0.0000000E+000	0.0000000E+000	87.4816	0.0000000E+000	0.0000000E+000	0.0000000E+000	-87.4816	0.0000000E+000	0.0000000E+000	0.0000000E+000	-2.5184	0.0000000E+000	0.0000000E+000	0.0000000E+000	2.5184	22.7362	87.4816	-0.00223743
0.406108	0.112439	0.00990651	0.112875	-5.03508	1665.84	-0.00051146	-3.39468	3.95602e+07	304724	2	37	0.00543521	0.0481527	0	-1.54958	0.164138	0.0542004	0.81889	2.41965e-06	7.38685e-06	1.6058e-06	2.20427e-06	2.5045e-06	1.51139e-06	0.437071	0.168959	0.212019	6.71972e-05	0.000218322	2.03887e-05	3.51566e-05	1.77201e-05	4.20714e-05	8.8252	0.77755	8.85939	5.03508	3.04724e+08	3.45862e+09	3.47202e+09	-84.9649	0.0000000E+000	0.0000000E+000	0.0000000E+000	84.9649	0.0000000E+000	0.0000000E+000	0.0000000E+000	-84.9649	0.0000000E+000	0.0000000E+000	0.0000000E+000	-5.03508	0.0000000E+000	0.0000000E+000	0.0000000E+000	5.03508	11.35	84.9649	-0.0166
0.160792	0.119778	0.0167922	0.120949	-7.98057	1778.08	-0.000506787	-3.40899	5.89448e+07	1.13621e+06	2	37	0.00542912	0.0448877	0	-1.64422	0.12379	0.0756031	0.513227	9.85254e-07	5.17518e-06	9.05762e-07	3.42614e-06	1.68008e-06	5.79725e-07	0.708128	0.213696	0.346107	5.98853e-05	3.90269e-05	0.000296684	0.000109874	9.3609e-05	2.5138e-05	8.18787	1.1479	8.26794	7.98057	1.13621e+09	8.10448e+09	8.18374e+09	-82.0194	0.0000000E+000	0.0000000E+000	0.0000000E+000	82.0194	0.0000000E+000	0.0000000E+000	0.0000000E+000	-82.0194	0.0000000E+000	0.0000000E+000	0.0000000E+000	-7.98057	0.0000000E+000	0.0000000E+000	0.0000000E+000	7.98057	7.13292	82.0194	-0.0267179
0.0636941	0.136124	0.0197627	0.137551	-8.26055	2059.58	-0.000510654	-3.40181	1.26437e+08	2.60998e+06	2	37	0.00542553	0.0394437	0	-1.94769	0.11124	0.0940819	0.349793	1.73838e-06	4.74867e-06	9.96933e-07	2.43484e-06	1.63298e-06	8.54903e-07	0.141224	0.155859	0.959427	3.55948e-05	3.59024e-05	1.66281e-05	3.73694e-05	1.57055e-05	2.22137e-05	7.19458	1.04452	7.27001	8.26055	2.60998e+09	1.79774e+10	1.81658e+10	-81.7394	0.0000000E+000	0.0000000E+000	0.0000000E+000	81.7394	0.0000000E+000	0.0000000E+000	0.0000000E+000	-81.7394	0.0000000E+000	0.0000000E+000	0.0000000E+000	-8.26055	0.0000000E+000	0.0000000E+000	0.0000000E+000	8.26055	6.88795	81.7394	-0.0990552
0.0252177	0.14833	0.0125228	0.148857	-4.82578	2768.31	-0.000504799	-3.32928	5.03981e+08	3.56678e+06	2	37	0.00542138	0.03642	0	-2.51125	0.116213	0.0875859	0.252623	3.28109e-06	3.81039e-06	1.60809e-06	2.78719e-06	1.40548e-06	1.02502e-06	0.169564	0.178405	1.08218	4.03518e-05	4.92797e-05	1.77709e-05	3.61513e-05	1.64661e-05	1.82521e-05	6.69403	0.565147	6.71785	4.82578	3.56678e+09	4.22477e+10	4.2398e+10	-85.1742	0.0000000E+000	0.0000000E+000	0.0000000E+000	85.1742	0.0000000E+000	0.0000000E+000	0.0000000E+000	-85.1742	0.0000000E+000	0.0000000E+000	0.0000000E+000	-4.82578	0.0000000E+000	0.0000000E+000	0.0000000E+000	4.82578	11.8448	85.1742	-0.20561
138435	0.0891909	-0.0103631	0.0897909	6.62746	3077.66	-0.000396096	-2.06449	-110.939	-1.47773	3	37	0.00513446	0.0571824	0	-2.81509	-1	-1	-1	0	0	0	0	0	0	-1	-1	-1	0	0	0	0	0	0	11.0626	-1.28535	11.137	-6.62746	-1477.73	12718.3	12803.9	-96.6275	0.0000000E+000	0.0000000E+000	0.0000000E+000	96.6275	0.0000000E+000	0.0000000E+000	0.0000000E+000	-96.6275	0.0000000E+000	0.0000000E+000	0.0000000E+000	6.62746	0.0000000E+000	0.0000000E+000	0.0000000E+000	-6.62746	8.60662	83.3725	-0.000641991
54808.1	0.092778	-0.00122933	0.0927862	0.759139	3082.36	-0.000387186	-2.54377	-2362.14	-0.414646	3	37	0.00519283	0.0559655	0	-2.81819	0.359741	0.137628	5.9138	4.84616e-06	6.18097e-06	6.46374e-06	6.92679e-06	8.76015e-06	7.20995e-06	0.110565	0.0525621	0.348128	5.93724e-06	6.43964e-05	6.20467e-06	6.30271e-06	2.69562e-06	4.02763e-06	10.7765	-0.142792	10.7775	-0.759139	-414.647	31293.5	31296.2	-90.7591	0.0000000E+000	0.0000000E+000	0.0000000E+000	90.7591	0.0000000E+000	0.0000000E+000	0.0000000E+000	-90.7591	0.0000000E+000	0.0000000E+000	0.0000000E+000	0.759139	0.0000000E+000	0.0000000E+000	0.0000000E+000	-0.759139	75.4703	89.2409	-0.000885823
21702.4	0.0963598	0.00247352	0.0963915	-1.47044	3087.06	-0.00041237	-2.62261	2964.81	1.95231	3	37	0.00517505	0.0536878	0	-2.82161	0.456436	0.156516	5.90427	9.27856e-06	1.05442e-05	7.6015e-06	8.34383e-06	9.48403e-06	9.11701e-06	0.113101	0.0513405	0.371558	8.81582e-06	6.151e-05	4.05299e-06	7.84395e-06	6.00564e-06	6.70218e-06	10.3709	0.266218	10.3744	1.47044	1952.31	76055.4	76080.5	-88.5296	0.0000000E+000	0.0000000E+000	0.0000000E+000	88.5296	0.0000000E+000	0.0000000E+000	0.0000000E+000	-88.5296	0.0000000E+000	0.0000000E+000	0.0000000E+000	-1.47044	0.0000000E+000	0.0000000E+000	0.0000000E+000	1.47044	38.9566	88.5296	-0.000883974
8590.41	0.0993052	0.003061	0.0993524	-1.76553	3091.77	-0.000517279	-3.4652	6052.62	5.7453	3	37	0.00524451	0.052787	0	-2.82514	0.397773	0.141755	5.68437	6.98597e-06	1.02705e-05	9.30977e-06	7.57464e-06	5.18219e-06	5.1666e-06	0.122244	0.0547903	0.377	5.52333e-06	6.50412e-05	7.71992e-06	1.44706e-05	4.48076e-06	2.8289e-06	10.0604	0.310103	10.0652	1.76553	5745.3	186390	186478	-88.2345	0.0000000E+000	0.0000000E+000	0.0000000E+000	88.2345	0.0000000E+000	0.0000000E+000	0.0000000E+000	-88.2345	0.0000000E+000	0.0000000E+000	0.0000000E+000	-1.76553	0.0000000E+000	0.0000000E+000	0.0000000E+000	1.76553	32.4421	88.2345	-0.00118777
3403.27	0.101404	0.00272654	0.10144	-1.5402	3097.03	-0.000532565	-3.41712	17151.9	12.3913	3	37	0.0051621	0.0508881	0	-2.83003	0.365703	0.182886	5.90701	9.7545e-06	9.74799e-06	6.03032e-06	5.10665e-06	4.87722e-06	7.09604e-06	0.0852468	0.0473747	0.38051	6.21343e-06	4.10588e-05	4.02213e-06	6.52296e-06	9.31834e-06	7.33098e-06	9.85446	0.264967	9.85802	1.5402	12391.3	460847	461013	-88.4598	0.0000000E+000	0.0000000E+000	0.0000000E+000	88.4598	0.0000000E+000	0.0000000E+000	0.0000000E+000	-88.4598	0.0000000E+000	0.0000000E+000	0.0000000E+000	-1.5402	0.0000000E+000	0.0000000E+000	0.0000000E+000	1.5402	37.1913	88.4598	-0.00131858
1347.15	0.103121	0.0023417	0.103147	-1.30087	3102.42	-0.000532938	-3.30648	50451.1	26.0028	3	37	0.00514632	0.049893	0	-2.835	0.348981	0.122813	5.78605	4.12837e-06	6.93898e-06	5.18496e-06	4.43059e-06	9.84667e-06	9.02083e-06	0.0399932	0.028193	0.388738	1.14481e-05	1.46094e-05	3.77498e-06	6.02071e-06	6.69938e-06	5.54537e-06	9.69238	0.220098	9.69488	1.30087	26002.8	1.14507e+06	1.14537e+06	-88.6991	0.0000000E+000	0.0000000E+000	0.0000000E+000	88.6991	0.0000000E+000	0.0000000E+000	0.0000000E+000	-88.6991	0.0000000E+000	0.0000000E+000	0.0000000E+000	-1.30087	0.0000000E+000	0.0000000E+000	0.0000000E+000	1.30087	44.0366	88.6991	-0.00121316
533.464	0.104262	0.00167138	0.104276	-0.918405	3107.81	-0.000505238	-3.35645	178500	45.8591	3	37	0.00504438	0.0483754	0	-2.84001	0.344632	0.142225	5.99055	8.80871e-06	6.49305e-06	6.38671e-06	6.66942e-06	7.11654e-06	4.6052e-06	0.046408	0.0129713	0.40903	7.68956e-06	9.22943e-06	5.28213e-06	1.14477e-05	3.88141e-06	3.4276e-06	9.58873	0.153713	9.58996	0.918405	45859	2.86073e+06	2.86109e+06	-89.0816	0.0000000E+000	0.0000000E+000	0.0000000E+000	89.0816	0.0000000E+000	0.0000000E+000	0.0000000E+000	-89.0816	0.0000000E+000	0.0000000E+000	0.0000000E+000	-0.918405	0.0000000E+000	0.0000000E+000	0.0000000E+000	0.918405	62.3808	89.0816	-0.00128779
211.149	0.105024	0.00124538	0.105031	-0.679385	3112.75	-0.000507008	-3.40892	605243	85.0935	3	37	0.00530431	0.0505022	0	-2.84467	0.354853	0.144528	5.68412	7.28784e-06	4.66495e-06	7.81277e-06	6.54967e-06	8.36375e-06	7.87701e-06	0.0659231	0.0135683	0.397125	1.26779e-05	2.62677e-05	6.43579e-06	2.23581e-05	5.96907e-06	3.29242e-06	9.5203	0.112892	9.52097	0.679385	85093.1	7.176e+06	7.1765e+06	-89.3206	0.0000000E+000	0.0000000E+000	0.0000000E+000	89.3206	0.0000000E+000	0.0000000E+000	0.0000000E+000	-89.3206	0.0000000E+000	0.0000000E+000	0.0000000E+000	-0.679385	0.0000000E+000	0.0000000E+000	0.0000000E+000	0.679385	84.3308	89.3206	-0.00100958
83.635	0.105478	0.00109046	0.105484	-0.592315	3117.48	-0.000512041	-3.45893	1.74511e+06	186.496	3	37	0.00508733	0.0482286	0	-2.84925	0.407178	0.126391	5.94758	4.39346e-06	7.96946e-06	1.01971e-05	7.15692e-06	8.06708e-06	8.66103e-06	0.0989638	0.0264445	0.411849	4.11253e-06	3.56225e-05	5.95065e-06	2.99087e-05	7.28493e-06	5.65936e-06	9.47963	0.0980025	9.48014	0.592315	186496	1.80395e+07	1.80404e+07	-89.4077	0.0000000E+000	0.0000000E+000	0.0000000E+000	89.4077	0.0000000E+000	0.0000000E+000	0.0000000E+000	-89.4077	0.0000000E+000	0.0000000E+000	0.0000000E+000	-0.592315	0.0000000E+000	0.0000000E+000	0.0000000E+000	0.592315	96.7284	89.4077	-0.00105978
33.1038	0.106194	0.00132833	0.106203	-0.716648	3121.98	-0.00049506	-3.32403	3.61938e+06	566.212	3	37	0.00512806	0.0482857	0	-2.85361	0.352228	0.139725	6.04575	7.64651e-06	7.93647e-06	6.79255e-06	3.79617e-06	7.58524e-06	6.03271e-06	0.115977	0.0288673	0.417525	1.05227e-05	3.58428e-05	6.63849e-06	3.58508e-05	9.72162e-06	5.64971e-06	9.41523	0.117771	9.41597	0.716648	566215	4.52661e+07	4.52696e+07	-89.2833	0.0000000E+000	0.0000000E+000	0.0000000E+000	89.2833	0.0000000E+000	0.0000000E+000	0.0000000E+000	-89.2833	0.0000000E+000	0.0000000E+000	0.0000000E+000	-0.716648	0.0000000E+000	0.0000000E+000	0.0000000E+000	0.716648	79.9455	89.2833	-0.00110509
13.1083	0.106939	0.00173924	0.106953	-0.931771	3126.46	-0.000496215	-3.4218	6.98096e+06	1846.08	3	37	0.00512895	0.0479552	0	-2.85825	0.310804	0.163988	4.09105	8.5876e-06	8.0905e-06	2.77926e-06	5.8904e-06	3.35922e-06	5.06698e-06	0.122702	0.0883274	0.30618	1.43274e-05	3.61061e-05	6.08462e-06	3.70673e-05	7.95197e-06	6.0804e-06	9.34867	0.152046	9.3499	0.931771	1.84608e+06	1.13508e+08	1.13523e+08	-89.0682	0.0000000E+000	0.0000000E+000	0.0000000E+000	89.0682	0.0000000E+000	0.0000000E+000	0.0000000E+000	-89.0682	0.0000000E+000	0.0000000E+000	0.0000000E+000	-0.931771	0.0000000E+000	0.0000000E+000	0.0000000E+000	0.931771	61.4858	89.0682	-0.00135469
5.19276	0.108033	0.00228691	0.108057	-1.2127	3131.73	-0.000497371	-3.43099	1.34021e+07	6002.99	3	37	0.00513132	0.0474873	0	-2.86287	0.226559	0.120327	3.41004	1.72347e-06	5.09296e-06	2.82676e-06	3.08846e-06	7.28949e-06	4.70563e-06	0.154049	0.133421	0.262028	3.83705e-05	4.04258e-05	1.24196e-05	4.27141e-05	5.94118e-06	4.67903e-06	9.25232	0.19586	9.25439	1.2127	6.003e+06	2.83578e+08	2.83642e+08	-88.7873	0.0000000E+000	0.0000000E+000	0.0000000E+000	88.7873	0.0000000E+000	0.0000000E+000	0.0000000E+000	-88.7873	0.0000000E+000	0.0000000E+000	0.0000000E+000	-1.2127	0.0000000E+000	0.0000000E+000	0.0000000E+000	1.2127	47.2395	88.7873	-0.00105104
2.05457	0.108981	0.00317926	0.109027	-1.671	3141.96	-0.000499639	-3.39385	2.43654e+07	20718.4	3	37	0.00512802	0.0470344	0	-2.87213	0.167609	0.0746433	1.95418	1.51815e-06	5.84297e-06	3.36525e-06	2.45561e-06	1.9969e-06	2.77765e-06	0.18779	0.282747	0.202497	4.45791e-05	4.44544e-05	9.91358e-06	4.22969e-05	2.10614e-05	1.12022e-05	9.16815	0.267459	9.17205	1.671	2.07184e+07	7.10199e+08	7.10502e+08	-88.329	0.0000000E+000	0.0000000E+000	0.0000000E+000	88.329	0.0000000E+000	0.0000000E+000	0.0000000E+000	-88.329	0.0000000E+000	0.0000000E+000	0.0000000E+000	-1.671	0.0000000E+000	0.0000000E+000	0.0000000E+000	1.671	34.2786	88.329	-0.00245535
0.813551	0.110296	0.00546406	0.110431	-2.83612	3165.34	-0.000496231	-3.43154	3.5803e+07	87653.3	3	37	0.00512758	0.0464324	0	-2.8956	0.152123	0.0488108	1.20979	3.50347e-06	2.86789e-06	1.79563e-06	4.70751e-06	2.59963e-06	1.98262e-06	0.279694	0.115624	0.198515	0.000119415	2.52667e-05	2.47964e-05	5.68299e-05	1.14082e-05	1.66795e-05	9.04434	0.448057	9.05543	2.83612	8.76534e+07	1.76934e+09	1.77151e+09	-87.1639	0.0000000E+000	0.0000000E+000	0.0000000E+000	87.1639	0.0000000E+000	0.0000000E+000	0.0000000E+000	-87.1639	0.0000000E+000	0.0000000E+000	0.0000000E+000	-2.83612	0.0000000E+000	0.0000000E+000	0.0000000E+000	2.83612	20.1857	87.1639	-0.00987427
0.322118	0.113342	0.0109137	0.113866	-5.50005	3222.03	-0.000480131	-3.26876	4.52722e+07	415897	3	37	0.00512203	0.0449828	0	-2.95118	0.100798	0.0506534	0.762194	1.95545e-06	3.44262e-06	1.18076e-06	2.27885e-06	1.51593e-06	9.66722e-07	0.486427	0.57814	0.253543	0.0001278	3.73309e-05	8.74733e-05	3.07165e-05	2.41223e-05	2.18135e-05	8.74179	0.841746	8.78222	5.50005	4.15897e+08	4.31921e+09	4.33919e+09	-84.4999	0.0000000E+000	0.0000000E+000	0.0000000E+000	84.4999	0.0000000E+000	0.0000000E+000	0.0000000E+000	-84.4999	0.0000000E+000	0.0000000E+000	0.0000000E+000	-5.50005	0.0000000E+000	0.0000000E+000	0.0000000E+000	5.50005	10.3853	84.4999	-0.0246087
0.127525	0.122939	0.018376	0.124304	-8.50122	3363.19	-0.000483485	-3.29026	6.79164e+07	1.48423e+06	3	37	0.00511695	0.0411647	0	-3.06144	0.10592	0.0762313	0.487481	2.36025e-06	3.81907e-06	7.99566e-07	2.32782e-06	1.07706e-06	9.12874e-07	0.53407	0.100536	0.738385	3.87439e-05	5.12993e-05	4.23045e-05	6.04674e-05	0.000214311	4.01758e-05	7.95638	1.18926	8.04477	8.50122	1.48423e+09	9.9298e+09	1.00401e+10	-81.4988	0.0000000E+000	0.0000000E+000	0.0000000E+000	81.4988	0.0000000E+000	0.0000000E+000	0.0000000E+000	-81.4988	0.0000000E+000	0.0000000E+000	0.0000000E+000	-8.50122	0.0000000E+000	0.0000000E+000	0.0000000E+000	8.50122	6.69018	81.4988	-0.0425861
0.0505041	0.139421	0.0187604	0.140678	-7.66363	3717.71	-0.000485828	-3.19398	1.67978e+08	2.98733e+06	3	37	0.00511058	0.0363282	0	-3.41546	0.0977853	0.0873011	0.330126	2.88638e-06	2.25084e-06	1.5144e-06	2.28473e-06	1.4024e-06	8.84487e-07	0.149415	0.093529	0.968263	1.42313e-05	2.48206e-05	1.55956e-05	3.67117e-05	1.2758e-05	1.29903e-05	7.04494	0.947959	7.10843	7.66363	2.98733e+09	2.22009e+10	2.2401e+10	-82.3364	0.0000000E+000	0.0000000E+000	0.0000000E+000	82.3364	0.0000000E+000	0.0000000E+000	0.0000000E+000	-82.3364	0.0000000E+000	0.0000000E+000	0.0000000E+000	-7.66363	0.0000000E+000	0.0000000E+000	0.0000000E+000	7.66363	7.43169	82.3364	-0.10392
0.0199946	0.149072	0.0103885	0.149434	-3.98636	4610.92	-0.00049878	-3.23805	7.66222e+08	3.70307e+06	3	37	0.00510371	0.0341536	0	-4.15143	0.113822	0.106206	0.254781	1.55667e-06	4.12744e-06	1.27425e-06	2.5733e-06	1.62961e-06	1.47345e-06	0.152763	0.227943	1.07492	1.88245e-05	2.67613e-05	1.52919e-05	3.24368e-05	1.09165e-05	1.34647e-05	6.67574	0.465216	6.69193	3.98636	3.70308e+09	5.31382e+10	5.3267e+10	-86.0136	0.0000000E+000	0.0000000E+000	0.0000000E+000	86.0136	0.0000000E+000	0.0000000E+000	0.0000000E+000	-86.0136	0.0000000E+000	0.0000000E+000	0.0000000E+000	-3.98636	0.0000000E+000	0.0000000E+000	0.0000000E+000	3.98636	14.3497	86.0136	-0.284234
109811	0.0902877	-0.00738124	0.0905889	4.67368	4616.06	-0.00041621	-2.47917	-196.356	-1.30363	4	37	0.00523344	0.0577713	0	-0.00272459	-1	-1	-1	0	0	0	0	0	0	-1	-1	-1	0	0	0	0	0	0	11.0022	-0.899455	11.0389	-4.67368	-1303.63	15946	15999.2	-94.6737	0.0000000E+000	0.0000000E+000	0.0000000E+000	94.6737	0.0000000E+000	0.0000000E+000	0.0000000E+000	-94.6737	0.0000000E+000	0.0000000E+000	0.0000000E+000	4.67368	0.0000000E+000	0.0000000E+000	0.0000000E+000	-4.67368	12.232	85.3263	-0.000901906
43479.1	0.0935307	0.000150307	0.0935309	-0.0920761	4620.76	-0.00041511	-2.54351	24353.5	0.062894	4	37	0.00519364	0.0555286	0	-0.00588787	0.41765	0.160889	5.8815	8.2504e-06	6.94974e-06	8.40739e-06	1.24023e-05	8.4347e-06	4.52344e-06	0.116056	0.0389024	0.357758	4.38251e-06	6.3354e-05	5.21971e-06	1.12289e-05	3.826e-06	5.75223e-06	10.6916	0.0171818	10.6917	0.0920761	62.8961	39136.7	39136.8	-89.9079	0.0000000E+000	0.0000000E+000	0.0000000E+000	89.9079	0.0000000E+000	0.0000000E+000	0.0000000E+000	-89.9079	0.0000000E+000	0.0000000E+000	0.0000000E+000	-0.0920761	0.0000000E+000	0.0000000E+000	0.0000000E+000	0.0920761	622.265	89.9079	-0.000788572
17211.6	0.0970877	0.0029384	0.0971321	-1.73355	4625.47	-0.00042128	-2.56169	3146.93	2.87994	4	37	0.00517133	0.0532402	0	-0.00936166	0.381339	0.138416	5.91919	6.43333e-06	6.54462e-06	8.13865e-06	8.62478e-06	6.36341e-06	6.65834e-06	0.120507	0.0133983	0.373831	6.63183e-06	6.11547e-05	5.39757e-06	1.34116e-05	6.60346e-06	7.34651e-06	10.2905	0.311448	10.2953	1.73355	2879.94	95156.1	95199.6	-88.2664	0.0000000E+000	0.0000000E+000	0.0000000E+000	88.2664	0.0000000E+000	0.0000000E+000	0.0000000E+000	-88.2664	0.0000000E+000	0.0000000E+000	0.0000000E+000	-1.73355	0.0000000E+000	0.0000000E+000	0.0000000E+000	1.73355	33.041	88.2664	-0.000759131
6816.86	0.099744	0.0031224	0.0997928	-1.79301	4630.24	-0.000531726	-3.34449	7477.35	7.32024	4	37	0.00518361	0.0519437	0	-0.013353	0.299321	0.17703	5.77636	6.12721e-06	7.40607e-06	3.16299e-06	3.23233e-06	7.18619e-06	5.25961e-06	0.117467	0.052869	0.385835	5.44539e-06	5.78863e-05	1.1499e-05	1.15561e-05	8.75404e-06	8.33094e-06	10.0159	0.313537	10.0208	1.79301	7320.24	233843	233957	-88.207	0.0000000E+000	0.0000000E+000	0.0000000E+000	88.207	0.0000000E+000	0.0000000E+000	0.0000000E+000	-88.207	0.0000000E+000	0.0000000E+000	0.0000000E+000	-1.79301	0.0000000E+000	0.0000000E+000	0.0000000E+000	1.79301	31.9447	88.207	-0.00113261
2699.14	0.101787	0.00276354	0.101824	-1.55521	4635.61	-0.000534653	-3.2768	21336.8	15.7166	4	37	0.00516502	0.0507249	0	-0.0181164	0.354766	0.188131	5.96047	8.54648e-06	6.71789e-06	9.40788e-06	4.49139e-06	6.4799e-06	4.96834e-06	0.0707013	0.0145143	0.393994	7.97324e-06	3.51123e-05	2.81354e-06	5.98691e-06	4.03186e-06	3.88831e-06	9.81722	0.26654	9.82084	1.55521	15716.6	578874	579087	-88.4448	0.0000000E+000	0.0000000E+000	0.0000000E+000	88.4448	0.0000000E+000	0.0000000E+000	0.0000000E+000	-88.4448	0.0000000E+000	0.0000000E+000	0.0000000E+000	-1.55521	0.0000000E+000	0.0000000E+000	0.0000000E+000	1.55521	36.8321	88.4448	-0.00118866
1068.29	0.103337	0.00222814	0.103361	-1.23521	4641	-0.000542612	-3.35794	66863.2	31.0709	4	37	0.00513852	0.0497141	0	-0.0230134	0.447743	0.147424	5.93043	5.2156e-06	8.34646e-06	1.13158e-05	1.11478e-05	9.53186e-06	6.11314e-06	0.0365395	0.0933303	0.413646	4.07066e-06	9.23638e-06	4.72932e-06	7.7468e-06	4.84499e-06	4.74174e-06	9.67254	0.208557	9.67479	1.23521	31070.9	1.44102e+06	1.44135e+06	-88.7648	0.0000000E+000	0.0000000E+000	0.0000000E+000	88.7648	0.0000000E+000	0.0000000E+000	0.0000000E+000	-88.7648	0.0000000E+000	0.0000000E+000	0.0000000E+000	-1.23521	0.0000000E+000	0.0000000E+000	0.0000000E+000	1.23521	46.3784	88.7648	-0.00115512
423.239	0.104463	0.00142394	0.104473	-0.78095	4646.4	-0.00052125	-3.29338	264084	49.0588	4	37	0.0050002	0.0478611	0	-0.0280381	0.422649	0.14949	6.04096	1.06428e-05	9.62164e-06	7.94713e-06	5.0737e-06	6.53105e-06	7.84437e-06	0.0540404	0.0125716	0.4217	1.14935e-05	1.73207e-05	2.98935e-06	1.4335e-05	2.98398e-06	4.44604e-06	9.57095	0.130462	9.57184	0.78095	49059	3.59906e+06	3.5994e+06	-89.219	0.0000000E+000	0.0000000E+000	0.0000000E+000	89.219	0.0000000E+000	0.0000000E+000	0.0000000E+000	-89.219	0.0000000E+000	0.0000000E+000	0.0000000E+000	-0.78095	0.0000000E+000	0.0000000E+000	0.0000000E+000	0.78095	73.3623	89.219	-0.00119815
167.481	0.10508	0.00118244	0.105087	-0.644708	4651.11	-0.00051411	-3.26196	803666	101.751	4	37	0.00540984	0.0514798	0	-0.0323988	0.333146	0.196964	5.66822	3.72183e-06	6.25181e-06	8.69922e-06	7.04261e-06	7.45547e-06	7.36619e-06	0.0752201	0.0133444	0.387469	1.29876e-05	2.81631e-05	5.21294e-06	2.25599e-05	1.0052e-05	4.02884e-06	9.51535	0.107074	9.51595	0.644708	101751	9.04231e+06	9.04289e+06	-89.3553	0.0000000E+000	0.0000000E+000	0.0000000E+000	89.3553	0.0000000E+000	0.0000000E+000	0.0000000E+000	-89.3553	0.0000000E+000	0.0000000E+000	0.0000000E+000	-0.644708	0.0000000E+000	0.0000000E+000	0.0000000E+000	0.644708	88.8671	89.3553	-0.00103225
66.3374	0.105546	0.00116186	0.105552	-0.630691	4655.82	-0.00051659	-3.47668	2.06494e+06	250.195	4	37	0.00510488	0.0483635	0	-0.0368318	0.417374	0.160473	6.03972	5.63072e-06	1.11037e-05	9.45204e-06	1.12428e-05	4.65568e-06	5.51575e-06	0.108011	0.0143563	0.41216	8.29326e-06	3.67962e-05	4.80435e-06	3.62245e-05	8.13225e-06	5.83333e-06	9.4734	0.104284	9.47397	0.630691	250196	2.27283e+07	2.27297e+07	-89.3693	0.0000000E+000	0.0000000E+000	0.0000000E+000	89.3693	0.0000000E+000	0.0000000E+000	0.0000000E+000	-89.3693	0.0000000E+000	0.0000000E+000	0.0000000E+000	-0.630691	0.0000000E+000	0.0000000E+000	0.0000000E+000	0.630691	90.8423	89.3693	-0.00107418
26.2693	0.10614	0.00146597	0.10615	-0.791302	4660.31	-0.000514949	-3.48442	4.13282e+06	788.24	4	37	0.0051235	0.0482667	0	-0.0410354	0.714993	0.189087	5.81347	4.68547e-06	1.21614e-05	4.76483e-06	7.963e-06	5.91228e-06	3.12559e-05	0.106181	0.040834	0.403838	1.09804e-05	3.61244e-05	9.47787e-06	3.91565e-05	6.92371e-06	1.03421e-05	9.41976	0.130103	9.42066	0.791302	788243	5.70704e+07	5.70758e+07	-89.2087	0.0000000E+000	0.0000000E+000	0.0000000E+000	89.2087	0.0000000E+000	0.0000000E+000	0.0000000E+000	-89.2087	0.0000000E+000	0.0000000E+000	0.0000000E+000	-0.791302	0.0000000E+000	0.0000000E+000	0.0000000E+000	0.791302	72.4023	89.2087	-0.000981282
10.3959	0.107067	0.00184874	0.107083	-0.989232	4664.79	-0.000515732	-3.44201	8.28103e+06	2468.27	4	37	0.00512654	0.0478744	0	-0.0451821	0.422579	0.15158	5.91235	9.62263e-06	6.92787e-06	5.98012e-06	9.77836e-06	6.46715e-06	8.51677e-06	0.112023	0.155193	0.403319	6.09585e-05	3.01393e-05	1.86027e-05	3.25373e-05	1.28559e-05	8.21064e-06	9.33715	0.161225	9.33854	0.989232	2.46828e+06	1.42947e+08	1.42968e+08	-89.0108	0.0000000E+000	0.0000000E+000	0.0000000E+000	89.0108	0.0000000E+000	0.0000000E+000	0.0000000E+000	-89.0108	0.0000000E+000	0.0000000E+000	0.0000000E+000	-0.989232	0.0000000E+000	0.0000000E+000	0.0000000E+000	0.989232	57.9137	89.0108	-0.000851353
4.11618	0.108098	0.00247649	0.108126	-1.3124	4670.85	-0.000481932	-3.3164	1.56131e+07	8190.36	4	37	0.0051244	0.0473928	0	-0.0505656	0.246158	0.096179	2.87097	3.03847e-06	7.22987e-06	4.32488e-06	3.35371e-06	5.53915e-06	4.03787e-06	0.142253	0.166071	0.245468	3.67366e-05	4.14379e-05	1.32053e-05	3.7213e-05	6.9993e-06	5.96241e-06	9.24604	0.211825	9.24847	1.3124	8.19038e+06	3.57505e+08	3.57599e+08	-88.6876	0.0000000E+000	0.0000000E+000	0.0000000E+000	88.6876	0.0000000E+000	0.0000000E+000	0.0000000E+000	-88.6876	0.0000000E+000	0.0000000E+000	0.0000000E+000	-1.3124	0.0000000E+000	0.0000000E+000	0.0000000E+000	1.3124	43.6495	88.6876	-0.00151553
1.63084	0.108915	0.00344479	0.108969	-1.81157	4683.32	-0.000486409	-3.37111	2.83301e+07	28311.7	4	37	0.00512582	0.0470392	0	-0.0610479	0.137512	0.0696455	1.70928	1.90319e-06	2.81423e-06	2.10929e-06	4.09639e-06	2.70479e-06	1.8815e-06	0.200894	0.245522	0.205145	5.86454e-05	3.08594e-05	1.76291e-05	3.77611e-05	8.98262e-06	7.27257e-06	9.17233	0.290106	9.17692	1.81157	2.83117e+07	8.95137e+08	8.95585e+08	-88.1884	0.0000000E+000	0.0000000E+000	0.0000000E+000	88.1884	0.0000000E+000	0.0000000E+000	0.0000000E+000	-88.1884	0.0000000E+000	0.0000000E+000	0.0000000E+000	-1.81157	0.0000000E+000	0.0000000E+000	0.0000000E+000	1.81157	31.6172	88.1884	-0.00221036
0.645874	0.11043	0.00642155	0.110617	-3.32802	4712.36	-0.00050451	-3.43069	3.83736e+07	129321	4	37	0.00512553	0.0463359	0	-0.0883182	0.127919	0.101671	1.07653	3.73545e-06	3.35247e-06	1.02542e-06	3.15102e-06	1.50413e-06	1.19789e-06	0.239671	0.500796	0.238921	9.13791e-05	7.07312e-05	3.5085e-05	3.59118e-05	1.97457e-05	2.00084e-05	9.02498	0.524806	9.04023	3.32802	1.29321e+08	2.22392e+09	2.22767e+09	-86.672	0.0000000E+000	0.0000000E+000	0.0000000E+000	86.672	0.0000000E+000	0.0000000E+000	0.0000000E+000	-86.672	0.0000000E+000	0.0000000E+000	0.0000000E+000	-3.32802	0.0000000E+000	0.0000000E+000	0.0000000E+000	3.32802	17.1968	86.672	-0.00553502
0.255612	0.114543	0.0123906	0.115211	-6.17394	4783.48	-0.000481114	-3.21574	5.02514e+07	581227	4	37	0.00512305	0.0444668	0	-0.152218	0.121874	0.0325709	0.687511	2.95853e-06	3.70122e-06	9.35885e-07	3.00222e-06	2.01946e-06	6.68776e-07	0.608448	0.173441	0.41078	0.000187073	0.000134001	7.90349e-05	4.60268e-05	5.82462e-05	1.21296e-05	8.6294	0.933482	8.67975	6.17394	5.81226e+08	5.37304e+09	5.40439e+09	-83.8261	0.0000000E+000	0.0000000E+000	0.0000000E+000	83.8261	0.0000000E+000	0.0000000E+000	0.0000000E+000	-83.8261	0.0000000E+000	0.0000000E+000	0.0000000E+000	-6.17394	0.0000000E+000	0.0000000E+000	0.0000000E+000	6.17394	9.24432	83.8261	-0.0147618
0.101164	0.126629	0.0194016	0.128106	-8.71091	4961.11	-0.00048819	-3.36751	8.10881e+07	1.8599e+06	4	37	0.00511574	0.0399336	0	-0.331863	0.113182	0.106535	0.446839	2.7499e-06	3.18842e-06	9.62157e-07	3.13748e-06	1.50738e-06	8.72902e-07	0.703381	0.157869	0.437546	5.03103e-05	3.68002e-05	1.83984e-05	4.07274e-05	3.21792e-05	0.000271859	7.71597	1.18221	7.80602	8.71091	1.8599e+09	1.21391e+10	1.22807e+10	-81.2891	0.0000000E+000	0.0000000E+000	0.0000000E+000	81.2891	0.0000000E+000	0.0000000E+000	0.0000000E+000	-81.2891	0.0000000E+000	0.0000000E+000	0.0000000E+000	-8.71091	0.0000000E+000	0.0000000E+000	0.0000000E+000	8.71091	6.52671	81.2891	-0.069659
0.04008	0.14262	0.0165963	0.143582	-6.63752	5407.62	-0.00049286	-3.28131	2.39266e+08	3.19672e+06	4	37	0.00510985	0.0355883	0	-0.685044	0.1179	0.0851886	0.308372	2.79295e-06	3.53947e-06	1.61613e-06	2.83821e-06	1.16452e-06	1.06809e-06	0.151073	0.0836444	1.00418	1.65603e-05	3.22031e-05	1.81915e-05	3.57712e-05	1.54372e-05	1.34946e-05	6.91797	0.805028	6.96465	6.63752	3.19672e+09	2.74708e+10	2.76562e+10	-83.3625	0.0000000E+000	0.0000000E+000	0.0000000E+000	83.3625	0.0000000E+000	0.0000000E+000	0.0000000E+000	-83.3625	0.0000000E+000	0.0000000E+000	0.0000000E+000	-6.63752	0.0000000E+000	0.0000000E+000	0.0000000E+000	6.63752	8.59345	83.3625	-0.115132