File: Python/Experiments/IRFB/240503-Felt-1p5M_FeCl2FeCl3-1M_HCl/Data/240503-EIS-Felt-1p5M_FeCl2FeCl3-1M_HCl-Wamup_10mLmin-4xFlowRate-20mHz_10ppd_03_PEIS_C15.mpt
EC-Lab ASCII FILE
Nb header lines : 75

Potentio Electrochemical Impedance Spectroscopy

Run on channel : 15 (SN 19485)
User :
Electrode connection : standard
Potential control : Ewe
Ewe ctrl range : min = -1.00 V, max = 1.00 V
Ewe,I filtering : 50 kHz
Safety Limits :
	Do not start on E overload
Channel : Grounded
Acquisition started on : 05/03/2024 14:39:22.131
Loaded Setting File :  NONE
Saved on :
	File : 240503-EIS-Felt-1p5M_FeCl2FeCl3-1M_HCl-Wamup_10mLmin-4xFlowRate-20mHz_10ppd_03_PEIS_C15.mpr
	Directory : C:\Data\mathias\IRFB\
	Host : 192.168.0.1
Device : VMP-300 (SN 0826)
Address : USB
EC-Lab for windows v11.52 (software)
Internet server v11.52 (firmware)
Command interpretor v11.52 (firmware)
Electrode material :
Initial state :
Electrolyte :
Comments :
Cable : special
Electrode surface area : 0.001 cm²
Characteristic mass : 0.001 g
Equivalent Weight : 0.000 g/eq.
Density : 0.000 g/cm3
Volume (V) : 0.001 cm³
Record EIS quality indicators
Cycle Definition : Charge/Discharge alternance
External device configuration :
   device type : Other
   device name : Other
   Analog OUT :
      mode : E/V
      unit : KNF Pump/ml/min
      max : 120.000 at 5.000 V
      min : 0.000 at 0.000 V
      current : 14.000
Mode                Single sine
E (V)               0.0000
vs.                 Eoc
tE (h:m:s)          0:10:0.0000
record              0
dI                  0.000
unit dI             mA
dt (s)              0.000
fi                  220.000
unit fi             kHz
ff                  20.000
unit ff             mHz
Nd                  10
Points              per decade
spacing             Logarithmic
Va (mV)             5.0
pw                  0.10
Na                  3
corr                0
E range min (V)     -1.000
E range max (V)     1.000
I Range             Auto
Bandwidth           8
nc cycles           2
goto Ns'            0
nr cycles           0
inc. cycle          0

freq/Hz	Re(Z)/Ohm	-Im(Z)/Ohm	|Z|/Ohm	Phase(Z)/deg	time/s	<Ewe>/V	<I>/mA	Cs/µF	Cp/µF	cycle number	I Range	|Ewe|/V	|I|/A	Ns	(Q-Qo)/mA.h	Analog OUT/V	THD Ewe/%	NSD Ewe/%	NSR Ewe/%	|Ewe h2|/V	|Ewe h3|/V	|Ewe h4|/V	|Ewe h5|/V	|Ewe h6|/V	|Ewe h7|/V	THD I/%	NSD I/%	NSR I/%	|I h2|/A	|I h3|/A	|I h4|/A	|I h5|/A	|I h6|/A	|I h7|/A	Re(Y)/Ohm-1	Im(Y)/Ohm-1	|Y|/Ohm-1	Phase(Y)/deg	Re(C)/nF	Im(C)/nF	|C|/nF	Phase(C)/deg	Re(M)	Im(M)	|M|	Phase(M)/deg	Re(Permittivity)	Im(Permittivity)	|Permittivity|	Phase(Permittivity)/deg	Re(Resistivity)/Ohm.cm	Im(Resistivity)/Ohm.cm	|Resistivity|/Ohm.cm	Phase(Resistivity)/deg	Re(Conductivity)/mS/cm	Im(Conductivity)/mS/cm	|Conductivity|/mS/cm	Phase(Conductivity)/deg	Tan(Delta)	Loss Angle(Delta)/deg	dq/mA.h
220003	0.0916909	-0.0195015	0.0937418	12.0072	248357	-0.000341964	-1.80457	-37.0958	-1.60544	1	37	0.0033081	0.0352894	0	-0.437884	14	-1	-1	-1	0	0	0	0	0	0	-1	-1	-1	0	0	0	0	0	0	10.4342	-2.21922	10.6676	-12.0072	-1605.44	7548.35	7717.18	-102.007	0.0000000E+000	0.0000000E+000	0.0000000E+000	102.007	0.0000000E+000	0.0000000E+000	0.0000000E+000	-102.007	0.0000000E+000	0.0000000E+000	0.0000000E+000	12.0072	0.0000000E+000	0.0000000E+000	0.0000000E+000	-12.0072	4.70174	77.9928	-0.437884
109811	0.0965689	-0.00714667	0.096833	4.23251	248360	-0.000338423	-1.83928	-202.801	-1.10467	1	37	0.00523916	0.0541051	0	-0.439593	14	-1	-1	-1	0	0	0	0	0	0	-1	-1	-1	0	0	0	0	0	0	10.2989	-0.762179	10.3271	-4.23251	-1104.67	14926.7	14967.5	-94.2325	0.0000000E+000	0.0000000E+000	0.0000000E+000	94.2325	0.0000000E+000	0.0000000E+000	0.0000000E+000	-94.2325	0.0000000E+000	0.0000000E+000	0.0000000E+000	4.23251	0.0000000E+000	0.0000000E+000	0.0000000E+000	-4.23251	13.5124	85.7675	-0.000583107
54808.1	0.099062	-0.000377092	0.0990627	0.218103	248364	-0.000327592	-1.80148	-7700.65	-0.111584	1	37	0.0052017	0.0525092	0	-0.441482	14	0.300847	0.146534	5.74862	5.93179e-06	6.90248e-06	5.4493e-06	6.74332e-06	5.47256e-06	6.35074e-06	0.101103	0.0436487	0.367877	2.38879e-05	4.61247e-05	2.36007e-06	7.16966e-06	4.47938e-06	4.7722e-06	10.0945	-0.0384262	10.0946	-0.218103	-111.584	29313.1	29313.3	-90.2181	0.0000000E+000	0.0000000E+000	0.0000000E+000	90.2181	0.0000000E+000	0.0000000E+000	0.0000000E+000	-90.2181	0.0000000E+000	0.0000000E+000	0.0000000E+000	0.218103	0.0000000E+000	0.0000000E+000	0.0000000E+000	-0.218103	262.699	89.7819	-0.000620391
27362.3	0.102062	0.00411119	0.102145	-2.30669	248367	-0.000332047	-1.80563	1414.81	2.29192	1	37	0.0051742	0.0506553	0	-0.443398	14	0.277641	0.161759	5.70043	4.17993e-06	7.5134e-06	2.31567e-06	6.89279e-06	5.31019e-06	5.85585e-06	0.0999897	0.0350121	0.38712	1.71931e-05	4.62575e-05	3.86989e-06	6.61723e-06	5.46224e-06	4.64923e-06	9.78205	0.394033	9.78999	2.30669	2291.92	56898.1	56944.2	-87.6933	0.0000000E+000	0.0000000E+000	0.0000000E+000	87.6933	0.0000000E+000	0.0000000E+000	0.0000000E+000	-87.6933	0.0000000E+000	0.0000000E+000	0.0000000E+000	-2.30669	0.0000000E+000	0.0000000E+000	0.0000000E+000	2.30669	24.8255	87.6933	-0.000696243
13658	0.106166	0.00614509	0.106343	-3.3127	248371	-0.000331171	-1.81972	1896.3	6.33202	1	37	0.00516209	0.0485418	0	-0.44505	14	0.333545	0.131329	5.75123	6.38902e-06	5.10275e-06	1.05804e-05	5.07799e-06	7.00026e-06	3.45162e-06	0.0858221	0.011946	0.399443	1.42758e-05	3.72558e-05	3.99685e-06	8.04335e-06	6.56682e-06	2.79914e-06	9.3878	0.543385	9.40351	3.3127	6332.02	109395	109578	-86.6873	0.0000000E+000	0.0000000E+000	0.0000000E+000	86.6873	0.0000000E+000	0.0000000E+000	0.0000000E+000	-86.6873	0.0000000E+000	0.0000000E+000	0.0000000E+000	-3.3127	0.0000000E+000	0.0000000E+000	0.0000000E+000	3.3127	17.2765	86.6873	-0.000580543
6816.86	0.109997	0.00650769	0.11019	-3.3858	248374	-0.000449279	-2.64487	3587.64	12.5135	1	37	0.0051685	0.0469054	0	-0.447146	14	0.248474	0.151987	5.721	4.03442e-06	4.77093e-06	3.7435e-06	4.25936e-06	5.31458e-06	4.50097e-06	0.0962045	0.0526062	0.414824	1.65904e-05	4.01164e-05	5.35279e-06	7.50774e-06	5.28877e-06	2.54367e-06	9.05941	0.535974	9.07525	3.3858	12513.5	211512	211882	-86.6142	0.0000000E+000	0.0000000E+000	0.0000000E+000	86.6142	0.0000000E+000	0.0000000E+000	0.0000000E+000	-86.6142	0.0000000E+000	0.0000000E+000	0.0000000E+000	-3.3858	0.0000000E+000	0.0000000E+000	0.0000000E+000	3.3858	16.9027	86.6142	-0.000836759
3403.27	0.113296	0.0058217	0.113445	-2.94155	248378	-0.000450938	-2.67973	8032.93	21.1544	1	37	0.00515163	0.0454107	0	-0.450115	14	0.323235	0.177475	5.78726	5.62351e-06	6.79273e-06	9.76431e-06	5.62835e-06	5.54954e-06	4.91377e-06	0.0691815	0.0491631	0.436647	1.07039e-05	2.75416e-05	4.57233e-06	5.32091e-06	5.60607e-06	3.69951e-06	8.8032	0.452352	8.81482	2.94155	21154.4	411685	412228	-87.0584	0.0000000E+000	0.0000000E+000	0.0000000E+000	87.0584	0.0000000E+000	0.0000000E+000	0.0000000E+000	-87.0584	0.0000000E+000	0.0000000E+000	0.0000000E+000	-2.94155	0.0000000E+000	0.0000000E+000	0.0000000E+000	2.94155	19.461	87.0584	-0.00100477
1698.37	0.115745	0.00484567	0.115847	-2.39729	248382	-0.000446352	-2.63346	19339	33.8358	1	37	0.00514506	0.0444127	0	-0.45311	14	0.300681	0.139673	5.80071	6.19718e-06	5.97467e-06	6.44909e-06	6.62458e-06	3.33043e-06	4.59946e-06	0.0408865	0.059631	0.439794	1.18945e-05	9.90418e-06	4.49209e-06	4.74357e-06	4.29167e-06	3.72273e-06	8.62456	0.361067	8.63211	2.39729	33835.8	808212	808920	-87.6027	0.0000000E+000	0.0000000E+000	0.0000000E+000	87.6027	0.0000000E+000	0.0000000E+000	0.0000000E+000	-87.6027	0.0000000E+000	0.0000000E+000	0.0000000E+000	-2.39729	0.0000000E+000	0.0000000E+000	0.0000000E+000	2.39729	23.8863	87.6027	-0.00106914
847.556	0.117769	0.00388019	0.117833	-1.88707	248386	-0.000447452	-2.61911	48394.8	52.4772	1	37	0.00513997	0.0436208	0	-0.455977	14	0.280819	0.187846	5.85536	9.38067e-06	3.04568e-06	4.2434e-06	4.01163e-06	4.75739e-06	5.58202e-06	0.0425291	0.0955658	0.45234	7.25419e-06	1.04651e-05	5.67934e-06	9.05214e-06	3.01105e-06	6.35774e-06	8.48198	0.27946	8.48659	1.88707	52477.3	1.59276e+06	1.59362e+06	-88.1129	0.0000000E+000	0.0000000E+000	0.0000000E+000	88.1129	0.0000000E+000	0.0000000E+000	0.0000000E+000	-88.1129	0.0000000E+000	0.0000000E+000	0.0000000E+000	-1.88707	0.0000000E+000	0.0000000E+000	0.0000000E+000	1.88707	30.3514	88.1129	-0.000912383
423.239	0.119237	0.00288241	0.119272	-1.38479	248390	-0.000423648	-2.61872	130460	76.193	1	37	0.00547789	0.0459278	0	-0.458555	14	0.283622	0.153873	5.46038	3.93745e-06	7.86784e-06	5.28407e-06	6.03931e-06	5.00267e-06	7.77957e-06	0.0658787	0.0146208	0.422061	6.19493e-06	2.45525e-05	4.1543e-06	1.33679e-05	5.49235e-06	2.54246e-06	8.38177	0.202619	8.38422	1.38479	76193.1	3.15188e+06	3.1528e+06	-88.6152	0.0000000E+000	0.0000000E+000	0.0000000E+000	88.6152	0.0000000E+000	0.0000000E+000	0.0000000E+000	-88.6152	0.0000000E+000	0.0000000E+000	0.0000000E+000	-1.38479	0.0000000E+000	0.0000000E+000	0.0000000E+000	1.38479	41.3671	88.6152	-0.000777078
211.149	0.120112	0.00215232	0.120131	-1.02659	248393	-0.000426239	-2.6533	350207	112.416	1	37	0.00536546	0.0446634	0	-0.46112	14	0.246236	0.195773	5.62802	4.46223e-06	4.49338e-06	6.32866e-06	5.30247e-06	3.82043e-06	5.37014e-06	0.0730365	0.013211	0.431476	4.40566e-06	2.5187e-05	3.35798e-06	1.894e-05	3.78212e-06	2.95708e-06	8.32292	0.149141	8.32425	1.02659	112416	6.27346e+06	6.27447e+06	-88.9734	0.0000000E+000	0.0000000E+000	0.0000000E+000	88.9734	0.0000000E+000	0.0000000E+000	0.0000000E+000	-88.9734	0.0000000E+000	0.0000000E+000	0.0000000E+000	-1.02659	0.0000000E+000	0.0000000E+000	0.0000000E+000	1.02659	55.8057	88.9734	-0.000823283
105.438	0.120637	0.00146224	0.120646	-0.694449	248397	-0.000416788	-2.58876	1.03229e+06	151.641	1	37	0.00506687	0.0419979	0	-0.463521	14	0.321152	0.167813	5.79476	4.18981e-06	1.12603e-05	5.41315e-06	6.12826e-06	5.01481e-06	4.17051e-06	0.0874114	0.0156339	0.457017	7.24386e-06	3.01177e-05	3.35972e-06	1.80713e-05	3.39514e-06	4.71662e-06	8.28812	0.10046	8.28872	0.694449	151641	1.25106e+07	1.25115e+07	-89.3055	0.0000000E+000	0.0000000E+000	0.0000000E+000	89.3055	0.0000000E+000	0.0000000E+000	0.0000000E+000	-89.3055	0.0000000E+000	0.0000000E+000	0.0000000E+000	-0.694449	0.0000000E+000	0.0000000E+000	0.0000000E+000	0.694449	82.5014	89.3055	-0.000845897
52.6255	0.121065	0.00131169	0.121072	-0.620752	248400	-0.000421523	-2.63095	2.30565e+06	270.624	1	37	0.00510528	0.0421673	0	-0.465832	14	0.273228	0.193084	5.87184	7.66984e-06	7.01169e-06	3.56697e-06	3.98935e-06	3.82703e-06	3.13674e-06	0.112216	0.0185553	0.457821	5.24034e-06	3.476e-05	4.07872e-06	2.90765e-05	7.91755e-06	6.46351e-06	8.25906	0.0894835	8.25954	0.620752	270624	2.49778e+07	2.49793e+07	-89.3792	0.0000000E+000	0.0000000E+000	0.0000000E+000	89.3792	0.0000000E+000	0.0000000E+000	0.0000000E+000	-89.3792	0.0000000E+000	0.0000000E+000	0.0000000E+000	-0.620752	0.0000000E+000	0.0000000E+000	0.0000000E+000	0.620752	92.297	89.3792	-0.000799643
26.2693	0.121524	0.00138197	0.121532	-0.651538	248404	-0.000424021	-2.65319	4.38402e+06	566.875	1	37	0.00511538	0.0420907	0	-0.468227	14	0.394887	0.143774	5.82918	7.06377e-06	5.82359e-06	5.71651e-06	6.51676e-06	6.61351e-06	1.3235e-05	0.115095	0.0259621	0.456362	3.64253e-06	3.622e-05	6.99165e-06	2.89861e-05	8.82869e-06	6.86351e-06	8.22774	0.0935656	8.22827	0.651538	566873	4.98484e+07	4.98517e+07	-89.3485	0.0000000E+000	0.0000000E+000	0.0000000E+000	89.3485	0.0000000E+000	0.0000000E+000	0.0000000E+000	-89.3485	0.0000000E+000	0.0000000E+000	0.0000000E+000	-0.651538	0.0000000E+000	0.0000000E+000	0.0000000E+000	0.651538	87.9355	89.3485	-0.000871681
13.1083	0.122056	0.00146059	0.122065	-0.685599	248407	-0.000411662	-2.52727	8.31282e+06	1190.21	1	37	0.00511806	0.0419291	0	-0.470609	14	0.417087	0.157398	4.0533	1.22789e-05	5.02554e-06	9.24833e-06	5.01233e-06	1.02656e-05	5.62017e-06	0.100302	0.0623558	0.331066	4.0166e-06	2.95912e-05	5.90895e-06	2.69362e-05	6.12183e-06	5.57626e-06	8.1918	0.0980274	8.19238	0.685599	1.19021e+06	9.94614e+07	9.94685e+07	-89.3144	0.0000000E+000	0.0000000E+000	0.0000000E+000	89.3144	0.0000000E+000	0.0000000E+000	0.0000000E+000	-89.3144	0.0000000E+000	0.0000000E+000	0.0000000E+000	-0.685599	0.0000000E+000	0.0000000E+000	0.0000000E+000	0.685599	83.5664	89.3144	-0.00103024
6.54313	0.12262	0.00176199	0.122633	-0.823255	248410	-0.000414048	-2.57644	1.38048e+07	2849.86	1	37	0.00511716	0.0417274	0	-0.473352	14	0.236641	0.0873708	4.20482	6.55418e-06	6.77995e-06	2.83335e-06	2.4375e-06	4.07556e-06	4.60286e-06	0.134056	0.0463872	0.34497	1.40713e-05	4.44367e-05	4.82964e-06	2.76924e-05	7.17589e-06	6.83227e-06	8.15357	0.117163	8.15442	0.823255	2.84987e+06	1.98327e+08	1.98348e+08	-89.1767	0.0000000E+000	0.0000000E+000	0.0000000E+000	89.1767	0.0000000E+000	0.0000000E+000	0.0000000E+000	-89.1767	0.0000000E+000	0.0000000E+000	0.0000000E+000	-0.823255	0.0000000E+000	0.0000000E+000	0.0000000E+000	0.823255	69.5919	89.1767	-0.0010305
3.26541	0.123198	0.0019922	0.123214	-0.926438	248416	-0.000410886	-2.58965	2.44652e+07	6395.85	1	37	0.00511746	0.0415332	0	-0.477178	14	0.137896	0.068372	2.49601	1.83544e-06	3.70945e-06	2.9105e-06	2.1151e-06	1.62646e-06	3.12581e-06	0.129917	0.0715499	0.243958	1.15968e-05	3.32707e-05	8.71863e-06	3.72476e-05	9.02773e-06	7.01687e-06	8.11492	0.131225	8.11598	0.926438	6.39584e+06	3.95518e+08	3.9557e+08	-89.0736	0.0000000E+000	0.0000000E+000	0.0000000E+000	89.0736	0.0000000E+000	0.0000000E+000	0.0000000E+000	-89.0736	0.0000000E+000	0.0000000E+000	0.0000000E+000	-0.926438	0.0000000E+000	0.0000000E+000	0.0000000E+000	0.926438	61.8399	89.0736	-0.00153787
1.63084	0.123769	0.00285716	0.123802	-1.32242	248426	-0.00040378	-2.51573	3.41566e+07	18192.4	1	37	0.00511868	0.0413457	0	-0.48451	14	0.139826	0.0633938	1.70477	1.64192e-06	3.54125e-06	2.93031e-06	3.40132e-06	2.34147e-06	1.56876e-06	0.133729	0.162643	0.199486	1.8722e-05	3.812e-05	6.98723e-06	3.18262e-05	8.06699e-06	5.90154e-06	8.07527	0.186415	8.07742	1.32242	1.81924e+07	7.88074e+08	7.88284e+08	-88.6776	0.0000000E+000	0.0000000E+000	0.0000000E+000	88.6776	0.0000000E+000	0.0000000E+000	0.0000000E+000	-88.6776	0.0000000E+000	0.0000000E+000	0.0000000E+000	-1.32242	0.0000000E+000	0.0000000E+000	0.0000000E+000	1.32242	43.3188	88.6776	-0.00261119
0.813551	0.124618	0.00449509	0.124699	-2.06581	248446	-0.000410659	-2.61735	4.35208e+07	56551.7	1	37	0.00511858	0.0410474	0	-0.497465	14	0.145649	0.0712439	1.20365	2.69102e-06	3.8971e-06	1.94786e-06	3.90278e-06	1.9594e-06	1.88867e-06	0.150407	0.155356	0.217242	3.37695e-05	3.46233e-05	2.85123e-06	3.46539e-05	9.98286e-06	6.86356e-06	8.01408	0.289075	8.01929	2.06581	5.65516e+07	1.56779e+09	1.56881e+09	-87.9342	0.0000000E+000	0.0000000E+000	0.0000000E+000	87.9342	0.0000000E+000	0.0000000E+000	0.0000000E+000	-87.9342	0.0000000E+000	0.0000000E+000	0.0000000E+000	-2.06581	0.0000000E+000	0.0000000E+000	0.0000000E+000	2.06581	27.7232	87.9342	-0.0041043
0.406108	0.126282	0.00747783	0.126504	-3.38882	248483	-0.000404589	-2.45328	5.24086e+07	183126	1	37	0.00511588	0.0404406	0	-0.526982	14	0.118343	0.0548656	0.852152	2.02066e-06	4.2536e-06	1.07853e-06	3.00415e-06	1.56678e-06	8.52819e-07	0.172911	0.304387	0.207442	1.67596e-05	4.0786e-05	4.12705e-05	3.16579e-05	7.81016e-06	5.55599e-06	7.8911	0.467273	7.90492	3.38882	1.83126e+08	3.09254e+09	3.09796e+09	-86.6112	0.0000000E+000	0.0000000E+000	0.0000000E+000	86.6112	0.0000000E+000	0.0000000E+000	0.0000000E+000	-86.6112	0.0000000E+000	0.0000000E+000	0.0000000E+000	-3.38882	0.0000000E+000	0.0000000E+000	0.0000000E+000	3.38882	16.8876	86.6112	-0.0116187
0.202719	0.130106	0.0126123	0.130716	-5.53689	248557	-0.000398456	-2.37713	6.22488e+07	579515	1	37	0.00511411	0.039124	0	-0.571407	14	0.103493	0.113414	0.591977	1.57736e-06	3.99378e-06	1.04889e-06	2.41132e-06	8.51596e-07	3.82467e-07	0.299073	0.131945	0.206173	1.82801e-05	3.16154e-05	0.000103026	2.82322e-05	2.65899e-05	6.09598e-06	7.6145	0.738141	7.6502	5.53689	5.79515e+08	5.97815e+09	6.00618e+09	-84.4631	0.0000000E+000	0.0000000E+000	0.0000000E+000	84.4631	0.0000000E+000	0.0000000E+000	0.0000000E+000	-84.4631	0.0000000E+000	0.0000000E+000	0.0000000E+000	-5.53689	0.0000000E+000	0.0000000E+000	0.0000000E+000	5.53689	10.3158	84.4631	-0.0248902
0.101164	0.139418	0.0165369	0.140395	-6.76448	248704	-0.000408728	-2.56398	9.51348e+07	1.31991e+06	1	37	0.00510912	0.0363909	0	-0.682908	14	0.106538	0.0640644	0.444086	1.47395e-06	3.79271e-06	1.68595e-06	2.53278e-06	1.23128e-06	5.38541e-07	0.135141	0.0899339	0.395112	1.26749e-05	2.9869e-05	1.30451e-05	3.17204e-05	6.76716e-06	7.67272e-06	7.07316	0.838976	7.12275	6.76448	1.31991e+09	1.11278e+10	1.12058e+10	-83.2355	0.0000000E+000	0.0000000E+000	0.0000000E+000	83.2355	0.0000000E+000	0.0000000E+000	0.0000000E+000	-83.2355	0.0000000E+000	0.0000000E+000	0.0000000E+000	-6.76448	0.0000000E+000	0.0000000E+000	0.0000000E+000	6.76448	8.43071	83.2355	-0.0372785
0.0505041	0.149901	0.0138811	0.150542	-5.29063	248998	-0.000402478	-2.54594	2.27022e+08	1.93021e+06	1	37	0.00510706	0.0339245	0	-0.850533	14	0.122248	0.097495	0.332123	2.02499e-06	4.65108e-06	1.3883e-06	2.51639e-06	1.65399e-06	8.06664e-07	0.160971	0.10156	0.475041	1.64403e-05	3.5487e-05	1.09912e-05	3.33638e-05	8.94746e-06	4.12027e-06	6.61437	0.612506	6.64267	5.29063	1.93021e+09	2.08441e+10	2.09332e+10	-84.7094	0.0000000E+000	0.0000000E+000	0.0000000E+000	84.7094	0.0000000E+000	0.0000000E+000	0.0000000E+000	-84.7094	0.0000000E+000	0.0000000E+000	0.0000000E+000	-5.29063	0.0000000E+000	0.0000000E+000	0.0000000E+000	5.29063	10.7989	84.7094	-0.0790925
0.0252177	0.15501	0.00851185	0.155243	-3.14305	249585	-0.000408239	-2.6479	7.41466e+08	2.22901e+06	1	37	0.00510247	0.0328675	0	-1.34099	14	0.119278	0.0875916	0.259276	2.11844e-06	4.56309e-06	1.73742e-06	2.6356e-06	6.25539e-07	8.46477e-07	0.165592	0.10522	0.520005	1.53983e-05	3.9307e-05	8.88605e-06	3.06293e-05	5.56693e-06	8.0233e-06	6.43181	0.353181	6.4415	3.14305	2.22901e+09	4.05927e+10	4.06538e+10	-86.8569	0.0000000E+000	0.0000000E+000	0.0000000E+000	86.8569	0.0000000E+000	0.0000000E+000	0.0000000E+000	-86.8569	0.0000000E+000	0.0000000E+000	0.0000000E+000	-3.14305	0.0000000E+000	0.0000000E+000	0.0000000E+000	3.14305	18.2111	86.8569	-0.210398
174510	0.0939459	-0.0145808	0.0950707	8.82218	249893	-0.000307665	-1.39871	-62.5486	-1.47126	2	37	0.00476054	0.0500737	0	-1.5726	14	-1	-1	-1	0	0	0	0	0	0	-1	-1	-1	0	0	0	0	0	0	10.3941	-1.6132	10.5185	-8.82218	-1471.26	9479.48	9592.97	-98.8222	0.0000000E+000	0.0000000E+000	0.0000000E+000	98.8222	0.0000000E+000	0.0000000E+000	0.0000000E+000	-98.8222	0.0000000E+000	0.0000000E+000	0.0000000E+000	8.82218	0.0000000E+000	0.0000000E+000	0.0000000E+000	-8.82218	6.44311	81.1778	-0.000420053
87106.6	0.0974247	-0.00466957	0.0975365	2.74409	249897	-0.000325598	-1.72743	-391.284	-0.896834	2	37	0.00522941	0.0536149	0	-1.57403	14	0.350638	0.158162	5.73706	9.66225e-06	5.80504e-06	5.76758e-06	6.36084e-06	6.31967e-06	6.86009e-06	0.0886585	0.0244597	0.364353	1.78857e-05	4.29878e-05	3.67936e-06	5.40882e-06	4.89618e-06	2.53845e-06	10.2408	-0.490843	10.2526	-2.74409	-896.834	18711.3	18732.8	-92.7441	0.0000000E+000	0.0000000E+000	0.0000000E+000	92.7441	0.0000000E+000	0.0000000E+000	0.0000000E+000	-92.7441	0.0000000E+000	0.0000000E+000	0.0000000E+000	2.74409	0.0000000E+000	0.0000000E+000	0.0000000E+000	-2.74409	20.8637	87.2559	-0.000485098
43479.1	0.09992	0.00135557	0.0999292	-0.777259	249900	-0.000312139	-1.74412	2700.34	0.496909	2	37	0.00519388	0.0519756	0	-1.57569	14	0.323731	0.20745	5.7222	6.78586e-06	6.03251e-06	8.02252e-06	4.25867e-06	7.2969e-06	5.3815e-06	0.108249	0.036513	0.365289	9.36423e-06	5.40137e-05	1.98559e-06	8.68385e-06	4.10743e-06	7.05812e-06	10.0062	0.135749	10.0071	0.777259	496.91	36627.5	36630.9	-89.2227	0.0000000E+000	0.0000000E+000	0.0000000E+000	89.2227	0.0000000E+000	0.0000000E+000	0.0000000E+000	-89.2227	0.0000000E+000	0.0000000E+000	0.0000000E+000	-0.777259	0.0000000E+000	0.0000000E+000	0.0000000E+000	0.777259	73.7107	89.2227	-0.000535632
21702.4	0.103435	0.00494758	0.103553	-2.73854	249904	-0.000322354	-1.76563	1482.24	3.38361	2	37	0.00517831	0.0500064	0	-1.57728	14	0.303027	0.174497	5.76607	5.77943e-06	6.56674e-06	4.66318e-06	5.39539e-06	4.73942e-06	7.96602e-06	0.109694	0.0530257	0.384701	8.88466e-06	5.19776e-05	3.60272e-06	9.46857e-06	7.81121e-06	5.37467e-06	9.64587	0.46139	9.6569	2.73854	3383.62	70738.1	70819	-87.2615	0.0000000E+000	0.0000000E+000	0.0000000E+000	87.2615	0.0000000E+000	0.0000000E+000	0.0000000E+000	-87.2615	0.0000000E+000	0.0000000E+000	0.0000000E+000	-2.73854	0.0000000E+000	0.0000000E+000	0.0000000E+000	2.73854	20.9061	87.2615	-0.000489213
10837.3	0.10743	0.00643428	0.107622	-3.42751	249907	-0.000307945	-1.73653	2282.44	8.15819	2	37	0.00514871	0.0478405	0	-1.57885	14	0.315624	0.240788	5.79554	6.43842e-06	5.75186e-06	4.36233e-06	6.93966e-06	8.28501e-06	6.02431e-06	0.0768921	0.0302528	0.401013	4.80712e-06	3.55803e-05	3.63142e-06	3.22252e-06	4.53274e-06	3.65837e-06	9.27512	0.555513	9.29174	3.42751	8158.19	136213	136457	-86.5725	0.0000000E+000	0.0000000E+000	0.0000000E+000	86.5725	0.0000000E+000	0.0000000E+000	0.0000000E+000	-86.5725	0.0000000E+000	0.0000000E+000	0.0000000E+000	-3.42751	0.0000000E+000	0.0000000E+000	0.0000000E+000	3.42751	16.6965	86.5725	-0.000478393
5406.63	0.111388	0.00631633	0.111567	-3.24552	249911	-0.000419845	-2.46979	4660.47	14.9378	2	37	0.00516834	0.0463251	0	-1.58146	14	0.323228	0.106049	5.74394	3.48145e-06	9.82073e-06	5.54145e-06	7.95927e-06	3.67034e-06	6.11199e-06	0.0894678	0.098729	0.423703	6.02752e-06	3.92505e-05	3.10676e-06	9.48436e-06	4.04819e-06	3.97348e-06	8.94886	0.507451	8.96323	3.24552	14937.9	263428	263851	-86.7545	0.0000000E+000	0.0000000E+000	0.0000000E+000	86.7545	0.0000000E+000	0.0000000E+000	0.0000000E+000	-86.7545	0.0000000E+000	0.0000000E+000	0.0000000E+000	-3.24552	0.0000000E+000	0.0000000E+000	0.0000000E+000	3.24552	17.6349	86.7545	-0.000831319
2699.14	0.114176	0.00552107	0.11431	-2.76842	249915	-0.000414551	-2.45585	10680	24.9146	2	37	0.00515462	0.0450935	0	-1.58414	14	0.362204	0.180141	5.85156	7.76796e-06	7.6196e-06	8.63065e-06	7.47559e-06	4.06402e-06	5.9487e-06	0.0562259	0.0165318	0.430712	5.5494e-06	2.25758e-05	2.81651e-06	5.16076e-06	5.72527e-06	4.76129e-06	8.73796	0.422531	8.74817	2.76842	24914.6	515235	515837	-87.2316	0.0000000E+000	0.0000000E+000	0.0000000E+000	87.2316	0.0000000E+000	0.0000000E+000	0.0000000E+000	-87.2316	0.0000000E+000	0.0000000E+000	0.0000000E+000	-2.76842	0.0000000E+000	0.0000000E+000	0.0000000E+000	2.76842	20.6801	87.2316	-0.00089886
1347.15	0.116435	0.00437306	0.116517	-2.1509	249919	-0.000433565	-2.50597	27015.8	38.0549	2	37	0.00515415	0.0442352	0	-1.58684	14	0.309016	0.186657	5.82525	2.80547e-06	7.87678e-06	5.10098e-06	6.30438e-06	3.92355e-06	8.7051e-06	0.0316111	0.0355361	0.431588	3.53494e-06	4.83724e-06	1.87063e-06	7.67607e-06	6.77361e-06	5.33696e-06	8.5764	0.322112	8.58245	2.1509	38054.8	1.01323e+06	1.01394e+06	-87.8491	0.0000000E+000	0.0000000E+000	0.0000000E+000	87.8491	0.0000000E+000	0.0000000E+000	0.0000000E+000	-87.8491	0.0000000E+000	0.0000000E+000	0.0000000E+000	-2.1509	0.0000000E+000	0.0000000E+000	0.0000000E+000	2.1509	26.6255	87.8491	-0.000948408
672.366	0.118228	0.0035494	0.118281	-1.71959	249923	-0.000404373	-2.53071	66689.8	60.0532	2	37	0.00505534	0.04274	0	-1.58959	14	0.31865	0.167043	5.90923	7.87516e-06	8.61001e-06	4.56144e-06	5.79034e-06	3.17432e-06	5.51055e-06	0.0529948	0.00696983	0.454658	1.80241e-06	1.6699e-05	1.99929e-06	1.31443e-05	5.4031e-06	3.53076e-06	8.45061	0.253701	8.45441	1.71959	60053.2	2.00033e+06	2.00123e+06	-88.2804	0.0000000E+000	0.0000000E+000	0.0000000E+000	88.2804	0.0000000E+000	0.0000000E+000	0.0000000E+000	-88.2804	0.0000000E+000	0.0000000E+000	0.0000000E+000	-1.71959	0.0000000E+000	0.0000000E+000	0.0000000E+000	1.71959	33.3093	88.2804	-0.000929686
335.537	0.119526	0.00259362	0.119554	-1.24308	249926	-0.000377195	-2.42846	182883	86.0707	2	37	0.00506289	0.042348	0	-1.59226	14	0.34216	0.244803	5.80883	4.50196e-06	6.21263e-06	8.71422e-06	8.10142e-06	4.67853e-06	6.79086e-06	0.0666538	0.0178463	0.456556	4.54059e-06	2.25333e-05	3.01767e-06	1.38244e-05	4.89805e-06	4.71518e-06	8.36242	0.181458	8.36439	1.24308	86071	3.96654e+06	3.96748e+06	-88.7569	0.0000000E+000	0.0000000E+000	0.0000000E+000	88.7569	0.0000000E+000	0.0000000E+000	0.0000000E+000	-88.7569	0.0000000E+000	0.0000000E+000	0.0000000E+000	-1.24308	0.0000000E+000	0.0000000E+000	0.0000000E+000	1.24308	46.0847	88.7569	-0.000904255
167.481	0.120353	0.00178599	0.120366	-0.850186	249930	-0.000406536	-2.45319	532079	117.146	2	37	0.00544515	0.0452383	0	-1.59452	14	0.312443	0.178829	5.49173	5.81789e-06	6.4699e-06	9.10747e-06	3.13287e-06	5.2495e-06	8.17295e-06	0.0960225	0.0198548	0.437364	4.54568e-06	3.47891e-05	7.03566e-06	2.29016e-05	6.69212e-06	3.78655e-06	8.30708	0.123274	8.308	0.850186	117146	7.89412e+06	7.89499e+06	-89.1498	0.0000000E+000	0.0000000E+000	0.0000000E+000	89.1498	0.0000000E+000	0.0000000E+000	0.0000000E+000	-89.1498	0.0000000E+000	0.0000000E+000	0.0000000E+000	-0.850186	0.0000000E+000	0.0000000E+000	0.0000000E+000	0.850186	67.3871	89.1498	-0.000792748
83.635	0.120893	0.00142176	0.120902	-0.673795	249933	-0.000398427	-2.47925	1.33846e+06	185.095	2	37	0.00508841	0.0420872	0	-1.59688	14	0.344981	0.271463	5.78047	7.87805e-06	7.07463e-06	6.23582e-06	8.23569e-06	4.3392e-06	6.95293e-06	0.10204	0.0185201	0.469213	4.05363e-06	3.3064e-05	2.32571e-06	2.49477e-05	7.09077e-06	6.9125e-06	8.27061	0.0972664	8.27118	0.673795	185096	1.57387e+07	1.57398e+07	-89.3262	0.0000000E+000	0.0000000E+000	0.0000000E+000	89.3262	0.0000000E+000	0.0000000E+000	0.0000000E+000	-89.3262	0.0000000E+000	0.0000000E+000	0.0000000E+000	-0.673795	0.0000000E+000	0.0000000E+000	0.0000000E+000	0.673795	85.0305	89.3262	-0.00075363
41.7501	0.121247	0.00141072	0.121256	-0.666611	249937	-0.000413694	-2.48984	2.70222e+06	365.763	2	37	0.00510989	0.0421414	0	-1.59924	14	0.346076	0.162137	5.82833	6.44673e-06	9.38991e-06	8.29258e-06	6.24545e-06	3.4459e-06	6.33487e-06	0.11406	0.0260981	0.46997	6.56192e-06	3.6212e-05	5.39131e-06	2.86337e-05	7.61539e-06	4.0093e-06	8.24648	0.0959485	8.24704	0.666611	365763	3.14363e+07	3.14384e+07	-89.3334	0.0000000E+000	0.0000000E+000	0.0000000E+000	89.3334	0.0000000E+000	0.0000000E+000	0.0000000E+000	-89.3334	0.0000000E+000	0.0000000E+000	0.0000000E+000	-0.666611	0.0000000E+000	0.0000000E+000	0.0000000E+000	0.666611	85.9469	89.3334	-0.000778994
20.8333	0.121699	0.00136432	0.121706	-0.642295	249940	-0.00040141	-2.4552	5.59945e+06	703.641	2	37	0.00511555	0.0420319	0	-1.60156	14	0.291512	0.161986	5.79643	6.93482e-06	6.63127e-06	6.15127e-06	5.1135e-06	5.914e-06	3.57142e-06	0.107445	0.107433	0.454932	2.68906e-06	3.494e-05	7.59207e-06	2.60248e-05	6.39054e-06	3.18886e-06	8.21597	0.0921063	8.21649	0.642295	703642	6.27655e+07	6.27694e+07	-89.3577	0.0000000E+000	0.0000000E+000	0.0000000E+000	89.3577	0.0000000E+000	0.0000000E+000	0.0000000E+000	-89.3577	0.0000000E+000	0.0000000E+000	0.0000000E+000	-0.642295	0.0000000E+000	0.0000000E+000	0.0000000E+000	0.642295	89.201	89.3577	-0.00087199
10.3959	0.122431	0.00156106	0.122441	-0.730511	249943	-0.000394587	-2.39153	9.80709e+06	1594.13	2	37	0.00512456	0.0418533	0	-1.60383	14	0.349739	0.17229	5.83205	4.0746e-06	1.00376e-05	7.16425e-06	6.44733e-06	4.83424e-06	7.35801e-06	0.122052	0.0905328	0.450937	9.56856e-06	3.7354e-05	4.54034e-06	2.96184e-05	1.00302e-05	9.28965e-06	8.16653	0.104127	8.1672	0.730511	1.59412e+06	1.25025e+08	1.25035e+08	-89.2695	0.0000000E+000	0.0000000E+000	0.0000000E+000	89.2695	0.0000000E+000	0.0000000E+000	0.0000000E+000	-89.2695	0.0000000E+000	0.0000000E+000	0.0000000E+000	-0.730511	0.0000000E+000	0.0000000E+000	0.0000000E+000	0.730511	78.4283	89.2695	-0.000808247
5.19276	0.122758	0.00179197	0.122771	-0.836319	249947	-0.000390244	-2.43664	1.71037e+07	3643.84	2	37	0.00511296	0.0416462	0	-1.6065	14	0.199278	0.166353	3.39558	5.20886e-06	3.80626e-06	4.0004e-06	4.05655e-06	2.67724e-06	2.28343e-06	0.135514	0.101859	0.284529	1.33218e-05	4.48557e-05	9.79028e-06	2.36694e-05	9.81585e-06	7.62104e-06	8.14435	0.118888	8.14522	0.836319	3.64384e+06	2.4962e+08	2.49646e+08	-89.1637	0.0000000E+000	0.0000000E+000	0.0000000E+000	89.1637	0.0000000E+000	0.0000000E+000	0.0000000E+000	-89.1637	0.0000000E+000	0.0000000E+000	0.0000000E+000	-0.836319	0.0000000E+000	0.0000000E+000	0.0000000E+000	0.836319	68.5046	89.1637	-0.000829505
2.58949	0.123434	0.00221855	0.123454	-1.0297	249954	-0.000395759	-2.4483	2.77036e+07	8946.75	2	37	0.00511701	0.0414488	0	-1.61107	14	0.147563	0.129282	2.12294	3.49221e-06	4.13273e-06	1.53234e-06	3.62703e-06	2.05004e-06	1.92844e-06	0.143724	0.0990702	0.21362	1.64107e-05	3.02532e-05	6.84672e-06	3.36751e-05	3.29923e-05	4.71653e-06	8.09889	0.145566	8.1002	1.0297	8.94677e+06	4.97773e+08	4.97853e+08	-88.9703	0.0000000E+000	0.0000000E+000	0.0000000E+000	88.9703	0.0000000E+000	0.0000000E+000	0.0000000E+000	-88.9703	0.0000000E+000	0.0000000E+000	0.0000000E+000	-1.0297	0.0000000E+000	0.0000000E+000	0.0000000E+000	1.0297	55.6373	88.9703	-0.0018933
1.29325	0.124034	0.00328606	0.124077	-1.5176	249967	-0.000400776	-2.59276	3.74509e+07	26268.1	2	37	0.00511793	0.041248	0	-1.62029	14	0.150854	0.0619087	1.50273	2.92447e-06	4.7991e-06	1.11212e-06	4.16096e-06	1.762e-06	9.76072e-07	0.132227	0.133169	0.191866	2.14745e-05	3.71344e-05	5.98954e-06	3.03175e-05	6.68979e-06	7.98893e-06	8.05667	0.213447	8.05949	1.5176	2.62682e+07	9.91501e+08	9.91849e+08	-88.4824	0.0000000E+000	0.0000000E+000	0.0000000E+000	88.4824	0.0000000E+000	0.0000000E+000	0.0000000E+000	-88.4824	0.0000000E+000	0.0000000E+000	0.0000000E+000	-1.5176	0.0000000E+000	0.0000000E+000	0.0000000E+000	1.5176	37.7454	88.4824	-0.00264827
0.645874	0.125031	0.00534496	0.125145	-2.44785	249991	-0.00041648	-2.59877	4.61028e+07	84098.2	2	37	0.00511599	0.0408803	0	-1.6399	14	0.0993814	0.0727273	1.06894	9.66117e-07	3.24384e-06	1.10623e-06	2.26279e-06	1.69715e-06	1.77271e-06	0.138409	0.237228	0.199319	3.11272e-05	3.0131e-05	1.66239e-05	2.93827e-05	6.46676e-06	7.38537e-06	7.98341	0.341283	7.9907	2.44785	8.40981e+07	1.96725e+09	1.96905e+09	-87.5522	0.0000000E+000	0.0000000E+000	0.0000000E+000	87.5522	0.0000000E+000	0.0000000E+000	0.0000000E+000	-87.5522	0.0000000E+000	0.0000000E+000	0.0000000E+000	-2.44785	0.0000000E+000	0.0000000E+000	0.0000000E+000	2.44785	23.3924	87.5522	-0.0114794
0.322118	0.127104	0.00887017	0.127413	-3.99202	250038	-0.000408753	-2.6182	5.57022e+07	269967	2	37	0.00511534	0.0401478	0	-1.66834	14	0.115308	0.0856244	0.754489	2.57978e-06	3.98728e-06	1.38403e-06	2.21286e-06	1.21366e-06	9.29252e-07	0.319006	0.165215	0.208634	0.000102081	5.32818e-05	3.08778e-05	4.0352e-05	1.06003e-05	1.22317e-05	7.82946	0.546394	7.84851	3.99202	2.69967e+08	3.86845e+09	3.87786e+09	-86.008	0.0000000E+000	0.0000000E+000	0.0000000E+000	86.008	0.0000000E+000	0.0000000E+000	0.0000000E+000	-86.008	0.0000000E+000	0.0000000E+000	0.0000000E+000	-3.99202	0.0000000E+000	0.0000000E+000	0.0000000E+000	3.99202	14.3293	86.008	-0.0149987
0.160792	0.132679	0.0143353	0.133452	-6.16656	250131	-0.000409353	-2.64748	6.90477e+07	796731	2	37	0.00511301	0.0383136	0	-1.74249	14	0.10197	0.0968358	0.548673	1.63349e-06	3.8245e-06	6.9023e-07	2.53902e-06	1.02053e-06	4.50594e-07	0.249262	0.10587	0.260757	1.96461e-05	3.48774e-05	1.59957e-05	7.84744e-05	1.86799e-05	2.30769e-05	7.44999	0.804929	7.49335	6.16656	7.96731e+08	7.37412e+09	7.41704e+09	-83.8334	0.0000000E+000	0.0000000E+000	0.0000000E+000	83.8334	0.0000000E+000	0.0000000E+000	0.0000000E+000	-83.8334	0.0000000E+000	0.0000000E+000	0.0000000E+000	-6.16656	0.0000000E+000	0.0000000E+000	0.0000000E+000	6.16656	9.25547	83.8334	-0.0228213
0.0802383	0.143332	0.0164356	0.144272	-6.5414	250316	-0.00040645	-2.64188	1.20685e+08	1.56625e+06	2	37	0.00510874	0.0354105	0	-1.8602	14	0.0982379	0.0808055	0.396103	1.42269e-06	3.76886e-06	5.42476e-07	2.4088e-06	1.1492e-06	8.3648e-07	0.126695	0.100866	0.409086	1.15365e-05	2.9747e-05	4.88744e-06	2.9981e-05	7.29531e-06	1.8734e-06	6.88624	0.789629	6.93137	6.5414	1.56625e+09	1.36591e+10	1.37486e+10	-83.4586	0.0000000E+000	0.0000000E+000	0.0000000E+000	83.4586	0.0000000E+000	0.0000000E+000	0.0000000E+000	-83.4586	0.0000000E+000	0.0000000E+000	0.0000000E+000	-6.5414	0.0000000E+000	0.0000000E+000	0.0000000E+000	6.5414	8.72086	83.4586	-0.0587034
0.04008	0.152316	0.0120521	0.152792	-4.52414	250686	-0.000410771	-2.59184	3.29481e+08	2.05e+06	2	37	0.00510604	0.0334182	0	-2.17588	14	0.117734	0.0912478	0.29529	2.94066e-06	4.10921e-06	1.15558e-06	1.99836e-06	1.47578e-06	5.8132e-07	0.13502	0.11319	0.48923	1.14157e-05	3.10517e-05	6.1878e-06	2.84873e-05	7.08308e-06	3.63869e-06	6.52444	0.51625	6.54484	4.52414	2.05e+09	2.59081e+10	2.59891e+10	-85.4759	0.0000000E+000	0.0000000E+000	0.0000000E+000	85.4759	0.0000000E+000	0.0000000E+000	0.0000000E+000	-85.4759	0.0000000E+000	0.0000000E+000	0.0000000E+000	-4.52414	0.0000000E+000	0.0000000E+000	0.0000000E+000	4.52414	12.6381	85.4759	-0.124323
0.0199946	0.156053	0.00698477	0.156209	-2.56279	251426	-0.000403334	-2.50747	1.13961e+09	2.27849e+06	2	37	0.00510485	0.0326796	0	-2.60159	14	0.106285	0.173007	0.252374	2.5355e-06	3.66083e-06	9.03636e-07	2.29668e-06	8.79569e-07	6.19602e-07	0.151112	0.152675	0.521364	2.03714e-05	2.99038e-05	7.70138e-06	3.01712e-05	3.01647e-06	3.80734e-06	6.39528	0.286247	6.40168	2.56279	2.27849e+09	5.09058e+10	5.09567e+10	-87.4372	0.0000000E+000	0.0000000E+000	0.0000000E+000	87.4372	0.0000000E+000	0.0000000E+000	0.0000000E+000	-87.4372	0.0000000E+000	0.0000000E+000	0.0000000E+000	-2.56279	0.0000000E+000	0.0000000E+000	0.0000000E+000	2.56279	22.3419	87.4372	-0.165542
138435	0.0954097	-0.0105642	0.0959928	6.31833	251430	-0.000316035	-2.4876	-108.827	-1.31806	3	37	0.00518589	0.0540238	0	-2.60591	14	-1	-1	-1	0	0	0	0	0	0	-1	-1	-1	0	0	0	0	0	0	10.3542	-1.14646	10.4175	-6.31833	-1318.06	11903.9	11976.6	-96.3183	0.0000000E+000	0.0000000E+000	0.0000000E+000	96.3183	0.0000000E+000	0.0000000E+000	0.0000000E+000	-96.3183	0.0000000E+000	0.0000000E+000	0.0000000E+000	6.31833	0.0000000E+000	0.0000000E+000	0.0000000E+000	-6.31833	9.0314	83.6817	-0.000718901
69097	0.0982853	-0.00242013	0.0983151	1.41054	251433	-0.000301328	-1.84862	-951.748	-0.576713	3	37	0.00522062	0.0531009	0	-2.60793	14	0.321239	0.14879	5.67775	4.35314e-06	8.72501e-06	4.09046e-06	9.05821e-06	2.81466e-06	7.48056e-06	0.0906594	0.0584709	0.367024	1.43106e-05	4.46906e-05	3.85563e-06	4.81453e-06	6.69483e-06	3.55947e-06	10.1683	-0.250379	10.1714	-1.41054	-576.712	23421.2	23428.3	-91.4105	0.0000000E+000	0.0000000E+000	0.0000000E+000	91.4105	0.0000000E+000	0.0000000E+000	0.0000000E+000	-91.4105	0.0000000E+000	0.0000000E+000	0.0000000E+000	1.41054	0.0000000E+000	0.0000000E+000	0.0000000E+000	-1.41054	40.6116	88.5895	-0.000595104
34488.2	0.101072	0.00281437	0.101111	-1.595	251437	-0.000295866	-1.74142	1639.71	1.27038	3	37	0.00518891	0.0513188	0	-2.60961	14	0.332403	0.190014	5.74991	4.2082e-06	5.32435e-06	4.25782e-06	1.02312e-05	7.05066e-06	7.46313e-06	0.11251	0.0515976	0.377009	7.65152e-06	5.56129e-05	4.82521e-06	1.00525e-05	5.03402e-06	3.51077e-06	9.88628	0.275286	9.89011	1.595	1270.38	45622.9	45640.5	-88.405	0.0000000E+000	0.0000000E+000	0.0000000E+000	88.405	0.0000000E+000	0.0000000E+000	0.0000000E+000	-88.405	0.0000000E+000	0.0000000E+000	0.0000000E+000	-1.595	0.0000000E+000	0.0000000E+000	0.0000000E+000	1.595	35.9128	88.405	-0.000530932
17211.6	0.104822	0.00571794	0.104978	-3.12234	251440	-0.000292399	-1.71866	1617.18	4.79783	3	37	0.00517552	0.0493012	0	-2.6113	14	0.328739	0.168768	5.77008	6.67086e-06	7.15908e-06	7.02435e-06	5.63827e-06	6.04142e-06	6.45477e-06	0.102209	0.0134	0.391664	4.7849e-06	4.85822e-05	4.59478e-06	5.90291e-06	6.89473e-06	5.37107e-06	9.51171	0.518855	9.52585	3.12234	4797.83	87954.2	88085	-86.8777	0.0000000E+000	0.0000000E+000	0.0000000E+000	86.8777	0.0000000E+000	0.0000000E+000	0.0000000E+000	-86.8777	0.0000000E+000	0.0000000E+000	0.0000000E+000	-3.12234	0.0000000E+000	0.0000000E+000	0.0000000E+000	3.12234	18.3321	86.8777	-0.000575788
8590.41	0.108924	0.00656029	0.109121	-3.44667	251444	-0.000416825	-2.61414	2824.12	10.2074	3	37	0.00525361	0.0481448	0	-2.61305	14	0.278074	0.212486	5.71608	4.97337e-06	8.36616e-06	3.03357e-06	7.12349e-06	3.64097e-06	4.12893e-06	0.102657	0.055211	0.413134	3.30171e-06	4.73699e-05	5.70106e-06	1.07924e-05	4.33019e-06	3.49121e-06	9.14757	0.550944	9.16414	3.44667	10207.4	169478	169785	-86.5533	0.0000000E+000	0.0000000E+000	0.0000000E+000	86.5533	0.0000000E+000	0.0000000E+000	0.0000000E+000	-86.5533	0.0000000E+000	0.0000000E+000	0.0000000E+000	-3.44667	0.0000000E+000	0.0000000E+000	0.0000000E+000	3.44667	16.6035	86.5533	-0.000719372
4288.63	0.112322	0.00613775	0.11249	-3.12778	251447	-0.000422567	-2.54878	6046.34	18.0006	3	37	0.00516596	0.0459239	0	-2.61575	14	0.257522	0.189755	5.74329	4.55172e-06	8.46641e-06	2.76294e-06	4.86543e-06	3.84553e-06	4.10127e-06	0.0810002	0.0295062	0.429326	4.8572e-06	3.49376e-05	2.94775e-06	5.91637e-06	5.03719e-06	6.01187e-06	8.87647	0.485049	8.88972	3.12778	18000.6	329414	329906	-86.8722	0.0000000E+000	0.0000000E+000	0.0000000E+000	86.8722	0.0000000E+000	0.0000000E+000	0.0000000E+000	-86.8722	0.0000000E+000	0.0000000E+000	0.0000000E+000	-3.12778	0.0000000E+000	0.0000000E+000	0.0000000E+000	3.12778	18.3002	86.8722	-0.000972483
2140.69	0.115109	0.0051557	0.115225	-2.56454	251451	-0.000435093	-2.53341	14420.5	28.8712	3	37	0.00514319	0.0446362	0	-2.61849	14	0.317414	0.17434	5.84745	7.26603e-06	4.52952e-06	6.55531e-06	5.45076e-06	6.1568e-06	6.49774e-06	0.0420327	0.0255689	0.441014	4.59732e-06	1.48881e-05	3.43133e-06	3.37265e-06	6.10016e-06	4.55528e-06	8.67001	0.388327	8.6787	2.56454	28871.2	644595	645241	-87.4355	0.0000000E+000	0.0000000E+000	0.0000000E+000	87.4355	0.0000000E+000	0.0000000E+000	0.0000000E+000	-87.4355	0.0000000E+000	0.0000000E+000	0.0000000E+000	-2.56454	0.0000000E+000	0.0000000E+000	0.0000000E+000	2.56454	22.3266	87.4355	-0.0009547
1068.29	0.117275	0.00421972	0.117351	-2.06069	251455	-0.000419733	-2.49012	35305.8	45.6499	3	37	0.00508075	0.0432953	0	-2.62102	14	0.297133	0.21624	5.87121	5.97846e-06	5.83286e-06	3.32814e-06	7.02225e-06	6.51412e-06	5.81025e-06	0.0449654	0.0897199	0.459251	4.28061e-06	6.36526e-06	4.8216e-06	1.35649e-05	7.8573e-06	5.17112e-06	8.51593	0.306415	8.52144	2.06069	45649.8	1.26871e+06	1.26953e+06	-87.9393	0.0000000E+000	0.0000000E+000	0.0000000E+000	87.9393	0.0000000E+000	0.0000000E+000	0.0000000E+000	-87.9393	0.0000000E+000	0.0000000E+000	0.0000000E+000	-2.06069	0.0000000E+000	0.0000000E+000	0.0000000E+000	2.06069	27.7921	87.9393	-0.000846355
533.464	0.118861	0.00331551	0.118907	-1.5978	251459	-0.000393804	-2.51042	89984	69.9603	3	37	0.00509163	0.0428203	0	-2.62393	14	0.225547	0.170131	5.81289	4.64389e-06	6.83268e-06	2.44767e-06	3.86406e-06	3.24699e-06	4.75365e-06	0.0543469	0.0130123	0.456151	3.97103e-06	1.89233e-05	2.76715e-06	1.08006e-05	5.20658e-06	2.36256e-06	8.40668	0.234497	8.40995	1.5978	69960.4	2.50807e+06	2.50905e+06	-88.4022	0.0000000E+000	0.0000000E+000	0.0000000E+000	88.4022	0.0000000E+000	0.0000000E+000	0.0000000E+000	-88.4022	0.0000000E+000	0.0000000E+000	0.0000000E+000	-1.5978	0.0000000E+000	0.0000000E+000	0.0000000E+000	1.5978	35.8499	88.4022	-0.000942428
266.278	0.12004	0.00239886	0.120064	-1.14484	251463	-0.00041621	-2.54439	249161	99.464	3	37	0.00524799	0.0437101	0	-2.62638	14	0.296685	0.101708	5.65222	6.23569e-06	9.27512e-06	3.28235e-06	3.24547e-06	7.25986e-06	5.59325e-06	0.0790517	0.0157299	0.443278	5.47562e-06	2.7647e-05	3.80473e-06	1.63901e-05	8.95593e-06	2.4483e-06	8.32725	0.166411	8.32891	1.14484	99463.8	4.97722e+06	4.97821e+06	-88.8552	0.0000000E+000	0.0000000E+000	0.0000000E+000	88.8552	0.0000000E+000	0.0000000E+000	0.0000000E+000	-88.8552	0.0000000E+000	0.0000000E+000	0.0000000E+000	-1.14484	0.0000000E+000	0.0000000E+000	0.0000000E+000	1.14484	50.0404	88.8552	-0.000725794
132.916	0.12069	0.00155803	0.1207	-0.739612	251466	-0.000413601	-2.59849	768541	128.058	3	37	0.00504171	0.0417707	0	-2.62901	14	0.300078	0.18523	5.9435	4.92628e-06	6.6146e-06	6.44983e-06	7.60977e-06	3.8033e-06	4.69333e-06	0.0925326	0.0121283	0.475597	5.43084e-06	2.99005e-05	2.62764e-06	2.15949e-05	5.45751e-06	5.55601e-06	8.28433	0.106946	8.28502	0.739612	128057	9.91973e+06	9.92056e+06	-89.2604	0.0000000E+000	0.0000000E+000	0.0000000E+000	89.2604	0.0000000E+000	0.0000000E+000	0.0000000E+000	-89.2604	0.0000000E+000	0.0000000E+000	0.0000000E+000	-0.739612	0.0000000E+000	0.0000000E+000	0.0000000E+000	0.739612	77.4631	89.2604	-0.00104478
66.3374	0.121098	0.00138921	0.121106	-0.657254	251470	-0.000407393	-2.56815	1.72701e+06	227.247	3	37	0.00510129	0.0421225	0	-2.6315	14	0.273606	0.174688	5.78565	5.61218e-06	3.21797e-06	4.40012e-06	6.79466e-06	4.58912e-06	6.65259e-06	0.104007	0.0205473	0.461741	6.36432e-06	3.14086e-05	5.65878e-06	2.67621e-05	5.76304e-06	8.93509e-06	8.25669	0.0947186	8.25723	0.657254	227248	1.98092e+07	1.98105e+07	-89.3427	0.0000000E+000	0.0000000E+000	0.0000000E+000	89.3427	0.0000000E+000	0.0000000E+000	0.0000000E+000	-89.3427	0.0000000E+000	0.0000000E+000	0.0000000E+000	-0.657254	0.0000000E+000	0.0000000E+000	0.0000000E+000	0.657254	87.1707	89.3427	-0.000866193
33.1038	0.121545	0.00128475	0.121551	-0.605604	251473	-0.000413955	-2.62825	3.74217e+06	418.062	3	37	0.00511548	0.0420849	0	-2.63401	14	0.311186	0.132541	5.82936	4.32383e-06	7.0504e-06	6.81947e-06	5.16493e-06	6.19054e-06	5.28691e-06	0.115206	0.0278504	0.465638	4.30006e-06	3.63266e-05	4.84517e-06	3.02061e-05	6.28753e-06	4.9914e-06	8.22651	0.0869558	8.22697	0.605604	418063	3.9551e+07	3.95532e+07	-89.3944	0.0000000E+000	0.0000000E+000	0.0000000E+000	89.3944	0.0000000E+000	0.0000000E+000	0.0000000E+000	-89.3944	0.0000000E+000	0.0000000E+000	0.0000000E+000	-0.605604	0.0000000E+000	0.0000000E+000	0.0000000E+000	0.605604	94.6058	89.3944	-0.000894319
16.5286	0.121939	0.00143721	0.121948	-0.67527	251476	-0.000417217	-2.55814	6.69986e+06	930.583	3	37	0.00511539	0.0419474	0	-2.63643	14	0.224727	0.226619	5.80612	4.59089e-06	3.7228e-06	4.38733e-06	4.36746e-06	5.58115e-06	2.49639e-06	0.113918	0.0269665	0.460543	7.57324e-06	3.34574e-05	4.15615e-06	3.01298e-05	7.01574e-06	8.74629e-06	8.19966	0.0966431	8.20023	0.67527	930583	7.89551e+07	7.89606e+07	-89.3247	0.0000000E+000	0.0000000E+000	0.0000000E+000	89.3247	0.0000000E+000	0.0000000E+000	0.0000000E+000	-89.3247	0.0000000E+000	0.0000000E+000	0.0000000E+000	-0.67527	0.0000000E+000	0.0000000E+000	0.0000000E+000	0.67527	84.8448	89.3247	-0.000912516
8.24973	0.122615	0.00153915	0.122625	-0.719179	251480	-0.000408465	-2.5543	1.25343e+07	1974.72	3	37	0.00511857	0.0417419	0	-2.63859	14	0.187311	0.123367	4.09458	4.07124e-06	3.95342e-06	2.95568e-06	3.63294e-06	2.00521e-06	4.55746e-06	0.128348	0.08048	0.334859	3.01406e-05	3.35712e-05	5.08915e-06	2.45468e-05	9.58193e-06	4.63929e-06	8.15433	0.102359	8.15497	0.719179	1.97472e+06	1.57315e+08	1.57327e+08	-89.2808	0.0000000E+000	0.0000000E+000	0.0000000E+000	89.2808	0.0000000E+000	0.0000000E+000	0.0000000E+000	-89.2808	0.0000000E+000	0.0000000E+000	0.0000000E+000	-0.719179	0.0000000E+000	0.0000000E+000	0.0000000E+000	0.719179	79.6642	89.2808	-0.000590486
4.11618	0.123211	0.00186007	0.123225	-0.864903	251485	-0.000410357	-2.55768	2.07873e+07	4736.46	3	37	0.00511964	0.0415469	0	-2.64266	14	0.191396	0.0879542	2.86778	3.58138e-06	5.06772e-06	3.28519e-06	2.91015e-06	3.96135e-06	3.06339e-06	0.128585	0.0891012	0.26627	1.68088e-05	3.41981e-05	1.76518e-05	3.07593e-05	6.6847e-06	5.42127e-06	8.11429	0.122498	8.11521	0.864903	4.73648e+06	3.13745e+08	3.13781e+08	-89.1351	0.0000000E+000	0.0000000E+000	0.0000000E+000	89.1351	0.0000000E+000	0.0000000E+000	0.0000000E+000	-89.1351	0.0000000E+000	0.0000000E+000	0.0000000E+000	-0.864903	0.0000000E+000	0.0000000E+000	0.0000000E+000	0.864903	66.2403	89.1351	-0.00193938
2.05457	0.123695	0.00250689	0.12372	-1.16104	251493	-0.000417393	-2.56695	3.09003e+07	12686.8	3	37	0.00511718	0.0413609	0	-2.64775	14	0.134145	0.0787404	1.92438	2.47837e-06	3.42324e-06	1.18269e-06	3.69573e-06	2.54835e-06	1.91529e-06	0.126679	0.133356	0.207239	1.46524e-05	3.62492e-05	9.12798e-06	2.41359e-05	8.50766e-06	1.9588e-05	8.08109	0.163777	8.08275	1.16104	1.26868e+07	6.25992e+08	6.2612e+08	-88.839	0.0000000E+000	0.0000000E+000	0.0000000E+000	88.839	0.0000000E+000	0.0000000E+000	0.0000000E+000	-88.839	0.0000000E+000	0.0000000E+000	0.0000000E+000	-1.16104	0.0000000E+000	0.0000000E+000	0.0000000E+000	1.16104	49.3419	88.839	-0.00207428
1.02607	0.12432	0.0038275	0.124379	-1.76343	251508	-0.00041111	-2.55244	4.05253e+07	38376.2	3	37	0.00511807	0.0411489	0	-2.65977	14	0.133822	0.0795761	1.3505	2.51419e-06	4.16208e-06	1.66e-06	2.96811e-06	2.07123e-06	1.46796e-06	0.174781	0.0832885	0.191072	3.70086e-05	4.94509e-05	8.72215e-06	3.17469e-05	1.09426e-05	7.84275e-06	8.03611	0.247411	8.03992	1.76343	3.83763e+07	1.24649e+09	1.24708e+09	-88.2366	0.0000000E+000	0.0000000E+000	0.0000000E+000	88.2366	0.0000000E+000	0.0000000E+000	0.0000000E+000	-88.2366	0.0000000E+000	0.0000000E+000	0.0000000E+000	-1.76343	0.0000000E+000	0.0000000E+000	0.0000000E+000	1.76343	32.4808	88.2366	-0.00431618
0.511825	0.12574	0.00615257	0.125891	-2.8013	251538	-0.000402169	-2.47304	5.05408e+07	120717	3	37	0.0051166	0.0406432	0	-2.68103	14	0.103202	0.0554722	0.941203	1.99066e-06	3.27441e-06	2.09053e-06	1.74422e-06	1.4367e-06	1.46575e-06	0.149579	0.121051	0.174769	1.00673e-05	4.95912e-05	6.73471e-06	2.67711e-05	6.82914e-06	9.9818e-06	7.93392	0.388213	7.94341	2.8013	1.20717e+08	2.4671e+09	2.47005e+09	-87.1987	0.0000000E+000	0.0000000E+000	0.0000000E+000	87.1987	0.0000000E+000	0.0000000E+000	0.0000000E+000	-87.1987	0.0000000E+000	0.0000000E+000	0.0000000E+000	-2.8013	0.0000000E+000	0.0000000E+000	0.0000000E+000	2.8013	20.437	87.1987	-0.00619691
0.255612	0.128334	0.0106419	0.128774	-4.74035	251597	-0.000410079	-2.54021	5.85085e+07	399580	3	37	0.00511536	0.0397235	0	-2.72664	14	0.113098	0.0601815	0.681461	1.47795e-06	4.3267e-06	9.88542e-07	2.34033e-06	1.36756e-06	1.06867e-06	0.298839	0.0700793	0.204976	1.71164e-05	0.000108327	1.13074e-05	3.19605e-05	1.09023e-05	2.38032e-05	7.73897	0.641747	7.76553	4.74035	3.99579e+08	4.81862e+09	4.83516e+09	-85.2597	0.0000000E+000	0.0000000E+000	0.0000000E+000	85.2597	0.0000000E+000	0.0000000E+000	0.0000000E+000	-85.2597	0.0000000E+000	0.0000000E+000	0.0000000E+000	-4.74035	0.0000000E+000	0.0000000E+000	0.0000000E+000	4.74035	12.0592	85.2597	-0.0242362
0.127525	0.135818	0.0157168	0.136724	-6.60087	251714	-0.000418828	-2.49327	7.94075e+07	1.04929e+06	3	37	0.00511061	0.0373789	0	-2.79183	14	0.109331	0.0641571	0.482747	1.75092e-06	3.56382e-06	7.77507e-07	3.06673e-06	1.48481e-06	6.84098e-07	0.277641	0.114214	0.266493	1.66279e-05	2.43407e-05	1.075e-05	3.87104e-05	2.39662e-05	8.39106e-05	7.2655	0.840758	7.31398	6.60087	1.04929e+09	9.06756e+09	9.12807e+09	-83.3991	0.0000000E+000	0.0000000E+000	0.0000000E+000	83.3991	0.0000000E+000	0.0000000E+000	0.0000000E+000	-83.3991	0.0000000E+000	0.0000000E+000	0.0000000E+000	-6.60087	0.0000000E+000	0.0000000E+000	0.0000000E+000	6.60087	8.6416	83.3991	-0.0220122
0.0636941	0.146926	0.0154625	0.147738	-6.00766	251947	-0.000447759	-2.62183	1.616e+08	1.77017e+06	3	37	0.00510863	0.034579	0	-2.97338	14	0.111034	0.153137	0.368176	1.96941e-06	4.2627e-06	1.21873e-06	2.39109e-06	1.41262e-06	5.54901e-07	0.154629	0.162833	0.4563	1.3792e-05	3.88731e-05	1.3108e-05	2.94312e-05	7.31802e-06	6.32596e-06	6.73157	0.708427	6.76875	6.00766	1.77017e+09	1.68204e+10	1.69133e+10	-83.9923	0.0000000E+000	0.0000000E+000	0.0000000E+000	83.9923	0.0000000E+000	0.0000000E+000	0.0000000E+000	-83.9923	0.0000000E+000	0.0000000E+000	0.0000000E+000	-6.00766	0.0000000E+000	0.0000000E+000	0.0000000E+000	6.00766	9.50214	83.9923	-0.0862736
0.0317924	0.154043	0.0100477	0.15437	-3.73192	252414	-0.000419983	-2.62852	4.9823e+08	2.11074e+06	3	37	0.00510446	0.0330664	0	-3.31819	14	0.103886	0.108114	0.281848	1.7533e-06	3.63073e-06	1.48018e-06	2.17277e-06	1.46598e-06	6.14437e-07	0.147035	0.122714	0.504817	1.40865e-05	2.59685e-05	6.46816e-06	3.6019e-05	4.78702e-06	5.14317e-06	6.4642	0.421637	6.47793	3.73192	2.11074e+09	3.23602e+10	3.24289e+10	-86.2681	0.0000000E+000	0.0000000E+000	0.0000000E+000	86.2681	0.0000000E+000	0.0000000E+000	0.0000000E+000	-86.2681	0.0000000E+000	0.0000000E+000	0.0000000E+000	-3.73192	0.0000000E+000	0.0000000E+000	0.0000000E+000	3.73192	15.3312	86.2681	-0.125689
0.0199946	0.156151	0.00701224	0.156308	-2.57124	252962	-0.000421219	-2.62587	1.13514e+09	2.28454e+06	3	37	0.00510481	0.0326586	0	-3.62811	14	0.136454	0.177392	0.255288	3.4486e-06	3.42415e-06	1.34438e-06	3.14598e-06	2.2414e-06	8.75023e-07	0.152518	0.18231	0.515697	2.17742e-05	2.68514e-05	9.79607e-06	3.15879e-05	6.34416e-06	6.06842e-06	6.39116	0.287006	6.39761	2.57124	2.28454e+09	5.0873e+10	5.09243e+10	-87.4288	0.0000000E+000	0.0000000E+000	0.0000000E+000	87.4288	0.0000000E+000	0.0000000E+000	0.0000000E+000	-87.4288	0.0000000E+000	0.0000000E+000	0.0000000E+000	-2.57124	0.0000000E+000	0.0000000E+000	0.0000000E+000	2.57124	22.2684	87.4288	-0.174388