File: Python/Experiments/IRFB/240503-Felt-1p5M_FeCl2FeCl3-1M_HCl/Data/240503-EIS-Felt-1p5M_FeCl2FeCl3-1M_HCl-Wamup_10mLmin-4xFlowRate-20mHz_10ppd_05_PEIS_C15.mpt
EC-Lab ASCII FILE
Nb header lines : 75

Potentio Electrochemical Impedance Spectroscopy

Run on channel : 15 (SN 19485)
User :
Electrode connection : standard
Potential control : Ewe
Ewe ctrl range : min = -1.00 V, max = 1.00 V
Ewe,I filtering : 50 kHz
Safety Limits :
	Do not start on E overload
Channel : Grounded
Acquisition started on : 05/03/2024 14:39:22.131
Loaded Setting File :  NONE
Saved on :
	File : 240503-EIS-Felt-1p5M_FeCl2FeCl3-1M_HCl-Wamup_10mLmin-4xFlowRate-20mHz_10ppd_05_PEIS_C15.mpr
	Directory : C:\Data\mathias\IRFB\
	Host : 192.168.0.1
Device : VMP-300 (SN 0826)
Address : USB
EC-Lab for windows v11.52 (software)
Internet server v11.52 (firmware)
Command interpretor v11.52 (firmware)
Electrode material :
Initial state :
Electrolyte :
Comments :
Cable : special
Electrode surface area : 0.001 cm²
Characteristic mass : 0.001 g
Equivalent Weight : 0.000 g/eq.
Density : 0.000 g/cm3
Volume (V) : 0.001 cm³
Record EIS quality indicators
Cycle Definition : Charge/Discharge alternance
External device configuration :
   device type : Other
   device name : Other
   Analog OUT :
      mode : E/V
      unit : KNF Pump/ml/min
      max : 120.000 at 5.000 V
      min : 0.000 at 0.000 V
      current : 14.000
Mode                Single sine
E (V)               0.0000
vs.                 Eoc
tE (h:m:s)          0:00:0.0000
record              0
dI                  0.000
unit dI             mA
dt (s)              0.000
fi                  220.000
unit fi             kHz
ff                  20.000
unit ff             mHz
Nd                  10
Points              per decade
spacing             Logarithmic
Va (mV)             5.0
pw                  0.10
Na                  3
corr                0
E range min (V)     -1.000
E range max (V)     1.000
I Range             Auto
Bandwidth           8
nc cycles           2
goto Ns'            0
nr cycles           0
inc. cycle          0

freq/Hz	Re(Z)/Ohm	-Im(Z)/Ohm	|Z|/Ohm	Phase(Z)/deg	time/s	<Ewe>/V	<I>/mA	Cs/µF	Cp/µF	cycle number	I Range	|Ewe|/V	|I|/A	Ns	(Q-Qo)/mA.h	Analog OUT/V	THD Ewe/%	NSD Ewe/%	NSR Ewe/%	|Ewe h2|/V	|Ewe h3|/V	|Ewe h4|/V	|Ewe h5|/V	|Ewe h6|/V	|Ewe h7|/V	THD I/%	NSD I/%	NSR I/%	|I h2|/A	|I h3|/A	|I h4|/A	|I h5|/A	|I h6|/A	|I h7|/A	Re(Y)/Ohm-1	Im(Y)/Ohm-1	|Y|/Ohm-1	Phase(Y)/deg	Re(C)/nF	Im(C)/nF	|C|/nF	Phase(C)/deg	Re(M)	Im(M)	|M|	Phase(M)/deg	Re(Permittivity)	Im(Permittivity)	|Permittivity|	Phase(Permittivity)/deg	Re(Resistivity)/Ohm.cm	Im(Resistivity)/Ohm.cm	|Resistivity|/Ohm.cm	Phase(Resistivity)/deg	Re(Conductivity)/mS/cm	Im(Conductivity)/mS/cm	|Conductivity|/mS/cm	Phase(Conductivity)/deg	Tan(Delta)	Loss Angle(Delta)/deg	dq/mA.h
220003	0.0914745	-0.0195464	0.0935395	12.0617	253564	-0.00031721	-2.00137	-37.0105	-1.6161	1	37	0.00330156	0.0352959	0	-0.000912396	25.4	-1	-1	-1	0	0	0	0	0	0	-1	-1	-1	0	0	0	0	0	0	10.4547	-2.23397	10.6907	-12.0617	-1616.1	7563.14	7733.88	-102.062	0.0000000E+000	0.0000000E+000	0.0000000E+000	102.062	0.0000000E+000	0.0000000E+000	0.0000000E+000	-102.062	0.0000000E+000	0.0000000E+000	0.0000000E+000	12.0617	0.0000000E+000	0.0000000E+000	0.0000000E+000	-12.0617	4.67986	77.9383	-0.000912396
109811	0.09645	-0.00716683	0.0967159	4.24962	253567	-0.000320062	-2.01424	-202.231	-1.11047	1	37	0.00523081	0.0540843	0	-0.00270895	25.4	-1	-1	-1	0	0	0	0	0	0	-1	-1	-1	0	0	0	0	0	0	10.3111	-0.766182	10.3396	-4.24962	-1110.47	14944.5	14985.7	-94.2496	0.0000000E+000	0.0000000E+000	0.0000000E+000	94.2496	0.0000000E+000	0.0000000E+000	0.0000000E+000	-94.2496	0.0000000E+000	0.0000000E+000	0.0000000E+000	4.24962	0.0000000E+000	0.0000000E+000	0.0000000E+000	-4.24962	13.4578	85.7504	-0.000536971
54808.1	0.098912	-0.000485998	0.0989132	0.281517	253570	-0.000316091	-2.07981	-5975.04	-0.144245	1	37	0.00519399	0.0525106	0	-0.00465845	25.4	0.376729	0.226103	5.71904	6.27047e-06	1.19532e-05	7.4137e-06	4.25973e-06	5.25241e-06	7.53101e-06	0.105618	0.0508276	0.365654	7.37266e-06	5.38887e-05	2.85869e-06	6.23124e-06	6.38882e-06	4.16125e-06	10.1098	-0.0496736	10.1099	-0.281517	-144.245	29357.3	29357.6	-90.2815	0.0000000E+000	0.0000000E+000	0.0000000E+000	90.2815	0.0000000E+000	0.0000000E+000	0.0000000E+000	-90.2815	0.0000000E+000	0.0000000E+000	0.0000000E+000	0.281517	0.0000000E+000	0.0000000E+000	0.0000000E+000	-0.281517	203.524	89.7185	-0.000740391
27362.3	0.10199	0.00408653	0.102072	-2.29449	253574	-0.000327257	-2.05284	1423.35	2.28143	1	37	0.00517851	0.0507338	0	-0.00655597	25.4	0.329297	0.240033	5.81577	2.66807e-06	8.02232e-06	4.46741e-06	1.023e-05	7.22362e-06	3.78362e-06	0.107234	0.0391513	0.38124	2.42714e-06	5.25882e-05	4.8774e-06	9.48843e-06	4.84599e-06	4.07907e-06	9.78913	0.392229	9.79699	2.29449	2281.43	56939.2	56984.9	-87.7055	0.0000000E+000	0.0000000E+000	0.0000000E+000	87.7055	0.0000000E+000	0.0000000E+000	0.0000000E+000	-87.7055	0.0000000E+000	0.0000000E+000	0.0000000E+000	-2.29449	0.0000000E+000	0.0000000E+000	0.0000000E+000	2.29449	24.9577	87.7055	-0.000644134
13658	0.106043	0.00619784	0.106224	-3.34493	253577	-0.000320192	-2.01553	1880.16	6.40072	1	37	0.00515965	0.0485733	0	-0.00849868	25.4	0.309607	0.184766	5.83511	6.10472e-06	6.43815e-06	7.0394e-06	5.09916e-06	5.33809e-06	6.44582e-06	0.0966645	0.0121482	0.395148	8.76142e-06	4.45997e-05	2.42932e-06	7.24106e-06	6.93222e-06	3.71456e-06	9.39803	0.549281	9.41406	3.34493	6400.73	109514	109701	-86.6551	0.0000000E+000	0.0000000E+000	0.0000000E+000	86.6551	0.0000000E+000	0.0000000E+000	0.0000000E+000	-86.6551	0.0000000E+000	0.0000000E+000	0.0000000E+000	-3.34493	0.0000000E+000	0.0000000E+000	0.0000000E+000	3.34493	17.1097	86.6551	-0.000528877
6816.86	0.110051	0.00650803	0.110243	-3.38434	253581	-0.000441562	-2.8377	3587.46	12.5021	1	37	0.00518935	0.0470719	0	-0.0107423	25.4	0.369531	0.160866	5.73596	7.70065e-06	9.8449e-06	6.50789e-06	3.67541e-06	6.00044e-06	7.8575e-06	0.0953529	0.0544422	0.414682	4.21389e-06	4.29416e-05	5.69502e-06	8.71977e-06	4.39302e-06	3.88598e-06	9.05505	0.535486	9.07087	3.38434	12502.1	211411	211780	-86.6157	0.0000000E+000	0.0000000E+000	0.0000000E+000	86.6157	0.0000000E+000	0.0000000E+000	0.0000000E+000	-86.6157	0.0000000E+000	0.0000000E+000	0.0000000E+000	-3.38434	0.0000000E+000	0.0000000E+000	0.0000000E+000	3.38434	16.91	86.6157	-0.000829051
3403.27	0.113177	0.00579759	0.113325	-2.93247	253585	-0.000444004	-2.88253	8066.34	21.1115	1	37	0.0051505	0.0454489	0	-0.0140008	25.4	0.306093	0.184606	5.78604	7.14713e-06	5.16769e-06	6.0468e-06	7.59493e-06	5.35314e-06	3.27018e-06	0.0664615	0.0503309	0.42389	4.03414e-06	2.73911e-05	2.24233e-06	7.98989e-06	7.04791e-06	4.88647e-06	8.81261	0.451434	8.82417	2.93247	21111.4	412125	412665	-87.0675	0.0000000E+000	0.0000000E+000	0.0000000E+000	87.0675	0.0000000E+000	0.0000000E+000	0.0000000E+000	-87.0675	0.0000000E+000	0.0000000E+000	0.0000000E+000	-2.93247	0.0000000E+000	0.0000000E+000	0.0000000E+000	2.93247	19.5214	87.0675	-0.00109002
1698.37	0.115723	0.00476843	0.115821	-2.35957	253589	-0.000431514	-2.87237	19652.3	33.3111	1	37	0.0051483	0.0444505	0	-0.0171096	25.4	0.252589	0.182609	5.78788	5.42348e-06	5.06021e-06	4.02732e-06	5.82999e-06	5.34553e-06	3.98791e-06	0.0388219	0.0678385	0.434348	2.38659e-06	9.54699e-06	1.32515e-06	8.26658e-06	6.68011e-06	7.88783e-06	8.62669	0.355468	8.63401	2.35957	33311.1	808412	809098	-87.6404	0.0000000E+000	0.0000000E+000	0.0000000E+000	87.6404	0.0000000E+000	0.0000000E+000	0.0000000E+000	-87.6404	0.0000000E+000	0.0000000E+000	0.0000000E+000	-2.35957	0.0000000E+000	0.0000000E+000	0.0000000E+000	2.35957	24.2685	87.6404	-0.00106435
847.556	0.117835	0.00388854	0.117899	-1.89007	253593	-0.000438971	-2.94029	48290.8	52.5313	1	37	0.00514652	0.0436519	0	-0.0201903	25.4	0.288807	0.217354	5.79988	4.6013e-06	4.0201e-06	1.01175e-05	6.31966e-06	3.1375e-06	3.25568e-06	0.0373713	0.0970116	0.444245	3.4713e-06	7.77537e-06	3.27621e-06	1.12675e-05	2.79709e-06	5.89811e-06	8.47722	0.279748	8.48183	1.89007	52531.2	1.59186e+06	1.59273e+06	-88.1099	0.0000000E+000	0.0000000E+000	0.0000000E+000	88.1099	0.0000000E+000	0.0000000E+000	0.0000000E+000	-88.1099	0.0000000E+000	0.0000000E+000	0.0000000E+000	-1.89007	0.0000000E+000	0.0000000E+000	0.0000000E+000	1.89007	30.3031	88.1099	-0.00110116
423.239	0.119276	0.00289984	0.119311	-1.3927	253596	-0.000406871	-2.84317	129676	76.6031	1	37	0.00548119	0.0459404	0	-0.023325	25.4	0.272801	0.169241	5.43888	6.27292e-06	8.75477e-06	3.30363e-06	3.84133e-06	4.67964e-06	6.50027e-06	0.0584618	0.00990772	0.424055	7.07214e-06	2.09207e-05	1.97849e-06	1.36159e-05	4.43356e-06	3.32686e-06	8.37897	0.20371	8.38145	1.3927	76603	3.15083e+06	3.15176e+06	-88.6073	0.0000000E+000	0.0000000E+000	0.0000000E+000	88.6073	0.0000000E+000	0.0000000E+000	0.0000000E+000	-88.6073	0.0000000E+000	0.0000000E+000	0.0000000E+000	-1.3927	0.0000000E+000	0.0000000E+000	0.0000000E+000	1.3927	41.1319	88.6073	-0.000911005
211.149	0.120136	0.00211664	0.120154	-1.00938	253600	-0.000405585	-2.8892	356110	110.51	1	37	0.00536557	0.0446556	0	-0.0261219	25.4	0.34333	0.200211	5.67885	8.14786e-06	7.50848e-06	5.25578e-06	9.42749e-06	4.78899e-06	4.28918e-06	0.0770184	0.0178151	0.429474	4.60578e-06	2.77236e-05	6.09285e-06	1.65446e-05	5.51844e-06	3.24602e-06	8.32133	0.146612	8.32262	1.00938	110510	6.27227e+06	6.27324e+06	-88.9906	0.0000000E+000	0.0000000E+000	0.0000000E+000	88.9906	0.0000000E+000	0.0000000E+000	0.0000000E+000	-88.9906	0.0000000E+000	0.0000000E+000	0.0000000E+000	-1.00938	0.0000000E+000	0.0000000E+000	0.0000000E+000	1.00938	56.7577	88.9906	-0.000831846
105.438	0.12073	0.00162432	0.120741	-0.770824	253603	-0.000400347	-2.804	929284	168.185	1	37	0.00506979	0.0419891	0	-0.0288519	25.4	0.327253	0.1811	5.92154	5.66176e-06	6.48308e-06	8.91792e-06	4.00019e-06	5.26464e-06	7.05082e-06	0.103249	0.0239773	0.460803	5.00352e-06	3.20443e-05	6.28434e-06	2.52377e-05	6.42163e-06	6.89733e-06	8.28146	0.111421	8.28221	0.770824	168184	1.25005e+07	1.25017e+07	-89.2292	0.0000000E+000	0.0000000E+000	0.0000000E+000	89.2292	0.0000000E+000	0.0000000E+000	0.0000000E+000	-89.2292	0.0000000E+000	0.0000000E+000	0.0000000E+000	-0.770824	0.0000000E+000	0.0000000E+000	0.0000000E+000	0.770824	74.3261	89.2292	-0.000838118
52.6255	0.121115	0.00129256	0.121122	-0.611447	253607	-0.000395034	-2.81942	2.33977e+06	266.458	1	37	0.00510526	0.0421498	0	-0.0313471	25.4	0.377986	0.127562	5.87234	7.41268e-06	8.72623e-06	6.737e-06	6.0474e-06	9.50358e-06	6.14153e-06	0.114612	0.0227398	0.455206	2.36992e-06	3.60993e-05	1.67069e-06	3.04456e-05	5.84046e-06	5.33032e-06	8.25568	0.088106	8.25615	0.611447	266460	2.49676e+07	2.4969e+07	-89.3885	0.0000000E+000	0.0000000E+000	0.0000000E+000	89.3885	0.0000000E+000	0.0000000E+000	0.0000000E+000	-89.3885	0.0000000E+000	0.0000000E+000	0.0000000E+000	-0.611447	0.0000000E+000	0.0000000E+000	0.0000000E+000	0.611447	93.7017	89.3885	-0.000863333
26.2693	0.121534	0.00124107	0.121541	-0.585068	253610	-0.000392145	-2.77712	4.88172e+06	509.009	1	37	0.00511329	0.0420706	0	-0.0339027	25.4	0.528992	0.213608	5.76403	5.80373e-06	4.4348e-06	6.83152e-06	7.22461e-06	7.81343e-06	2.15226e-05	0.116631	0.0429464	0.47317	5.97152e-06	3.46233e-05	5.67767e-06	3.09845e-05	7.39682e-06	6.95759e-06	8.22726	0.0840144	8.22769	0.585068	509009	4.98456e+07	4.98482e+07	-89.4149	0.0000000E+000	0.0000000E+000	0.0000000E+000	89.4149	0.0000000E+000	0.0000000E+000	0.0000000E+000	-89.4149	0.0000000E+000	0.0000000E+000	0.0000000E+000	-0.585068	0.0000000E+000	0.0000000E+000	0.0000000E+000	0.585068	97.9268	89.4149	-0.000923396
13.1083	0.122102	0.00133385	0.122109	-0.625877	253613	-0.00038961	-2.76746	9.10268e+06	1086.14	1	37	0.00511926	0.0419236	0	-0.0364468	25.4	0.316073	0.250613	4.15261	7.10898e-06	6.68893e-06	3.89138e-06	3.09079e-06	9.87927e-06	3.15117e-06	0.114251	0.0644318	0.345224	7.29278e-06	3.27909e-05	6.84177e-06	3.10682e-05	2.74788e-06	9.73996e-06	8.1889	0.0894559	8.18939	0.625877	1.08614e+06	9.94262e+07	9.94322e+07	-89.3741	0.0000000E+000	0.0000000E+000	0.0000000E+000	89.3741	0.0000000E+000	0.0000000E+000	0.0000000E+000	-89.3741	0.0000000E+000	0.0000000E+000	0.0000000E+000	-0.625877	0.0000000E+000	0.0000000E+000	0.0000000E+000	0.625877	91.5412	89.3741	-0.00111424
6.54313	0.122661	0.00145527	0.12267	-0.679733	253617	-0.00038316	-2.71059	1.67144e+07	2352.35	1	37	0.00511884	0.0417285	0	-0.0393263	25.4	0.239964	0.102793	4.25281	4.75941e-06	5.3721e-06	5.51637e-06	5.62424e-06	2.75618e-06	3.56781e-06	0.133398	0.0726347	0.345847	2.06319e-05	4.16762e-05	4.69478e-06	2.78533e-05	7.81076e-06	5.74108e-06	8.15137	0.096709	8.15195	0.679733	2.35235e+06	1.98274e+08	1.98288e+08	-89.3203	0.0000000E+000	0.0000000E+000	0.0000000E+000	89.3203	0.0000000E+000	0.0000000E+000	0.0000000E+000	-89.3203	0.0000000E+000	0.0000000E+000	0.0000000E+000	-0.679733	0.0000000E+000	0.0000000E+000	0.0000000E+000	0.679733	84.2876	89.3203	-0.00105274
3.26541	0.123115	0.00176269	0.123127	-0.820275	253623	-0.000378616	-2.73435	2.76507e+07	5666.96	1	37	0.00511883	0.0415735	0	-0.0433733	25.4	0.143754	0.126908	2.51854	1.94653e-06	4.50061e-06	2.06212e-06	2.31264e-06	2.7e-06	2.58536e-06	0.116765	0.0892477	0.253282	1.23607e-05	3.11436e-05	8.76566e-06	2.98328e-05	9.62314e-06	7.29141e-06	8.12085	0.11627	8.12169	0.820275	5.66696e+06	3.95807e+08	3.95848e+08	-89.1797	0.0000000E+000	0.0000000E+000	0.0000000E+000	89.1797	0.0000000E+000	0.0000000E+000	0.0000000E+000	-89.1797	0.0000000E+000	0.0000000E+000	0.0000000E+000	-0.820275	0.0000000E+000	0.0000000E+000	0.0000000E+000	0.820275	69.8447	89.1797	-0.00169661
1.63084	0.123574	0.00264484	0.123602	-1.22611	253633	-0.000393404	-2.79583	3.68987e+07	16895	1	37	0.00511744	0.0414026	0	-0.0511485	25.4	0.142635	0.103193	1.69368	1.50886e-06	4.64622e-06	2.18058e-06	3.00712e-06	2.79131e-06	2.35178e-06	0.131235	0.115943	0.209156	1.91571e-05	3.65197e-05	1.33205e-05	3.05042e-05	6.88857e-06	7.52945e-06	8.08864	0.173121	8.09049	1.22611	1.6895e+07	7.89378e+08	7.89559e+08	-88.7739	0.0000000E+000	0.0000000E+000	0.0000000E+000	88.7739	0.0000000E+000	0.0000000E+000	0.0000000E+000	-88.7739	0.0000000E+000	0.0000000E+000	0.0000000E+000	-1.22611	0.0000000E+000	0.0000000E+000	0.0000000E+000	1.22611	46.7225	88.7739	-0.00276646
0.813551	0.124524	0.00420781	0.124595	-1.93536	253652	-0.000387918	-2.70597	4.64921e+07	53026.3	1	37	0.00511653	0.0410653	0	-0.0654059	25.4	0.127287	0.099746	1.21086	1.89625e-06	4.07423e-06	1.61401e-06	3.30631e-06	1.25653e-06	1.70021e-06	0.127085	0.149115	0.195101	1.59026e-05	3.03387e-05	1.60842e-05	3.25024e-05	9.47552e-06	7.60465e-06	8.02143	0.271054	8.02601	1.93536	5.30262e+07	1.56923e+09	1.57013e+09	-88.0646	0.0000000E+000	0.0000000E+000	0.0000000E+000	88.0646	0.0000000E+000	0.0000000E+000	0.0000000E+000	-88.0646	0.0000000E+000	0.0000000E+000	0.0000000E+000	-1.93536	0.0000000E+000	0.0000000E+000	0.0000000E+000	1.93536	29.5935	88.0646	-0.00473753
0.406108	0.126545	0.00707932	0.126743	-3.20197	253690	-0.000404699	-2.76294	5.53588e+07	172713	1	37	0.0051141	0.0403503	0	-0.0978922	25.4	0.124065	0.0580961	0.850898	3.14602e-06	3.0915e-06	1.74057e-06	2.95298e-06	1.86144e-06	1.31749e-06	0.164965	0.119326	0.22087	2.46641e-05	3.25077e-05	3.72963e-05	3.06465e-05	8.9242e-06	6.79634e-06	7.87769	0.440704	7.89001	3.20197	1.72713e+08	3.08729e+09	3.09212e+09	-86.798	0.0000000E+000	0.0000000E+000	0.0000000E+000	86.798	0.0000000E+000	0.0000000E+000	0.0000000E+000	-86.798	0.0000000E+000	0.0000000E+000	0.0000000E+000	-3.20197	0.0000000E+000	0.0000000E+000	0.0000000E+000	3.20197	17.8753	86.798	-0.0133242
0.202719	0.13183	0.00977113	0.132191	-4.23897	253764	-0.0004175	-2.88376	8.03491e+07	438999	1	37	0.00511285	0.0386776	0	-0.149012	25.4	0.123925	0.0994002	0.614748	2.83212e-06	4.60824e-06	1.38018e-06	2.18681e-06	1.28817e-06	8.72602e-07	0.136008	0.0778582	0.236325	1.1239e-05	3.94317e-05	5.93857e-06	3.12322e-05	5.39299e-06	4.87097e-06	7.5441	0.559163	7.56479	4.23897	4.38999e+08	5.92288e+09	5.93912e+09	-85.761	0.0000000E+000	0.0000000E+000	0.0000000E+000	85.761	0.0000000E+000	0.0000000E+000	0.0000000E+000	-85.761	0.0000000E+000	0.0000000E+000	0.0000000E+000	-4.23897	0.0000000E+000	0.0000000E+000	0.0000000E+000	4.23897	13.4918	85.761	-0.0283248
0.101164	0.138214	0.00831243	0.138464	-3.44172	253911	-0.000432726	-2.9317	1.89263e+08	682101	1	37	0.00511337	0.0369292	0	-0.278344	25.4	0.124813	0.0465896	0.446341	2.52001e-06	4.47625e-06	1.06037e-06	3.27705e-06	1.01796e-06	6.82133e-07	0.135347	0.0696977	0.278646	5.95216e-06	3.10771e-05	4.97137e-06	3.7129e-05	6.8929e-06	2.47266e-06	7.20907	0.433565	7.2221	3.44172	6.82102e+08	1.13416e+10	1.13621e+10	-86.5583	0.0000000E+000	0.0000000E+000	0.0000000E+000	86.5583	0.0000000E+000	0.0000000E+000	0.0000000E+000	-86.5583	0.0000000E+000	0.0000000E+000	0.0000000E+000	-3.44172	0.0000000E+000	0.0000000E+000	0.0000000E+000	3.44172	16.6274	86.5583	-0.0448816
0.0505041	0.141279	0.00507061	0.14137	-2.05551	254204	-0.000411208	-2.75246	6.21489e+08	799540	1	37	0.0051078	0.0361307	0	-0.46183	25.4	0.0944307	0.0913595	0.330306	1.37238e-06	2.96526e-06	9.8658e-07	2.2899e-06	1.54103e-06	1.32295e-06	0.126293	0.0699082	0.294602	1.60052e-05	2.25875e-05	7.1598e-06	3.1187e-05	8.74538e-06	5.31707e-06	7.06909	0.253715	7.07364	2.05551	7.99541e+08	2.2277e+10	2.22914e+10	-87.9445	0.0000000E+000	0.0000000E+000	0.0000000E+000	87.9445	0.0000000E+000	0.0000000E+000	0.0000000E+000	-87.9445	0.0000000E+000	0.0000000E+000	0.0000000E+000	-2.05551	0.0000000E+000	0.0000000E+000	0.0000000E+000	2.05551	27.8623	87.9445	-0.0829566
0.0252177	0.142536	0.00252598	0.142559	-1.01527	254792	-0.000428731	-2.79484	2.49853e+09	784435	1	37	0.00511097	0.0358516	0	-0.996166	25.4	0.107903	0.0829686	0.265758	2.39567e-06	3.71194e-06	1.3654e-06	2.12934e-06	1.12198e-06	1.08201e-06	0.135171	0.109615	0.289214	1.94009e-05	2.97082e-05	1.1606e-05	2.80534e-05	6.58637e-06	6.24961e-06	7.01355	0.124292	7.01465	1.01527	7.84438e+08	4.42642e+10	4.42711e+10	-88.9847	0.0000000E+000	0.0000000E+000	0.0000000E+000	88.9847	0.0000000E+000	0.0000000E+000	0.0000000E+000	-88.9847	0.0000000E+000	0.0000000E+000	0.0000000E+000	-1.01527	0.0000000E+000	0.0000000E+000	0.0000000E+000	1.01527	56.4281	88.9847	-0.225576
174510	0.0938313	-0.0145955	0.0949597	8.84155	255100	-0.000339168	-2.04806	-62.4855	-1.47619	2	37	0.00475347	0.0500578	0	-1.25935	25.4	-1	-1	-1	0	0	0	0	0	0	-1	-1	-1	0	0	0	0	0	0	10.4056	-1.61861	10.5308	-8.84155	-1476.19	9490.06	9604.18	-98.8416	0.0000000E+000	0.0000000E+000	0.0000000E+000	98.8416	0.0000000E+000	0.0000000E+000	0.0000000E+000	-98.8416	0.0000000E+000	0.0000000E+000	0.0000000E+000	8.84155	0.0000000E+000	0.0000000E+000	0.0000000E+000	-8.84155	6.42877	81.1584	-0.000568856
87106.6	0.0973454	-0.00453873	0.0974511	2.66948	255103	-0.000340902	-2.06435	-402.564	-0.873232	2	37	0.00523104	0.0536786	0	-1.26125	25.4	0.254767	0.134406	5.59672	5.71197e-06	4.91801e-06	5.74385e-06	3.83764e-06	4.16993e-06	5.73549e-06	0.0822698	0.0245901	0.351333	1.58073e-05	4.01823e-05	4.21459e-06	3.35381e-06	4.14099e-06	5.8312e-06	10.2504	-0.477926	10.2616	-2.66948	-873.231	18728.8	18749.2	-92.6695	0.0000000E+000	0.0000000E+000	0.0000000E+000	92.6695	0.0000000E+000	0.0000000E+000	0.0000000E+000	-92.6695	0.0000000E+000	0.0000000E+000	0.0000000E+000	2.66948	0.0000000E+000	0.0000000E+000	0.0000000E+000	-2.66948	21.4477	87.3305	-0.000579056
43479.1	0.0999661	0.00125642	0.099974	-0.720084	255107	-0.000340883	-2.09353	2913.43	0.460153	2	37	0.00519893	0.0520028	0	-1.26324	25.4	0.33244	0.207048	5.72018	5.65127e-06	8.68748e-06	7.31598e-06	3.74699e-06	6.82988e-06	4.82362e-06	0.1073	0.0365669	0.367866	1.07295e-05	5.31663e-05	3.25762e-06	8.01486e-06	5.61103e-06	6.7512e-06	10.0018	0.125708	10.0026	0.720084	460.154	36611.6	36614.5	-89.2799	0.0000000E+000	0.0000000E+000	0.0000000E+000	89.2799	0.0000000E+000	0.0000000E+000	0.0000000E+000	-89.2799	0.0000000E+000	0.0000000E+000	0.0000000E+000	-0.720084	0.0000000E+000	0.0000000E+000	0.0000000E+000	0.720084	79.564	89.2799	-0.000724025
21702.4	0.103361	0.00513335	0.103489	-2.84321	255110	-0.000343567	-2.06619	1428.6	3.51501	2	37	0.00518083	0.0500617	0	-1.26516	25.4	0.334891	0.135691	5.70123	7.10321e-06	5.56288e-06	7.74174e-06	5.94656e-06	7.42214e-06	6.04703e-06	0.102902	0.0501311	0.383	9.75014e-06	4.83688e-05	3.87867e-06	1.14416e-05	6.74505e-06	3.6277e-06	9.65099	0.479307	9.66288	2.84321	3515.01	70775.7	70862.9	-87.1568	0.0000000E+000	0.0000000E+000	0.0000000E+000	87.1568	0.0000000E+000	0.0000000E+000	0.0000000E+000	-87.1568	0.0000000E+000	0.0000000E+000	0.0000000E+000	-2.84321	0.0000000E+000	0.0000000E+000	0.0000000E+000	2.84321	20.1353	87.1568	-0.000542662
10837.3	0.107501	0.00656477	0.107701	-3.49456	255114	-0.00034586	-2.09898	2237.07	8.31152	2	37	0.00515126	0.0478293	0	-1.26706	25.4	0.362376	0.132283	5.81312	5.25247e-06	9.34575e-06	9.22852e-06	6.64328e-06	4.5315e-06	7.2499e-06	0.0763813	0.0314877	0.395889	6.60863e-06	3.41099e-05	3.48858e-06	7.73863e-06	3.35071e-06	4.83986e-06	9.26771	0.565954	9.28498	3.49456	8311.52	136104	136358	-86.5054	0.0000000E+000	0.0000000E+000	0.0000000E+000	86.5054	0.0000000E+000	0.0000000E+000	0.0000000E+000	-86.5054	0.0000000E+000	0.0000000E+000	0.0000000E+000	-3.49456	0.0000000E+000	0.0000000E+000	0.0000000E+000	3.49456	16.3754	86.5054	-0.00058944
5406.63	0.111228	0.00634598	0.111408	-3.26541	255117	-0.000462141	-2.87187	4638.69	15.0507	2	37	0.00517618	0.0464613	0	-1.26974	25.4	0.306728	0.195607	5.80504	4.65638e-06	5.90178e-06	3.33258e-06	8.4578e-06	6.01096e-06	6.53832e-06	0.100927	0.0937336	0.423835	9.9943e-06	3.91752e-05	6.23963e-06	1.08931e-05	4.01837e-06	1.8824e-05	8.9614	0.511284	8.97598	3.26541	15050.7	263797	264226	-86.7346	0.0000000E+000	0.0000000E+000	0.0000000E+000	86.7346	0.0000000E+000	0.0000000E+000	0.0000000E+000	-86.7346	0.0000000E+000	0.0000000E+000	0.0000000E+000	-3.26541	0.0000000E+000	0.0000000E+000	0.0000000E+000	3.26541	17.5272	86.7346	-0.000957588
2699.14	0.114176	0.00559111	0.114312	-2.8035	255121	-0.000473158	-2.96459	10546.2	25.2294	2	37	0.00515335	0.0450813	0	-1.27286	25.4	0.292665	0.150952	5.79777	5.92187e-06	5.28965e-06	6.45152e-06	4.2211e-06	5.20545e-06	6.16101e-06	0.0541498	0.0204444	0.432161	3.73891e-06	2.27086e-05	3.57864e-06	4.28809e-06	4.27092e-06	2.31854e-06	8.73749	0.42787	8.74796	2.8035	25229.4	515207	515825	-87.1965	0.0000000E+000	0.0000000E+000	0.0000000E+000	87.1965	0.0000000E+000	0.0000000E+000	0.0000000E+000	-87.1965	0.0000000E+000	0.0000000E+000	0.0000000E+000	-2.8035	0.0000000E+000	0.0000000E+000	0.0000000E+000	2.8035	20.4209	87.1965	-0.00105943
1347.15	0.116532	0.00442434	0.116616	-2.17429	255125	-0.000462738	-2.90353	26702.6	38.4358	2	37	0.0051572	0.0442238	0	-1.27597	25.4	0.256315	0.159154	5.68987	2.56972e-06	2.56191e-06	4.04858e-06	5.18686e-06	6.27511e-06	7.54501e-06	0.0281762	0.0380586	0.446045	2.73103e-06	5.91258e-06	4.51677e-06	5.12019e-06	4.94923e-06	5.72829e-06	8.56898	0.325337	8.57516	2.17429	38435.8	1.01235e+06	1.01308e+06	-87.8257	0.0000000E+000	0.0000000E+000	0.0000000E+000	87.8257	0.0000000E+000	0.0000000E+000	0.0000000E+000	-87.8257	0.0000000E+000	0.0000000E+000	0.0000000E+000	-2.17429	0.0000000E+000	0.0000000E+000	0.0000000E+000	2.17429	26.3388	87.8257	-0.00103038
672.366	0.118275	0.0035382	0.118328	-1.71349	255129	-0.000436305	-2.90986	66900.9	59.8167	2	37	0.00505599	0.0427286	0	-1.27925	25.4	0.296445	0.174318	5.94761	3.83671e-06	5.44718e-06	7.57356e-06	4.64083e-06	4.38713e-06	8.33518e-06	0.0443721	0.0106985	0.464084	2.33799e-06	1.3275e-05	3.05507e-06	8.82566e-06	6.02539e-06	6.2039e-06	8.44732	0.252702	8.4511	1.71349	59816.7	1.99955e+06	2.00045e+06	-88.2865	0.0000000E+000	0.0000000E+000	0.0000000E+000	88.2865	0.0000000E+000	0.0000000E+000	0.0000000E+000	-88.2865	0.0000000E+000	0.0000000E+000	0.0000000E+000	-1.71349	0.0000000E+000	0.0000000E+000	0.0000000E+000	1.71349	33.428	88.2865	-0.00114607
335.537	0.119521	0.00250591	0.119548	-1.2011	255133	-0.00042581	-2.86869	189285	83.1691	2	37	0.00506112	0.0423355	0	-1.28223	25.4	0.314779	0.149643	5.91154	5.35142e-06	9.24681e-06	3.93419e-06	4.81526e-06	5.72043e-06	3.75975e-06	0.0637978	0.0197732	0.465831	6.59586e-06	2.18816e-05	2.43167e-06	1.18063e-05	4.26741e-06	4.47761e-06	8.36302	0.17534	8.36486	1.2011	83169	3.96683e+06	3.9677e+06	-88.7989	0.0000000E+000	0.0000000E+000	0.0000000E+000	88.7989	0.0000000E+000	0.0000000E+000	0.0000000E+000	-88.7989	0.0000000E+000	0.0000000E+000	0.0000000E+000	-1.2011	0.0000000E+000	0.0000000E+000	0.0000000E+000	1.2011	47.6959	88.7989	-0.0010519
167.481	0.120435	0.00194164	0.12045	-0.92364	255136	-0.000435205	-2.87087	489424	127.177	2	37	0.00544629	0.045216	0	-1.28488	25.4	0.297429	0.0996335	5.53862	5.8407e-06	8.22407e-06	4.69349e-06	5.82044e-06	4.81279e-06	7.72054e-06	0.0864479	0.0191312	0.43854	4.59748e-06	2.96967e-05	5.8883e-06	2.20778e-05	7.3239e-06	5.65762e-06	8.3011	0.13383	8.30217	0.92364	127176	7.88843e+06	7.88945e+06	-89.0764	0.0000000E+000	0.0000000E+000	0.0000000E+000	89.0764	0.0000000E+000	0.0000000E+000	0.0000000E+000	-89.0764	0.0000000E+000	0.0000000E+000	0.0000000E+000	-0.92364	0.0000000E+000	0.0000000E+000	0.0000000E+000	0.92364	62.0272	89.0764	-0.000915424
83.635	0.121061	0.00142366	0.121069	-0.67376	255140	-0.000427693	-2.84299	1.33668e+06	184.829	2	37	0.00509274	0.0420648	0	-1.28769	25.4	0.298925	0.144009	5.89724	6.23922e-06	4.42748e-06	6.44501e-06	6.93452e-06	5.66573e-06	4.08105e-06	0.109469	0.0157516	0.467612	5.33102e-06	3.46585e-05	5.52997e-06	2.68257e-05	1.01169e-05	5.1407e-06	8.25917	0.0971268	8.25974	0.67376	184829	1.5717e+07	1.5718e+07	-89.3262	0.0000000E+000	0.0000000E+000	0.0000000E+000	89.3262	0.0000000E+000	0.0000000E+000	0.0000000E+000	-89.3262	0.0000000E+000	0.0000000E+000	0.0000000E+000	-0.67376	0.0000000E+000	0.0000000E+000	0.0000000E+000	0.67376	85.0349	89.3262	-0.000844687
41.7501	0.121312	0.0012413	0.121318	-0.586249	255143	-0.000427339	-2.8447	3.07103e+06	321.506	2	37	0.00510828	0.0421065	0	-1.29033	25.4	0.322696	0.201298	5.81032	6.82608e-06	6.25361e-06	6.53872e-06	4.03288e-06	6.23384e-06	7.17451e-06	0.108083	0.0330661	0.459783	3.58719e-06	3.02442e-05	4.24012e-06	2.9468e-05	1.34207e-05	6.33165e-06	8.24236	0.0843386	8.24279	0.586249	321506	3.14206e+07	3.14222e+07	-89.4137	0.0000000E+000	0.0000000E+000	0.0000000E+000	89.4137	0.0000000E+000	0.0000000E+000	0.0000000E+000	-89.4137	0.0000000E+000	0.0000000E+000	0.0000000E+000	-0.586249	0.0000000E+000	0.0000000E+000	0.0000000E+000	0.586249	97.7294	89.4137	-0.000906881
20.8333	0.121876	0.00133036	0.121883	-0.625399	255147	-0.000422846	-2.84699	5.74239e+06	684.138	2	37	0.00511795	0.0419906	0	-1.29303	25.4	0.275364	0.160435	5.80471	5.76542e-06	6.01609e-06	5.60662e-06	3.53289e-06	5.01157e-06	5.37101e-06	0.113788	0.0883463	0.460738	9.08959e-06	3.72694e-05	3.31281e-06	2.62615e-05	6.85289e-06	5.22961e-06	8.20409	0.0895534	8.20458	0.625399	684136	6.26747e+07	6.26784e+07	-89.3746	0.0000000E+000	0.0000000E+000	0.0000000E+000	89.3746	0.0000000E+000	0.0000000E+000	0.0000000E+000	-89.3746	0.0000000E+000	0.0000000E+000	0.0000000E+000	-0.625399	0.0000000E+000	0.0000000E+000	0.0000000E+000	0.625399	91.6112	89.3746	-0.00100531
10.3959	0.12241	0.00143666	0.122418	-0.672419	255150	-0.000415055	-2.81029	1.06563e+07	1467.64	2	37	0.00511946	0.0418194	0	-1.29534	25.4	0.261869	0.298613	5.85077	5.3231e-06	2.0404e-06	4.3845e-06	9.19542e-06	2.87752e-06	4.42925e-06	0.124028	0.0921418	0.455094	8.52943e-06	3.6224e-05	8.37747e-06	3.16758e-05	9.63488e-06	8.77807e-06	8.16815	0.0958652	8.16871	0.672419	1.46764e+06	1.2505e+08	1.25058e+08	-89.3276	0.0000000E+000	0.0000000E+000	0.0000000E+000	89.3276	0.0000000E+000	0.0000000E+000	0.0000000E+000	-89.3276	0.0000000E+000	0.0000000E+000	0.0000000E+000	-0.672419	0.0000000E+000	0.0000000E+000	0.0000000E+000	0.672419	85.2045	89.3276	-0.000639843
5.19276	0.122823	0.0015508	0.122833	-0.723392	255154	-0.000408375	-2.81265	1.97637e+07	3150.26	2	37	0.00511907	0.041675	0	-1.29881	25.4	0.218089	0.127221	3.38308	5.89867e-06	4.47112e-06	2.61708e-06	3.92198e-06	3.88843e-06	3.26132e-06	0.151238	0.0787492	0.289137	1.63486e-05	4.90822e-05	1.14435e-05	2.07444e-05	8.67743e-06	6.7093e-06	8.14049	0.102784	8.14114	0.723392	3.15025e+06	2.49501e+08	2.49521e+08	-89.2766	0.0000000E+000	0.0000000E+000	0.0000000E+000	89.2766	0.0000000E+000	0.0000000E+000	0.0000000E+000	-89.2766	0.0000000E+000	0.0000000E+000	0.0000000E+000	-0.723392	0.0000000E+000	0.0000000E+000	0.0000000E+000	0.723392	79.2001	89.2766	-0.000933345
2.58949	0.123328	0.00203526	0.123345	-0.945456	255161	-0.000426982	-2.84028	3.01985e+07	8222.09	2	37	0.00511591	0.0414764	0	-1.30375	25.4	0.183834	0.0830714	2.14496	4.14728e-06	5.66524e-06	3.00454e-06	2.51934e-06	3.36258e-06	2.60709e-06	0.147495	0.070889	0.217198	1.49711e-05	3.71382e-05	5.79866e-06	3.28703e-05	2.99372e-05	7.94556e-06	8.10624	0.133776	8.10734	0.945456	8.22211e+06	4.98224e+08	4.98292e+08	-89.0545	0.0000000E+000	0.0000000E+000	0.0000000E+000	89.0545	0.0000000E+000	0.0000000E+000	0.0000000E+000	-89.0545	0.0000000E+000	0.0000000E+000	0.0000000E+000	-0.945456	0.0000000E+000	0.0000000E+000	0.0000000E+000	0.945456	60.5957	89.0545	-0.0019594
1.29325	0.123896	0.00307429	0.123935	-1.42141	255173	-0.000411076	-2.76147	4.00306e+07	24631.9	2	37	0.00511732	0.0412905	0	-1.31265	25.4	0.132557	0.0851827	1.4928	2.60171e-06	3.06339e-06	2.24579e-06	3.0599e-06	2.7187e-06	1.5264e-06	0.122408	0.181513	0.204316	1.75531e-05	3.04263e-05	7.73852e-06	3.00366e-05	1.01418e-05	1.14095e-05	8.06629	0.200152	8.06877	1.42141	2.46319e+07	9.92685e+08	9.92991e+08	-88.5786	0.0000000E+000	0.0000000E+000	0.0000000E+000	88.5786	0.0000000E+000	0.0000000E+000	0.0000000E+000	-88.5786	0.0000000E+000	0.0000000E+000	0.0000000E+000	-1.42141	0.0000000E+000	0.0000000E+000	0.0000000E+000	1.42141	40.3008	88.5786	-0.00123618
0.645874	0.125061	0.0050076	0.125161	-2.29298	255197	-0.000418034	-2.82915	4.92088e+07	78770.8	2	37	0.00511866	0.0408967	0	-1.33227	25.4	0.120542	0.0898755	1.06095	1.44102e-06	4.46346e-06	1.54408e-06	2.95623e-06	1.33948e-06	1.21845e-06	0.18184	0.119245	0.193945	4.09342e-05	3.88872e-05	2.81052e-05	3.20404e-05	5.35489e-06	1.62945e-05	7.98333	0.319664	7.98973	2.29298	7.87707e+07	1.96723e+09	1.96881e+09	-87.707	0.0000000E+000	0.0000000E+000	0.0000000E+000	87.707	0.0000000E+000	0.0000000E+000	0.0000000E+000	-87.707	0.0000000E+000	0.0000000E+000	0.0000000E+000	-2.29298	0.0000000E+000	0.0000000E+000	0.0000000E+000	2.29298	24.9741	87.707	-0.0089179
0.322118	0.12794	0.00819758	0.128202	-3.66614	255244	-0.000436153	-2.87761	6.02725e+07	246433	2	37	0.00511687	0.0399125	0	-1.36424	25.4	0.114403	0.0923329	0.748792	1.50509e-06	4.60156e-06	1.50798e-06	2.33612e-06	7.41163e-07	9.41387e-07	0.207193	0.150831	0.172334	1.38209e-05	2.64987e-05	9.14963e-06	7.35855e-05	4.60784e-06	1.35124e-05	7.78422	0.498764	7.80018	3.66614	2.46433e+08	3.84609e+09	3.85398e+09	-86.3339	0.0000000E+000	0.0000000E+000	0.0000000E+000	86.3339	0.0000000E+000	0.0000000E+000	0.0000000E+000	-86.3339	0.0000000E+000	0.0000000E+000	0.0000000E+000	-3.66614	0.0000000E+000	0.0000000E+000	0.0000000E+000	3.66614	15.607	86.3339	-0.00979439
0.160792	0.134249	0.00973752	0.134602	-4.14858	255337	-0.000431361	-2.81766	1.0165e+08	531986	2	37	0.00511156	0.0379754	0	-1.45434	25.4	0.110485	0.157781	0.540514	1.33455e-06	4.33375e-06	7.09003e-07	2.83096e-06	1.40418e-06	5.19435e-07	0.121045	0.119274	0.232097	1.49274e-05	2.97126e-05	6.97857e-06	2.89866e-05	5.87919e-06	4.43376e-06	7.40985	0.537459	7.42931	4.14858	5.31986e+08	7.33438e+09	7.35365e+09	-85.8514	0.0000000E+000	0.0000000E+000	0.0000000E+000	85.8514	0.0000000E+000	0.0000000E+000	0.0000000E+000	-85.8514	0.0000000E+000	0.0000000E+000	0.0000000E+000	-4.14858	0.0000000E+000	0.0000000E+000	0.0000000E+000	4.14858	13.7868	85.8514	-0.0357464
0.0802383	0.139686	0.00720784	0.139872	-2.95387	255522	-0.000415763	-2.73955	2.7519e+08	730778	2	37	0.00510995	0.0365332	0	-1.56456	25.4	0.110257	0.053163	0.403141	1.69487e-06	4.35241e-06	9.37709e-07	2.64985e-06	8.42313e-07	6.11546e-07	0.132385	0.068494	0.278497	7.35991e-06	3.1859e-05	4.89141e-06	3.4333e-05	3.35578e-06	3.73955e-06	7.13992	0.368423	7.14942	2.95387	7.30777e+08	1.41622e+10	1.41811e+10	-87.0461	0.0000000E+000	0.0000000E+000	0.0000000E+000	87.0461	0.0000000E+000	0.0000000E+000	0.0000000E+000	-87.0461	0.0000000E+000	0.0000000E+000	0.0000000E+000	-2.95387	0.0000000E+000	0.0000000E+000	0.0000000E+000	2.95387	19.3797	87.0461	-0.0436918
0.04008	0.141896	0.00417989	0.141957	-1.6873	255892	-0.000432516	-2.84306	9.50011e+08	823649	2	37	0.00511054	0.0360006	0	-1.88219	25.4	0.101495	0.0950089	0.305048	1.46612e-06	3.87901e-06	8.6014e-07	2.41262e-06	9.89331e-07	6.49584e-07	0.139505	0.153526	0.287374	2.04723e-05	3.11544e-05	8.4749e-06	2.96452e-05	6.1434e-06	9.07358e-06	7.04132	0.207419	7.04437	1.6873	8.2365e+08	2.79606e+10	2.79728e+10	-88.3127	0.0000000E+000	0.0000000E+000	0.0000000E+000	88.3127	0.0000000E+000	0.0000000E+000	0.0000000E+000	-88.3127	0.0000000E+000	0.0000000E+000	0.0000000E+000	-1.6873	0.0000000E+000	0.0000000E+000	0.0000000E+000	1.6873	33.9473	88.3127	-0.146359
0.0199946	0.142396	0.00192894	0.142409	-0.776096	256633	-0.000439035	-2.89497	4.12657e+09	757091	2	37	0.00511252	0.0359001	0	-2.47083	25.4	0.103313	0.111887	0.251278	2.31882e-06	3.57621e-06	1.27225e-06	1.74415e-06	1.29848e-06	9.44469e-07	0.123318	0.135367	0.282301	1.4621e-05	2.41219e-05	1.36055e-05	2.82695e-05	5.28474e-06	5.0507e-06	7.02137	0.0951132	7.02201	0.776096	7.57088e+08	5.58893e+10	5.58945e+10	-89.2239	0.0000000E+000	0.0000000E+000	0.0000000E+000	89.2239	0.0000000E+000	0.0000000E+000	0.0000000E+000	-89.2239	0.0000000E+000	0.0000000E+000	0.0000000E+000	-0.776096	0.0000000E+000	0.0000000E+000	0.0000000E+000	0.776096	73.8212	89.2239	-0.21817
138435	0.0953203	-0.01048	0.0958946	6.27417	256636	-0.000342113	-2.02416	-109.702	-1.31022	3	37	0.00517922	0.0540094	0	-2.47363	25.4	-1	-1	-1	0	0	0	0	0	0	-1	-1	-1	0	0	0	0	0	0	10.3657	-1.13965	10.4281	-6.27417	-1310.22	11917.1	11988.9	-96.2742	0.0000000E+000	0.0000000E+000	0.0000000E+000	96.2742	0.0000000E+000	0.0000000E+000	0.0000000E+000	-96.2742	0.0000000E+000	0.0000000E+000	0.0000000E+000	6.27417	0.0000000E+000	0.0000000E+000	0.0000000E+000	-6.27417	9.09547	83.7258	-0.000674636
69097	0.0981147	-0.00235831	0.0981431	1.37691	256640	-0.000356672	-2.09293	-976.696	-0.563953	3	37	0.00521911	0.0531785	0	-2.47561	25.4	0.236983	0.139082	5.64666	6.34329e-06	4.52074e-06	4.38412e-06	6.47583e-06	3.86285e-06	2.37106e-06	0.101074	0.0607086	0.364267	1.67529e-05	4.98937e-05	5.04955e-06	4.65321e-06	6.3488e-06	3.28513e-06	10.1863	-0.24484	10.1892	-1.37691	-563.954	23462.6	23469.4	-91.3769	0.0000000E+000	0.0000000E+000	0.0000000E+000	91.3769	0.0000000E+000	0.0000000E+000	0.0000000E+000	-91.3769	0.0000000E+000	0.0000000E+000	0.0000000E+000	1.37691	0.0000000E+000	0.0000000E+000	0.0000000E+000	-1.37691	41.6038	88.6231	-0.000635834
34488.2	0.100902	0.00295398	0.100945	-1.6769	256643	-0.00034778	-2.01028	1562.22	1.33779	3	37	0.00518895	0.0514037	0	-2.4775	25.4	0.276583	0.149538	5.70331	5.73912e-06	7.41884e-06	3.24602e-06	4.91618e-06	4.27544e-06	7.07301e-06	0.107834	0.0528033	0.381773	1.08318e-05	5.31779e-05	2.17732e-06	9.16449e-06	4.80444e-06	3.12472e-06	9.90214	0.289893	9.90639	1.6769	1337.79	45696.1	45715.6	-88.3231	0.0000000E+000	0.0000000E+000	0.0000000E+000	88.3231	0.0000000E+000	0.0000000E+000	0.0000000E+000	-88.3231	0.0000000E+000	0.0000000E+000	0.0000000E+000	-1.6769	0.0000000E+000	0.0000000E+000	0.0000000E+000	1.6769	34.1579	88.3231	-0.000702186
17211.6	0.10466	0.00575551	0.104818	-3.14766	256647	-0.000347184	-1.97553	1606.62	4.84404	3	37	0.0051635	0.0492614	0	-2.47947	25.4	0.318434	0.124322	5.72143	4.1203e-06	8.77465e-06	8.76016e-06	4.56617e-06	6.53927e-06	4.07128e-06	0.101871	0.0146125	0.393198	6.87344e-06	4.81478e-05	4.37066e-06	7.71853e-06	6.69586e-06	1.14786e-06	9.52593	0.523853	9.54032	3.14766	4844.04	88085.7	88218.8	-86.8523	0.0000000E+000	0.0000000E+000	0.0000000E+000	86.8523	0.0000000E+000	0.0000000E+000	0.0000000E+000	-86.8523	0.0000000E+000	0.0000000E+000	0.0000000E+000	-3.14766	0.0000000E+000	0.0000000E+000	0.0000000E+000	3.14766	18.1843	86.8523	-0.00062456
8590.41	0.108851	0.00659524	0.109051	-3.46728	256650	-0.000463819	-2.86638	2809.16	10.2749	3	37	0.00525659	0.048203	0	-2.48163	25.4	0.273904	0.14743	5.79348	5.01393e-06	5.00445e-06	5.17258e-06	4.69315e-06	8.36762e-06	4.35857e-06	0.10768	0.0601856	0.404633	4.18219e-06	4.96061e-05	7.0482e-06	1.01889e-05	5.05467e-06	2.81503e-06	9.15323	0.554589	9.17002	3.46728	10274.9	169582	169893	-86.5327	0.0000000E+000	0.0000000E+000	0.0000000E+000	86.5327	0.0000000E+000	0.0000000E+000	0.0000000E+000	-86.5327	0.0000000E+000	0.0000000E+000	0.0000000E+000	-3.46728	0.0000000E+000	0.0000000E+000	0.0000000E+000	3.46728	16.5045	86.5327	-0.000932828
4288.63	0.112373	0.00615522	0.112542	-3.13523	256654	-0.000471983	-2.94978	6029.17	18.0351	3	37	0.00517462	0.0459795	0	-2.48472	25.4	0.252131	0.178094	5.76131	3.67008e-06	5.2959e-06	4.42692e-06	7.64982e-06	5.03027e-06	3.49135e-06	0.0759811	0.0392782	0.431291	4.93284e-06	3.28699e-05	2.298e-06	8.71404e-06	4.7264e-06	2.20077e-06	8.87229	0.485978	8.88559	3.13523	18035.1	329259	329752	-86.8648	0.0000000E+000	0.0000000E+000	0.0000000E+000	86.8648	0.0000000E+000	0.0000000E+000	0.0000000E+000	-86.8648	0.0000000E+000	0.0000000E+000	0.0000000E+000	-3.13523	0.0000000E+000	0.0000000E+000	0.0000000E+000	3.13523	18.2566	86.8648	-0.00108441
2140.69	0.115128	0.00516685	0.115244	-2.56966	256658	-0.000480539	-2.98519	14389.4	28.9238	3	37	0.00515009	0.0446886	0	-2.48798	25.4	0.26579	0.215892	5.82751	3.86048e-06	5.98918e-06	5.82316e-06	4.22636e-06	6.67065e-06	3.90106e-06	0.0492945	0.0287739	0.438877	1.38795e-06	1.72444e-05	7.27102e-06	7.8524e-06	6.2163e-06	4.21466e-06	8.66851	0.389035	8.67724	2.56966	28923.8	644483	645132	-87.4303	0.0000000E+000	0.0000000E+000	0.0000000E+000	87.4303	0.0000000E+000	0.0000000E+000	0.0000000E+000	-87.4303	0.0000000E+000	0.0000000E+000	0.0000000E+000	-2.56966	0.0000000E+000	0.0000000E+000	0.0000000E+000	2.56966	22.2821	87.4303	-0.00102503
1068.29	0.117266	0.00417304	0.11734	-2.03808	256662	-0.000474481	-2.94967	35700.7	45.1532	3	37	0.00508399	0.0433269	0	-2.49138	25.4	0.266541	0.147805	5.85236	3.22894e-06	5.89603e-06	3.26348e-06	4.1227e-06	7.94642e-06	5.28137e-06	0.0334544	0.089732	0.458281	1.84483e-06	6.17706e-06	6.23665e-06	9.00631e-06	4.58072e-06	3.3395e-06	8.51683	0.303081	8.52222	2.03808	45153.2	1.26884e+06	1.26964e+06	-87.9619	0.0000000E+000	0.0000000E+000	0.0000000E+000	87.9619	0.0000000E+000	0.0000000E+000	0.0000000E+000	-87.9619	0.0000000E+000	0.0000000E+000	0.0000000E+000	-2.03808	0.0000000E+000	0.0000000E+000	0.0000000E+000	2.03808	28.1008	87.9619	-0.00108368
533.464	0.118878	0.00325836	0.118923	-1.57004	256666	-0.000448235	-2.90265	91562.2	68.7358	3	37	0.00509239	0.0428209	0	-2.49444	25.4	0.265496	0.231308	5.92584	3.56608e-06	7.3915e-06	3.15879e-06	5.72031e-06	5.63877e-06	3.90129e-06	0.0596591	0.0147014	0.445532	5.66647e-06	1.82996e-05	5.73534e-06	1.08219e-05	8.80633e-06	5.20625e-06	8.40565	0.230392	8.40881	1.57004	68735.8	2.50776e+06	2.50871e+06	-88.43	0.0000000E+000	0.0000000E+000	0.0000000E+000	88.43	0.0000000E+000	0.0000000E+000	0.0000000E+000	-88.43	0.0000000E+000	0.0000000E+000	0.0000000E+000	-1.57004	0.0000000E+000	0.0000000E+000	0.0000000E+000	1.57004	36.4841	88.43	-0.00103408
266.278	0.119997	0.00232231	0.12002	-1.10871	256670	-0.000438654	-2.90589	257375	96.3607	3	37	0.00524417	0.0436943	0	-2.49725	25.4	0.341198	0.166514	5.68327	5.81396e-06	9.55107e-06	5.75092e-06	5.85039e-06	5.57448e-06	8.12133e-06	0.0712878	0.0159706	0.448761	7.029e-06	2.64326e-05	2.39056e-06	1.12166e-05	7.42657e-06	5.16348e-06	8.33041	0.161219	8.33197	1.10871	96360.4	4.97911e+06	4.98004e+06	-88.8913	0.0000000E+000	0.0000000E+000	0.0000000E+000	88.8913	0.0000000E+000	0.0000000E+000	0.0000000E+000	-88.8913	0.0000000E+000	0.0000000E+000	0.0000000E+000	-1.10871	0.0000000E+000	0.0000000E+000	0.0000000E+000	1.10871	51.6716	88.8913	-0.000887024
132.916	0.120711	0.00169069	0.120723	-0.802436	256673	-0.000459364	-2.96805	708238	138.908	3	37	0.00549834	0.0455452	0	-2.49992	25.4	0.273841	0.131859	5.40709	5.57044e-06	5.26417e-06	6.85898e-06	5.81804e-06	4.64385e-06	6.04746e-06	0.0980341	0.0161989	0.436578	7.01528e-06	3.37235e-05	2.26548e-06	2.46163e-05	9.85418e-06	4.50573e-06	8.28263	0.116007	8.28344	0.802436	138908	9.91769e+06	9.91867e+06	-89.1976	0.0000000E+000	0.0000000E+000	0.0000000E+000	89.1976	0.0000000E+000	0.0000000E+000	0.0000000E+000	-89.1976	0.0000000E+000	0.0000000E+000	0.0000000E+000	-0.802436	0.0000000E+000	0.0000000E+000	0.0000000E+000	0.802436	71.3976	89.1976	-0.000917474
66.3374	0.121127	0.00130463	0.121134	-0.617095	256676	-0.000447005	-2.94155	1.83897e+06	213.313	3	37	0.00509863	0.0420909	0	-2.50259	25.4	0.292671	0.219866	5.81359	6.09161e-06	4.16248e-06	6.37327e-06	2.96666e-06	6.11242e-06	8.32842e-06	0.109385	0.0212486	0.476902	6.04393e-06	3.46184e-05	3.8955e-06	2.74252e-05	6.95024e-06	5.99756e-06	8.25485	0.0889111	8.25533	0.617095	213313	1.98048e+07	1.9806e+07	-89.3829	0.0000000E+000	0.0000000E+000	0.0000000E+000	89.3829	0.0000000E+000	0.0000000E+000	0.0000000E+000	-89.3829	0.0000000E+000	0.0000000E+000	0.0000000E+000	-0.617095	0.0000000E+000	0.0000000E+000	0.0000000E+000	0.617095	92.8439	89.3829	-0.000816644
33.1038	0.121695	0.00124619	0.121701	-0.586704	256680	-0.000442158	-2.95462	3.85797e+06	404.516	3	37	0.00511742	0.0420491	0	-2.50523	25.4	0.243462	0.144711	5.75773	4.7906e-06	7.26463e-06	2.48429e-06	3.0724e-06	4.78531e-06	4.68725e-06	0.106409	0.0277162	0.461075	7.03824e-06	3.14932e-05	4.45121e-06	2.85663e-05	9.35268e-06	3.67993e-06	8.21642	0.0841383	8.21685	0.586704	404514	3.95025e+07	3.95046e+07	-89.4133	0.0000000E+000	0.0000000E+000	0.0000000E+000	89.4133	0.0000000E+000	0.0000000E+000	0.0000000E+000	-89.4133	0.0000000E+000	0.0000000E+000	0.0000000E+000	-0.586704	0.0000000E+000	0.0000000E+000	0.0000000E+000	0.586704	97.6537	89.4133	-0.000831001
16.5286	0.121987	0.00135357	0.121995	-0.635727	256683	-0.000450733	-2.9522	7.11382e+06	875.753	3	37	0.00511521	0.0419297	0	-2.50776	25.4	0.323883	0.140422	5.82248	5.18475e-06	9.67274e-06	5.06564e-06	6.10157e-06	4.77223e-06	6.83279e-06	0.119174	0.0560824	0.455861	7.86657e-06	3.53396e-05	3.54863e-06	3.16703e-05	9.82456e-06	5.43402e-06	8.19655	0.0909488	8.19706	0.635727	875752	7.89252e+07	7.893e+07	-89.3643	0.0000000E+000	0.0000000E+000	0.0000000E+000	89.3643	0.0000000E+000	0.0000000E+000	0.0000000E+000	-89.3643	0.0000000E+000	0.0000000E+000	0.0000000E+000	-0.635727	0.0000000E+000	0.0000000E+000	0.0000000E+000	0.635727	90.1227	89.3643	-0.000635875
8.24973	0.12258	0.00132966	0.122587	-0.621483	256686	-0.000436911	-2.91644	1.45091e+07	1707	3	37	0.00511775	0.041748	0	-2.51088	25.4	0.232429	0.0889188	4.03906	4.87626e-06	4.83408e-06	4.8247e-06	4.19312e-06	5.67177e-06	2.81156e-06	0.132645	0.0567086	0.329206	2.39378e-05	3.80745e-05	6.15142e-06	3.01339e-05	7.59467e-06	5.37213e-06	8.15701	0.0884819	8.15749	0.621483	1.70701e+06	1.57366e+08	1.57375e+08	-89.3785	0.0000000E+000	0.0000000E+000	0.0000000E+000	89.3785	0.0000000E+000	0.0000000E+000	0.0000000E+000	-89.3785	0.0000000E+000	0.0000000E+000	0.0000000E+000	-0.621483	0.0000000E+000	0.0000000E+000	0.0000000E+000	0.621483	92.1885	89.3785	-0.00132103
4.11618	0.123103	0.00165287	0.123114	-0.769248	256691	-0.000423709	-2.87685	2.33931e+07	4216.48	3	37	0.00512097	0.0415954	0	-2.51454	25.4	0.167769	0.0964669	2.8459	2.16379e-06	4.86246e-06	3.77915e-06	3.14946e-06	1.81664e-06	2.86961e-06	0.118572	0.0610145	0.25851	7.88225e-06	3.4227e-05	1.07547e-05	3.1496e-05	6.37025e-06	4.53747e-06	8.12183	0.10905	8.12257	0.769248	4.21648e+06	3.14036e+08	3.14065e+08	-89.2308	0.0000000E+000	0.0000000E+000	0.0000000E+000	89.2308	0.0000000E+000	0.0000000E+000	0.0000000E+000	-89.2308	0.0000000E+000	0.0000000E+000	0.0000000E+000	-0.769248	0.0000000E+000	0.0000000E+000	0.0000000E+000	0.769248	74.4784	89.2308	-0.00131186
2.05457	0.123501	0.00227318	0.123522	-1.05447	256700	-0.00041754	-2.81376	3.40773e+07	11541	3	37	0.00511816	0.0414351	0	-2.52158	25.4	0.147324	0.0982797	1.9075	2.22576e-06	4.90297e-06	2.56694e-06	2.78622e-06	1.69689e-06	2.64663e-06	0.130989	0.0455073	0.210991	1.36375e-05	3.24877e-05	9.14262e-06	2.91953e-05	8.54694e-06	2.16813e-05	8.09434	0.148985	8.09571	1.05447	1.1541e+07	6.27018e+08	6.27124e+08	-88.9455	0.0000000E+000	0.0000000E+000	0.0000000E+000	88.9455	0.0000000E+000	0.0000000E+000	0.0000000E+000	-88.9455	0.0000000E+000	0.0000000E+000	0.0000000E+000	-1.05447	0.0000000E+000	0.0000000E+000	0.0000000E+000	1.05447	54.3298	88.9455	-0.00330794
1.02607	0.124236	0.00368768	0.124291	-1.7002	256715	-0.00040658	-2.74882	4.20619e+07	37027	3	37	0.00511794	0.0411772	0	-2.53387	25.4	0.136361	0.0718705	1.33999	3.48314e-06	4.5397e-06	4.19298e-07	2.76009e-06	1.14327e-06	1.74597e-06	0.166756	0.0657561	0.192008	1.81332e-05	5.39719e-05	7.45708e-06	3.01884e-05	6.86141e-06	7.1247e-06	8.04212	0.238713	8.04566	1.7002	3.7027e+07	1.24742e+09	1.24797e+09	-88.2998	0.0000000E+000	0.0000000E+000	0.0000000E+000	88.2998	0.0000000E+000	0.0000000E+000	0.0000000E+000	-88.2998	0.0000000E+000	0.0000000E+000	0.0000000E+000	-1.7002	0.0000000E+000	0.0000000E+000	0.0000000E+000	1.7002	33.6894	88.2998	-0.00721619
0.511825	0.125723	0.00598419	0.125865	-2.72513	256745	-0.000409005	-2.76772	5.19629e+07	117461	3	37	0.00511798	0.0406624	0	-2.55752	25.4	0.0825249	0.0849204	0.951544	1.28674e-06	2.7677e-06	8.69836e-07	1.64345e-06	1.80566e-06	1.00981e-06	0.134737	0.0789601	0.204036	1.13628e-05	4.01603e-05	6.00814e-06	2.81267e-05	9.17106e-06	1.28535e-05	7.93603	0.377742	7.94502	2.72513	1.17461e+08	2.46776e+09	2.47055e+09	-87.2749	0.0000000E+000	0.0000000E+000	0.0000000E+000	87.2749	0.0000000E+000	0.0000000E+000	0.0000000E+000	-87.2749	0.0000000E+000	0.0000000E+000	0.0000000E+000	-2.72513	0.0000000E+000	0.0000000E+000	0.0000000E+000	2.72513	21.0091	87.2749	-0.0141144
0.255612	0.129745	0.00916075	0.130068	-4.03871	256804	-0.000401231	-2.64565	6.79687e+07	337155	3	37	0.00511436	0.0393206	0	-2.59228	25.4	0.106283	0.0912153	0.672688	1.51148e-06	4.16257e-06	1.0032e-06	2.44204e-06	1.19099e-06	5.69046e-07	0.138613	0.0993744	0.213979	1.4195e-05	3.3558e-05	8.20611e-06	3.05241e-05	1.38615e-05	1.47197e-05	7.66919	0.541489	7.68828	4.03871	3.37155e+08	4.77517e+09	4.78706e+09	-85.9613	0.0000000E+000	0.0000000E+000	0.0000000E+000	85.9613	0.0000000E+000	0.0000000E+000	0.0000000E+000	-85.9613	0.0000000E+000	0.0000000E+000	0.0000000E+000	-4.03871	0.0000000E+000	0.0000000E+000	0.0000000E+000	4.03871	14.1632	85.9613	-0.0131114
0.127525	0.136522	0.00914081	0.136828	-3.8305	256921	-0.000420666	-2.75549	1.36534e+08	609340	3	37	0.00511187	0.0373598	0	-2.6987	25.4	0.11574	0.112321	0.492552	3.35296e-06	3.94511e-06	1.07967e-06	1.36574e-06	1.63193e-06	9.28416e-07	0.114362	0.123759	0.262358	1.16074e-05	2.79463e-05	9.13751e-06	2.57977e-05	5.77564e-06	8.27302e-06	7.29211	0.488241	7.30844	3.8305	6.09339e+08	9.10078e+09	9.12116e+09	-86.1695	0.0000000E+000	0.0000000E+000	0.0000000E+000	86.1695	0.0000000E+000	0.0000000E+000	0.0000000E+000	-86.1695	0.0000000E+000	0.0000000E+000	0.0000000E+000	-3.8305	0.0000000E+000	0.0000000E+000	0.0000000E+000	3.8305	14.9355	86.1695	-0.0425467
0.0636941	0.140674	0.00596097	0.1408	-2.42642	257154	-0.000410806	-2.71997	4.19183e+08	751331	3	37	0.00511046	0.0362958	0	-2.84181	25.4	0.113779	0.0809235	0.35808	2.1487e-06	4.14896e-06	1.14963e-06	2.35978e-06	1.32089e-06	7.62255e-07	0.135231	0.0873949	0.267416	1.17487e-05	2.86045e-05	7.28662e-06	3.40551e-05	9.25732e-06	6.67122e-06	7.09589	0.300684	7.10226	2.42642	7.51331e+08	1.77308e+10	1.77467e+10	-87.5736	0.0000000E+000	0.0000000E+000	0.0000000E+000	87.5736	0.0000000E+000	0.0000000E+000	0.0000000E+000	-87.5736	0.0000000E+000	0.0000000E+000	0.0000000E+000	-2.42642	0.0000000E+000	0.0000000E+000	0.0000000E+000	2.42642	23.5992	87.5736	-0.0544493
0.0317924	0.142265	0.00332201	0.142303	-1.33767	257620	-0.000426255	-2.81749	1.50694e+09	821233	3	37	0.00510831	0.0358973	0	-3.2357	25.4	0.103624	0.161399	0.287719	2.37451e-06	3.21009e-06	1.57455e-06	2.27192e-06	1.7018e-06	9.03211e-07	0.124639	0.158172	0.288851	1.78145e-05	2.19766e-05	1.07605e-05	2.90453e-05	1.00966e-05	4.15321e-06	7.02532	0.164048	7.02723	1.33767	8.21235e+08	3.51692e+10	3.51788e+10	-88.6623	0.0000000E+000	0.0000000E+000	0.0000000E+000	88.6623	0.0000000E+000	0.0000000E+000	0.0000000E+000	-88.6623	0.0000000E+000	0.0000000E+000	0.0000000E+000	-1.33767	0.0000000E+000	0.0000000E+000	0.0000000E+000	1.33767	42.8249	88.6623	-0.179667
0.0199946	0.142361	0.00190979	0.142374	-0.768585	258168	-0.000443204	-2.89912	4.16794e+09	749954	3	37	0.00511015	0.0358925	0	-3.7308	25.4	0.102297	0.130784	0.24145	2.44993e-06	2.85044e-06	1.13326e-06	2.86394e-06	1.38678e-06	5.4446e-07	0.127258	0.137626	0.2974	1.37626e-05	2.33756e-05	1.05659e-05	3.2051e-05	4.70584e-06	8.5816e-06	7.02314	0.0942165	7.02378	0.768585	7.49954e+08	5.59035e+10	5.59085e+10	-89.2314	0.0000000E+000	0.0000000E+000	0.0000000E+000	89.2314	0.0000000E+000	0.0000000E+000	0.0000000E+000	-89.2314	0.0000000E+000	0.0000000E+000	0.0000000E+000	-0.768585	0.0000000E+000	0.0000000E+000	0.0000000E+000	0.768585	74.5426	89.2314	-0.266067