File: Python/Experiments/IRFB/240503-Felt-1p5M_FeCl2FeCl3-1M_HCl/Data/240503-EIS-Felt-1p5M_FeCl2FeCl3-1M_HCl-Wamup_10mLmin-4xFlowRate-20mHz_10ppd_07_PEIS_C15.mpt
EC-Lab ASCII FILE
Nb header lines : 75

Potentio Electrochemical Impedance Spectroscopy

Run on channel : 15 (SN 19485)
User :
Electrode connection : standard
Potential control : Ewe
Ewe ctrl range : min = -1.00 V, max = 1.00 V
Ewe,I filtering : 50 kHz
Safety Limits :
	Do not start on E overload
Channel : Grounded
Acquisition started on : 05/03/2024 14:39:22.131
Loaded Setting File :  NONE
Saved on :
	File : 240503-EIS-Felt-1p5M_FeCl2FeCl3-1M_HCl-Wamup_10mLmin-4xFlowRate-20mHz_10ppd_07_PEIS_C15.mpr
	Directory : C:\Data\mathias\IRFB\
	Host : 192.168.0.1
Device : VMP-300 (SN 0826)
Address : USB
EC-Lab for windows v11.52 (software)
Internet server v11.52 (firmware)
Command interpretor v11.52 (firmware)
Electrode material :
Initial state :
Electrolyte :
Comments :
Cable : special
Electrode surface area : 0.001 cm²
Characteristic mass : 0.001 g
Equivalent Weight : 0.000 g/eq.
Density : 0.000 g/cm3
Volume (V) : 0.001 cm³
Record EIS quality indicators
Cycle Definition : Charge/Discharge alternance
External device configuration :
   device type : Other
   device name : Other
   Analog OUT :
      mode : E/V
      unit : KNF Pump/ml/min
      max : 120.000 at 5.000 V
      min : 0.000 at 0.000 V
      current : 14.000
Mode                Single sine
E (V)               0.0000
vs.                 Eoc
tE (h:m:s)          0:00:0.0000
record              0
dI                  0.000
unit dI             mA
dt (s)              0.000
fi                  220.000
unit fi             kHz
ff                  20.000
unit ff             mHz
Nd                  10
Points              per decade
spacing             Logarithmic
Va (mV)             5.0
pw                  0.10
Na                  3
corr                0
E range min (V)     -1.000
E range max (V)     1.000
I Range             Auto
Bandwidth           8
nc cycles           2
goto Ns'            0
nr cycles           0
inc. cycle          0

freq/Hz	Re(Z)/Ohm	-Im(Z)/Ohm	|Z|/Ohm	Phase(Z)/deg	time/s	<Ewe>/V	<I>/mA	Cs/µF	Cp/µF	cycle number	I Range	|Ewe|/V	|I|/A	Ns	(Q-Qo)/mA.h	Analog OUT/V	THD Ewe/%	NSD Ewe/%	NSR Ewe/%	|Ewe h2|/V	|Ewe h3|/V	|Ewe h4|/V	|Ewe h5|/V	|Ewe h6|/V	|Ewe h7|/V	THD I/%	NSD I/%	NSR I/%	|I h2|/A	|I h3|/A	|I h4|/A	|I h5|/A	|I h6|/A	|I h7|/A	Re(Y)/Ohm-1	Im(Y)/Ohm-1	|Y|/Ohm-1	Phase(Y)/deg	Re(C)/nF	Im(C)/nF	|C|/nF	Phase(C)/deg	Re(M)	Im(M)	|M|	Phase(M)/deg	Re(Permittivity)	Im(Permittivity)	|Permittivity|	Phase(Permittivity)/deg	Re(Resistivity)/Ohm.cm	Im(Resistivity)/Ohm.cm	|Resistivity|/Ohm.cm	Phase(Resistivity)/deg	Re(Conductivity)/mS/cm	Im(Conductivity)/mS/cm	|Conductivity|/mS/cm	Phase(Conductivity)/deg	Tan(Delta)	Loss Angle(Delta)/deg	dq/mA.h
220003	0.0911698	-0.0196603	0.0932656	12.1692	258770	-0.000322783	-2.29181	-36.7961	-1.63509	1	37	0.00329479	0.035327	0	-0.00101722	49	-1	-1	-1	0	0	0	0	0	0	-1	-1	-1	0	0	0	0	0	0	10.4811	-2.26021	10.7221	-12.1692	-1635.09	7582.29	7756.59	-102.169	0.0000000E+000	0.0000000E+000	0.0000000E+000	102.169	0.0000000E+000	0.0000000E+000	0.0000000E+000	-102.169	0.0000000E+000	0.0000000E+000	0.0000000E+000	12.1692	0.0000000E+000	0.0000000E+000	0.0000000E+000	-12.1692	4.63725	77.8308	-0.00101722
109811	0.0960501	-0.0071849	0.0963184	4.27797	258773	-0.000319801	-2.26849	-201.722	-1.12247	1	37	0.00522043	0.0541997	0	-0.00298919	49	-1	-1	-1	0	0	0	0	0	0	-1	-1	-1	0	0	0	0	0	0	10.3533	-0.774465	10.3822	-4.27797	-1122.47	15005.6	15047.5	-94.278	0.0000000E+000	0.0000000E+000	0.0000000E+000	94.278	0.0000000E+000	0.0000000E+000	0.0000000E+000	-94.278	0.0000000E+000	0.0000000E+000	0.0000000E+000	4.27797	0.0000000E+000	0.0000000E+000	0.0000000E+000	-4.27797	13.3683	85.722	-0.00075445
54808.1	0.0986551	-0.000412405	0.098656	0.23951	258777	-0.000326008	-2.2714	-7041.28	-0.123042	1	37	0.00519705	0.0526786	0	-0.0050971	49	0.328151	0.147243	5.67054	7.4956e-06	8.5237e-06	3.43454e-06	3.23075e-06	5.43048e-06	8.7294e-06	0.107016	0.0466818	0.371031	4.79199e-06	5.50456e-05	3.50889e-06	7.77808e-06	5.35589e-06	3.65564e-06	10.1361	-0.0423718	10.1362	-0.23951	-123.041	29433.9	29434.2	-90.2395	0.0000000E+000	0.0000000E+000	0.0000000E+000	90.2395	0.0000000E+000	0.0000000E+000	0.0000000E+000	-90.2395	0.0000000E+000	0.0000000E+000	0.0000000E+000	0.23951	0.0000000E+000	0.0000000E+000	0.0000000E+000	-0.23951	239.219	89.7605	-0.000753664
27362.3	0.101725	0.00407286	0.101807	-2.29278	258780	-0.00032323	-2.31067	1428.13	2.28567	1	37	0.00517915	0.0508724	0	-0.00722124	49	0.348872	0.181842	5.71113	1.13658e-05	6.99018e-06	6.69123e-06	3.17888e-06	6.02297e-06	6.09829e-06	0.11306	0.0396216	0.391012	3.63245e-06	5.64824e-05	3.7443e-06	6.75545e-06	3.46828e-06	3.79547e-06	9.81468	0.392959	9.82254	2.29278	2285.68	57087.8	57133.5	-87.7072	0.0000000E+000	0.0000000E+000	0.0000000E+000	87.7072	0.0000000E+000	0.0000000E+000	0.0000000E+000	-87.7072	0.0000000E+000	0.0000000E+000	0.0000000E+000	-2.29278	0.0000000E+000	0.0000000E+000	0.0000000E+000	2.29278	24.9763	87.7072	-0.000688194
13658	0.105891	0.00627999	0.106077	-3.39403	258784	-0.000324107	-2.28895	1855.56	6.50359	1	37	0.00516979	0.0487363	0	-0.00947638	49	0.350266	0.217061	5.70308	3.36221e-06	7.56824e-06	8.26688e-06	8.79474e-06	5.74899e-06	5.51867e-06	0.0968098	0.0108482	0.391056	4.04611e-06	4.5233e-05	4.14318e-06	8.88596e-06	5.04131e-06	4.68533e-06	9.4106	0.558109	9.42714	3.39403	6503.59	109661	109854	-86.606	0.0000000E+000	0.0000000E+000	0.0000000E+000	86.606	0.0000000E+000	0.0000000E+000	0.0000000E+000	-86.606	0.0000000E+000	0.0000000E+000	0.0000000E+000	-3.39403	0.0000000E+000	0.0000000E+000	0.0000000E+000	3.39403	16.8616	86.606	-0.000816841
6816.86	0.109786	0.00654889	0.109981	-3.41374	258787	-0.000440835	-3.20529	3565.07	12.6407	1	37	0.0051819	0.0471164	0	-0.0123958	49	0.330748	0.122768	5.74652	1.00869e-05	3.50865e-06	4.1115e-06	8.20401e-06	4.54843e-06	7.24809e-06	0.10334	0.0494925	0.411918	5.81157e-06	4.63599e-05	4.76242e-06	1.05847e-05	4.9264e-06	3.51413e-06	9.07635	0.541419	9.09249	3.41374	12640.7	211908	212285	-86.5863	0.0000000E+000	0.0000000E+000	0.0000000E+000	86.5863	0.0000000E+000	0.0000000E+000	0.0000000E+000	-86.5863	0.0000000E+000	0.0000000E+000	0.0000000E+000	-3.41374	0.0000000E+000	0.0000000E+000	0.0000000E+000	3.41374	16.764	86.5863	-0.00107614
3403.27	0.113065	0.00586148	0.113217	-2.96766	258791	-0.000451423	-3.21878	7978.41	21.3851	1	37	0.00515054	0.0454928	0	-0.0159311	49	0.325308	0.215092	5.80872	6.33937e-06	8.59317e-06	5.98159e-06	6.24835e-06	4.15964e-06	5.63393e-06	0.0643774	0.0413531	0.429037	4.81653e-06	2.78116e-05	2.49598e-06	4.78065e-06	4.13401e-06	1.32428e-06	8.82078	0.457285	8.83262	2.96766	21385.1	412506	413060	-87.0323	0.0000000E+000	0.0000000E+000	0.0000000E+000	87.0323	0.0000000E+000	0.0000000E+000	0.0000000E+000	-87.0323	0.0000000E+000	0.0000000E+000	0.0000000E+000	-2.96766	0.0000000E+000	0.0000000E+000	0.0000000E+000	2.96766	19.2895	87.0323	-0.00120317
1698.37	0.115489	0.00495727	0.115596	-2.45786	258795	-0.000431869	-3.0735	18903.7	34.7654	1	37	0.00514473	0.0445062	0	-0.0194718	49	0.303255	0.158933	5.81969	4.96859e-06	7.46644e-06	4.22135e-06	6.76139e-06	7.26916e-06	4.15223e-06	0.0372684	0.057661	0.438776	4.26868e-06	1.2531e-05	4.46414e-06	4.89208e-06	5.68685e-06	3.26827e-06	8.64287	0.370987	8.65083	2.45786	34765.4	809928	810674	-87.5421	0.0000000E+000	0.0000000E+000	0.0000000E+000	87.5421	0.0000000E+000	0.0000000E+000	0.0000000E+000	-87.5421	0.0000000E+000	0.0000000E+000	0.0000000E+000	-2.45786	0.0000000E+000	0.0000000E+000	0.0000000E+000	2.45786	23.297	87.5421	-0.0011289
847.556	0.117492	0.00396572	0.117559	-1.93317	258799	-0.000445681	-3.17635	47351.1	53.8839	1	37	0.00504153	0.042885	0	-0.0230131	49	0.276002	0.184417	5.93491	9.20251e-06	5.20816e-06	2.08317e-06	4.29113e-06	4.70062e-06	4.6388e-06	0.0362311	0.0928861	0.45678	2.71537e-06	5.97003e-06	4.11533e-06	9.84693e-06	7.09792e-06	3.00268e-06	8.5015	0.286951	8.50634	1.93317	53883.9	1.59642e+06	1.59733e+06	-88.0668	0.0000000E+000	0.0000000E+000	0.0000000E+000	88.0668	0.0000000E+000	0.0000000E+000	0.0000000E+000	-88.0668	0.0000000E+000	0.0000000E+000	0.0000000E+000	-1.93317	0.0000000E+000	0.0000000E+000	0.0000000E+000	1.93317	29.627	88.0668	-0.0011173
423.239	0.11891	0.00283744	0.118944	-1.36693	258803	-0.000427525	-3.1545	132528	75.418	1	37	0.00534284	0.0449189	0	-0.0261167	49	0.274629	0.117427	5.58608	6.7945e-06	6.52764e-06	4.86208e-06	4.13193e-06	3.29889e-06	7.00518e-06	0.0492791	0.0237188	0.426721	4.72367e-06	1.63461e-05	3.20241e-06	1.18567e-05	3.64031e-06	5.01716e-06	8.40491	0.200558	8.40731	1.36693	75418.1	3.16059e+06	3.16149e+06	-88.6331	0.0000000E+000	0.0000000E+000	0.0000000E+000	88.6331	0.0000000E+000	0.0000000E+000	0.0000000E+000	-88.6331	0.0000000E+000	0.0000000E+000	0.0000000E+000	-1.36693	0.0000000E+000	0.0000000E+000	0.0000000E+000	1.36693	41.9076	88.6331	-0.00092317
211.149	0.11988	0.00216311	0.119899	-1.03373	258807	-0.000412687	-3.10172	348461	113.416	1	37	0.00536641	0.0447576	0	-0.0291706	49	0.257559	0.196373	5.60494	2.11375e-06	5.67596e-06	7.64044e-06	4.33766e-06	2.62695e-06	7.49849e-06	0.0815847	0.0204296	0.436618	3.67055e-06	2.72596e-05	5.09886e-06	2.20982e-05	4.49813e-06	5.5834e-06	8.33897	0.150468	8.34032	1.03373	113416	6.28556e+06	6.28658e+06	-88.9663	0.0000000E+000	0.0000000E+000	0.0000000E+000	88.9663	0.0000000E+000	0.0000000E+000	0.0000000E+000	-88.9663	0.0000000E+000	0.0000000E+000	0.0000000E+000	-1.03373	0.0000000E+000	0.0000000E+000	0.0000000E+000	1.03373	55.4202	88.9663	-0.000983909
105.438	0.120508	0.00146079	0.120517	-0.694502	258810	-0.000416807	-3.13693	1.03332e+06	151.815	1	37	0.00507117	0.0420785	0	-0.0321498	49	0.31395	0.0737563	5.88825	7.37813e-06	4.87961e-06	4.52405e-06	6.9568e-06	7.44694e-06	5.13699e-06	0.101873	0.0271065	0.463055	5.1719e-06	3.25319e-05	3.23221e-06	2.48929e-05	8.26227e-06	6.35889e-06	8.29699	0.100576	8.2976	0.694502	151815	1.2524e+07	1.25249e+07	-89.3055	0.0000000E+000	0.0000000E+000	0.0000000E+000	89.3055	0.0000000E+000	0.0000000E+000	0.0000000E+000	-89.3055	0.0000000E+000	0.0000000E+000	0.0000000E+000	-0.694502	0.0000000E+000	0.0000000E+000	0.0000000E+000	0.694502	82.495	89.3055	-0.00109203
52.6255	0.120875	0.00126463	0.120882	-0.599424	258813	-0.000400683	-3.0503	2.39144e+06	261.738	1	37	0.00510511	0.0422322	0	-0.0349244	49	0.271819	0.114654	5.84985	2.25555e-06	7.68978e-06	3.7949e-06	3.87577e-06	7.62416e-06	4.94034e-06	0.104844	0.0335566	0.471504	5.49357e-06	2.84541e-05	3.26751e-06	3.0919e-05	6.35252e-06	8.02132e-06	8.27209	0.0865452	8.27254	0.599424	261739	2.50172e+07	2.50186e+07	-89.4006	0.0000000E+000	0.0000000E+000	0.0000000E+000	89.4006	0.0000000E+000	0.0000000E+000	0.0000000E+000	-89.4006	0.0000000E+000	0.0000000E+000	0.0000000E+000	-0.599424	0.0000000E+000	0.0000000E+000	0.0000000E+000	0.599424	95.5812	89.4006	-0.000961709
26.2693	0.121403	0.00117289	0.121409	-0.553524	258817	-0.0004084	-3.06757	5.16552e+06	482.09	1	37	0.00511878	0.0421615	0	-0.0377374	49	0.418855	0.16225	5.851	5.163e-06	6.35729e-06	6.43735e-06	4.89318e-06	5.72486e-06	1.61551e-05	0.11509	0.036589	0.468856	4.4653e-06	3.5812e-05	5.82015e-06	3.02596e-05	5.20019e-06	7.33076e-06	8.23625	0.0795714	8.23663	0.553524	482093	4.99e+07	4.99023e+07	-89.4465	0.0000000E+000	0.0000000E+000	0.0000000E+000	89.4465	0.0000000E+000	0.0000000E+000	0.0000000E+000	-89.4465	0.0000000E+000	0.0000000E+000	0.0000000E+000	-0.553524	0.0000000E+000	0.0000000E+000	0.0000000E+000	0.553524	103.508	89.4465	-0.00103131
13.1083	0.121687	0.00118606	0.121692	-0.558433	258820	-0.000415362	-3.1701	1.02369e+07	972.418	1	37	0.00511496	0.0420318	0	-0.0405798	49	0.255098	0.133608	4.01979	4.04205e-06	4.665e-06	3.81957e-06	6.11637e-06	7.62799e-06	2.56481e-06	0.113105	0.0744127	0.345782	7.31903e-06	3.14421e-05	6.16312e-06	3.21774e-05	8.03376e-06	4.14285e-06	8.21704	0.0800899	8.21743	0.558433	972419	9.97679e+07	9.97726e+07	-89.4416	0.0000000E+000	0.0000000E+000	0.0000000E+000	89.4416	0.0000000E+000	0.0000000E+000	0.0000000E+000	-89.4416	0.0000000E+000	0.0000000E+000	0.0000000E+000	-0.558433	0.0000000E+000	0.0000000E+000	0.0000000E+000	0.558433	102.598	89.4416	-0.00124273
6.54313	0.122142	0.00129968	0.122149	-0.609646	258824	-0.000418773	-3.15147	1.87153e+07	2118.8	1	37	0.00511715	0.0418926	0	-0.0437348	49	0.234295	0.145471	4.17463	3.10585e-06	8.08117e-06	4.34828e-06	3.76946e-06	4.0793e-06	2.50802e-06	0.111743	0.0721626	0.343847	1.96832e-05	2.65782e-05	8.57667e-06	2.72533e-05	1.14055e-05	6.28085e-06	8.18624	0.0871076	8.1867	0.609646	2.11882e+06	1.99122e+08	1.99133e+08	-89.3903	0.0000000E+000	0.0000000E+000	0.0000000E+000	89.3903	0.0000000E+000	0.0000000E+000	0.0000000E+000	-89.3903	0.0000000E+000	0.0000000E+000	0.0000000E+000	-0.609646	0.0000000E+000	0.0000000E+000	0.0000000E+000	0.609646	93.9785	89.3903	-0.0010531
3.26541	0.12254	0.00163486	0.122551	-0.764364	258829	-0.000408325	-3.10099	2.98128e+07	5305.57	1	37	0.0051202	0.0417803	0	-0.0486383	49	0.158575	0.106772	2.51963	2.6965e-06	5.13554e-06	2.66766e-06	2.93672e-06	2.72168e-06	1.60785e-06	0.122664	0.0664349	0.251261	1.28756e-05	3.4996e-05	8.33418e-06	3.17111e-05	3.74843e-06	7.18487e-06	8.15917	0.108855	8.1599	0.764364	5.30558e+06	3.97675e+08	3.97711e+08	-89.2356	0.0000000E+000	0.0000000E+000	0.0000000E+000	89.2356	0.0000000E+000	0.0000000E+000	0.0000000E+000	-89.2356	0.0000000E+000	0.0000000E+000	0.0000000E+000	-0.764364	0.0000000E+000	0.0000000E+000	0.0000000E+000	0.764364	74.9543	89.2356	-0.00228803
1.63084	0.123114	0.00255172	0.123141	-1.18736	258840	-0.000422811	-3.13224	3.82453e+07	16422.5	1	37	0.0051184	0.0415654	0	-0.0566259	49	0.144352	0.105179	1.70486	3.3824e-06	3.62069e-06	2.58657e-06	3.18742e-06	1.86145e-06	1.59908e-06	0.117065	0.0800197	0.20184	1.23218e-05	3.36573e-05	9.92781e-06	2.83233e-05	1.00201e-05	6.18043e-06	8.11904	0.168278	8.12078	1.18736	1.64224e+07	7.92346e+08	7.92516e+08	-88.8126	0.0000000E+000	0.0000000E+000	0.0000000E+000	88.8126	0.0000000E+000	0.0000000E+000	0.0000000E+000	-88.8126	0.0000000E+000	0.0000000E+000	0.0000000E+000	-1.18736	0.0000000E+000	0.0000000E+000	0.0000000E+000	1.18736	48.2477	88.8126	-0.00247636
0.813551	0.124173	0.00400018	0.124237	-1.84513	258859	-0.000412853	-3.07621	4.89053e+07	50700.6	1	37	0.00511809	0.0411962	0	-0.0740752	49	0.12547	0.097665	1.20358	3.10387e-06	2.9881e-06	1.10902e-06	2.57927e-06	2.82381e-06	1.68448e-06	0.127453	0.085301	0.189805	1.31878e-05	3.5987e-05	1.43937e-05	2.88122e-05	6.80855e-06	7.64296e-06	8.04496	0.259166	8.04913	1.84513	5.07007e+07	1.57383e+09	1.57465e+09	-88.1549	0.0000000E+000	0.0000000E+000	0.0000000E+000	88.1549	0.0000000E+000	0.0000000E+000	0.0000000E+000	-88.1549	0.0000000E+000	0.0000000E+000	0.0000000E+000	-1.84513	0.0000000E+000	0.0000000E+000	0.0000000E+000	1.84513	31.0417	88.1549	-0.00698971
0.406108	0.127202	0.00563659	0.127327	-2.53723	258896	-0.000407545	-3.14371	6.95284e+07	136255	1	37	0.00511712	0.0401887	0	-0.109649	49	0.101277	0.0856412	0.84792	1.60705e-06	3.51479e-06	1.17046e-06	2.34175e-06	9.64475e-07	1.2967e-06	0.114976	0.0701532	0.173349	1.38466e-05	2.86831e-05	6.42075e-06	2.936e-05	5.5249e-06	1.00646e-05	7.84609	0.347676	7.85379	2.53723	1.36255e+08	3.0749e+09	3.07792e+09	-87.4628	0.0000000E+000	0.0000000E+000	0.0000000E+000	87.4628	0.0000000E+000	0.0000000E+000	0.0000000E+000	-87.4628	0.0000000E+000	0.0000000E+000	0.0000000E+000	-2.53723	0.0000000E+000	0.0000000E+000	0.0000000E+000	2.53723	22.5673	87.4628	-0.0167909
0.202719	0.130946	0.00479207	0.131034	-2.09585	258970	-0.000419414	-3.20484	1.63833e+08	219120	1	37	0.00511408	0.0390287	0	-0.163257	49	0.111557	0.0836216	0.615841	2.64953e-06	3.29474e-06	9.46931e-07	2.87898e-06	1.47129e-06	1.12035e-06	0.139286	0.0727244	0.19771	1.49966e-05	3.61555e-05	6.25037e-06	3.46426e-05	6.66324e-06	9.01757e-06	7.62652	0.279098	7.63163	2.09585	2.1912e+08	5.98759e+09	5.9916e+09	-87.9042	0.0000000E+000	0.0000000E+000	0.0000000E+000	87.9042	0.0000000E+000	0.0000000E+000	0.0000000E+000	-87.9042	0.0000000E+000	0.0000000E+000	0.0000000E+000	-2.09585	0.0000000E+000	0.0000000E+000	0.0000000E+000	2.09585	27.3256	87.9042	-0.027284
0.101164	0.132574	0.00292885	0.132606	-1.26559	259117	-0.000397992	-3.01468	5.37151e+08	262039	1	37	0.00511336	0.0385606	0	-0.308657	49	0.122075	0.119765	0.448074	3.07485e-06	3.87335e-06	1.01159e-06	3.29466e-06	9.25494e-07	7.95489e-07	0.117583	0.0907833	0.193204	1.32466e-05	2.77932e-05	6.40766e-06	3.03629e-05	6.47122e-06	5.58946e-06	7.5393	0.16656	7.54114	1.26559	2.62038e+08	1.18611e+10	1.1864e+10	-88.7344	0.0000000E+000	0.0000000E+000	0.0000000E+000	88.7344	0.0000000E+000	0.0000000E+000	0.0000000E+000	-88.7344	0.0000000E+000	0.0000000E+000	0.0000000E+000	-1.26559	0.0000000E+000	0.0000000E+000	0.0000000E+000	1.26559	45.2647	88.7344	-0.0528756
0.0505041	0.133083	0.00159408	0.133092	-0.686262	259411	-0.000411206	-3.02414	1.9769e+09	283594	1	37	0.00511039	0.0383973	0	-0.50491	49	0.109967	0.0979612	0.340163	3.23958e-06	3.16442e-06	1.23125e-06	2.3852e-06	5.30645e-07	5.68437e-07	0.11159	0.0903142	0.186003	7.1769e-06	2.59324e-05	6.22957e-06	3.07426e-05	6.10356e-06	3.62729e-06	7.51304	0.0899919	7.51358	0.686262	2.83595e+08	2.36761e+10	2.36778e+10	-89.3137	0.0000000E+000	0.0000000E+000	0.0000000E+000	89.3137	0.0000000E+000	0.0000000E+000	0.0000000E+000	-89.3137	0.0000000E+000	0.0000000E+000	0.0000000E+000	-0.686262	0.0000000E+000	0.0000000E+000	0.0000000E+000	0.686262	83.4857	89.3137	-0.0824376
0.0252177	0.133309	0.00088166	0.133312	-0.37893	259999	-0.000418419	-2.98366	7.15837e+09	313098	1	37	0.00511531	0.0383711	0	-1.06019	49	0.153708	0.166105	0.274651	3.52507e-06	5.43218e-06	1.70439e-06	2.15359e-06	1.47533e-06	1.02763e-06	0.146199	0.0850994	0.183881	2.31927e-05	3.69772e-05	9.8427e-06	2.97909e-05	6.88704e-06	6.71527e-06	7.50106	0.0496096	7.50123	0.37893	3.13097e+08	4.7341e+10	4.73421e+10	-89.6211	0.0000000E+000	0.0000000E+000	0.0000000E+000	89.6211	0.0000000E+000	0.0000000E+000	0.0000000E+000	-89.6211	0.0000000E+000	0.0000000E+000	0.0000000E+000	-0.37893	0.0000000E+000	0.0000000E+000	0.0000000E+000	0.37893	151.202	89.6211	-0.244076
174510	0.0933487	-0.0147088	0.0945005	8.95438	260307	-0.000324629	-2.02668	-62.0044	-1.50214	2	37	0.00472724	0.0500235	0	-1.35889	49	-1	-1	-1	0	0	0	0	0	0	-1	-1	-1	0	0	0	0	0	0	10.453	-1.64706	10.582	-8.95438	-1502.14	9533.23	9650.85	-98.9544	0.0000000E+000	0.0000000E+000	0.0000000E+000	98.9544	0.0000000E+000	0.0000000E+000	0.0000000E+000	-98.9544	0.0000000E+000	0.0000000E+000	0.0000000E+000	8.95438	0.0000000E+000	0.0000000E+000	0.0000000E+000	-8.95438	6.34645	81.0456	-0.000571149
87106.6	0.096826	-0.0046265	0.0969365	2.7356	260310	-0.000333352	-2.08132	-394.926	-0.899595	2	37	0.00523237	0.0539773	0	-1.36076	49	0.304112	0.248722	5.73204	7.24348e-06	3.86151e-06	3.8886e-06	7.0436e-06	9.41178e-06	4.82069e-06	0.0834093	0.0248396	0.352517	1.49766e-05	4.11091e-05	3.20836e-06	6.03945e-06	6.02915e-06	4.20426e-06	10.3043	-0.492355	10.316	-2.7356	-899.595	18827.2	18848.7	-92.7356	0.0000000E+000	0.0000000E+000	0.0000000E+000	92.7356	0.0000000E+000	0.0000000E+000	0.0000000E+000	-92.7356	0.0000000E+000	0.0000000E+000	0.0000000E+000	2.7356	0.0000000E+000	0.0000000E+000	0.0000000E+000	-2.7356	20.9286	87.2644	-0.000703366
43479.1	0.0992622	0.00126292	0.0992702	-0.72894	260313	-0.000338553	-2.08815	2898.43	0.469114	2	37	0.00519449	0.0523268	0	-1.36293	49	0.365518	0.146797	5.75783	5.8836e-06	7.05775e-06	8.28343e-06	1.07237e-05	4.25972e-06	4.41126e-06	0.106122	0.0385185	0.368754	1.01924e-05	5.28704e-05	3.40851e-06	7.17358e-06	4.01347e-06	9.26635e-06	10.0727	0.128156	10.0735	0.72894	469.116	36871.1	36874.1	-89.2711	0.0000000E+000	0.0000000E+000	0.0000000E+000	89.2711	0.0000000E+000	0.0000000E+000	0.0000000E+000	-89.2711	0.0000000E+000	0.0000000E+000	0.0000000E+000	-0.72894	0.0000000E+000	0.0000000E+000	0.0000000E+000	0.72894	78.5972	89.2711	-0.000691141
21702.4	0.102768	0.00504525	0.102891	-2.81061	260317	-0.000322802	-2.0703	1453.55	3.49491	2	37	0.0051859	0.0504017	0	-1.36498	49	0.312502	0.16111	5.71911	5.16606e-06	6.60235e-06	7.10789e-06	4.94373e-06	8.42789e-06	5.49011e-06	0.106715	0.0549346	0.382812	4.71343e-06	5.2172e-05	3.41331e-06	7.93282e-06	4.36439e-06	5.69054e-06	9.70729	0.476567	9.71898	2.81061	3494.91	71188.5	71274.3	-87.1894	0.0000000E+000	0.0000000E+000	0.0000000E+000	87.1894	0.0000000E+000	0.0000000E+000	0.0000000E+000	-87.1894	0.0000000E+000	0.0000000E+000	0.0000000E+000	-2.81061	0.0000000E+000	0.0000000E+000	0.0000000E+000	2.81061	20.3692	87.1894	-0.000620862
10837.3	0.106864	0.00637049	0.107053	-3.41155	260320	-0.000312941	-1.99331	2305.29	8.16341	2	37	0.00515664	0.0481688	0	-1.367	49	0.291513	0.226492	5.75807	3.21844e-06	4.49677e-06	6.38051e-06	5.68304e-06	4.66095e-06	6.61165e-06	0.0776623	0.0365398	0.403305	7.16446e-06	3.52379e-05	4.0686e-06	5.52304e-06	4.01191e-06	5.10702e-06	9.32458	0.555869	9.34113	3.41155	8163.41	136939	137183	-86.5884	0.0000000E+000	0.0000000E+000	0.0000000E+000	86.5884	0.0000000E+000	0.0000000E+000	0.0000000E+000	-86.5884	0.0000000E+000	0.0000000E+000	0.0000000E+000	-3.41155	0.0000000E+000	0.0000000E+000	0.0000000E+000	3.41155	16.7748	86.5884	-0.000662007
5406.63	0.110615	0.00638469	0.110799	-3.30344	260324	-0.00041992	-2.78925	4610.56	15.3095	2	37	0.00517987	0.0467501	0	-1.36975	49	0.295641	0.14778	5.74156	6.66357e-06	5.12938e-06	6.75126e-06	5.72991e-06	4.32598e-06	5.17757e-06	0.0987531	0.0982502	0.417717	1.11487e-05	4.17426e-05	1.09888e-05	7.00254e-06	4.99189e-06	4.93677e-06	9.01034	0.520075	9.02533	3.30344	15309.5	265237	265679	-86.6966	0.0000000E+000	0.0000000E+000	0.0000000E+000	86.6966	0.0000000E+000	0.0000000E+000	0.0000000E+000	-86.6966	0.0000000E+000	0.0000000E+000	0.0000000E+000	-3.30344	0.0000000E+000	0.0000000E+000	0.0000000E+000	3.30344	17.3251	86.6966	-0.00088961
2699.14	0.113508	0.00551725	0.113642	-2.78278	260328	-0.000435615	-2.88198	10687.4	25.1908	2	37	0.00511934	0.0450481	0	-1.37285	49	0.309585	0.17691	5.90988	3.81142e-06	5.14143e-06	8.07175e-06	7.55701e-06	3.77823e-06	4.13618e-06	0.0591609	0.0195024	0.427	4.28229e-06	2.4175e-05	4.49615e-06	5.25618e-06	5.25574e-06	2.74182e-06	8.78921	0.427216	8.79959	2.78278	25190.8	518257	518869	-87.2172	0.0000000E+000	0.0000000E+000	0.0000000E+000	87.2172	0.0000000E+000	0.0000000E+000	0.0000000E+000	-87.2172	0.0000000E+000	0.0000000E+000	0.0000000E+000	-2.78278	0.0000000E+000	0.0000000E+000	0.0000000E+000	2.78278	20.5732	87.2172	-0.00101371
1347.15	0.115818	0.0044838	0.115904	-2.21706	260332	-0.00044954	-2.9521	26348.5	39.432	2	37	0.00512786	0.0442421	0	-1.37594	49	0.322153	0.149261	5.8374	8.83375e-06	5.22621e-06	3.94627e-06	3.47396e-06	7.22736e-06	7.54995e-06	0.0337032	0.0316717	0.439631	3.96041e-06	8.78355e-06	3.03514e-06	6.70018e-06	5.44422e-06	4.0468e-06	8.62134	0.333769	8.6278	2.21706	39432	1.01854e+06	1.0193e+06	-87.7829	0.0000000E+000	0.0000000E+000	0.0000000E+000	87.7829	0.0000000E+000	0.0000000E+000	0.0000000E+000	-87.7829	0.0000000E+000	0.0000000E+000	0.0000000E+000	-2.21706	0.0000000E+000	0.0000000E+000	0.0000000E+000	2.21706	25.8302	87.7829	-0.00102381
672.366	0.117579	0.00348921	0.117631	-1.69977	260336	-0.000426947	-2.9731	67840.2	59.6892	2	37	0.00503955	0.0428419	0	-1.37931	49	0.224132	0.178623	5.79391	5.24961e-06	3.51948e-06	4.35156e-06	4.4064e-06	4.30195e-06	3.06679e-06	0.0503097	0.0198929	0.465609	5.51261e-06	1.57471e-05	4.06103e-06	9.53632e-06	4.14936e-06	7.05035e-06	8.4974	0.252163	8.50114	1.69977	59689.3	2.01141e+06	2.01229e+06	-88.3002	0.0000000E+000	0.0000000E+000	0.0000000E+000	88.3002	0.0000000E+000	0.0000000E+000	0.0000000E+000	-88.3002	0.0000000E+000	0.0000000E+000	0.0000000E+000	-1.69977	0.0000000E+000	0.0000000E+000	0.0000000E+000	1.69977	33.698	88.3002	-0.00118532
335.537	0.11892	0.00261318	0.118949	-1.25882	260340	-0.000440331	-2.99424	181514	87.6045	2	37	0.00506041	0.0425426	0	-1.38243	49	0.241032	0.199692	5.97183	5.77367e-06	4.71288e-06	4.02922e-06	4.97251e-06	4.84395e-06	1.94876e-06	0.0607681	0.0212711	0.471303	5.59213e-06	2.21131e-05	2.56255e-06	1.00966e-05	5.03018e-06	2.467e-06	8.40493	0.184691	8.40696	1.25882	87604.7	3.9867e+06	3.98766e+06	-88.7412	0.0000000E+000	0.0000000E+000	0.0000000E+000	88.7412	0.0000000E+000	0.0000000E+000	0.0000000E+000	-88.7412	0.0000000E+000	0.0000000E+000	0.0000000E+000	-1.25882	0.0000000E+000	0.0000000E+000	0.0000000E+000	1.25882	45.508	88.7412	-0.00108821
167.481	0.119692	0.0018598	0.119706	-0.890204	260343	-0.000421709	-2.99039	510963	123.336	2	37	0.0054435	0.045474	0	-1.38524	49	0.292174	0.150057	5.56115	3.40046e-06	4.95082e-06	4.29589e-06	1.15841e-05	4.25032e-06	5.93183e-06	0.0897801	0.0265397	0.436091	4.27799e-06	3.02342e-05	3.90453e-06	2.47374e-05	7.35257e-06	5.84318e-06	8.3528	0.129788	8.3538	0.890204	123336	7.93756e+06	7.93851e+06	-89.1098	0.0000000E+000	0.0000000E+000	0.0000000E+000	89.1098	0.0000000E+000	0.0000000E+000	0.0000000E+000	-89.1098	0.0000000E+000	0.0000000E+000	0.0000000E+000	-0.890204	0.0000000E+000	0.0000000E+000	0.0000000E+000	0.890204	64.3573	89.1098	-0.000974886
83.635	0.120191	0.0013709	0.120199	-0.653489	260347	-0.000429427	-3.04992	1.38812e+06	180.567	2	37	0.00508532	0.0423077	0	-1.38839	49	0.310216	0.147294	5.76602	5.81993e-06	5.26714e-06	3.43149e-06	5.05635e-06	7.01067e-06	8.65302e-06	0.102319	0.0250819	0.46082	5.02388e-06	3.42833e-05	2.30474e-06	2.50192e-05	3.99266e-06	3.36042e-06	8.31903	0.0948871	8.31957	0.653489	180567	1.58309e+07	1.58319e+07	-89.3465	0.0000000E+000	0.0000000E+000	0.0000000E+000	89.3465	0.0000000E+000	0.0000000E+000	0.0000000E+000	-89.3465	0.0000000E+000	0.0000000E+000	0.0000000E+000	-0.653489	0.0000000E+000	0.0000000E+000	0.0000000E+000	0.653489	87.673	89.3465	-0.00096912
41.7501	0.120721	0.00132612	0.120728	-0.629369	260350	-0.000427134	-3.04795	2.87461e+06	346.839	2	37	0.00511364	0.0423566	0	-1.39119	49	0.31806	0.194117	5.81676	9.18433e-06	8.06382e-06	3.70934e-06	4.71245e-06	6.21927e-06	3.82821e-06	0.110251	0.0275143	0.458627	6.13874e-06	3.31499e-05	6.62724e-06	2.8601e-05	1.04386e-05	4.02213e-06	8.28257	0.0909841	8.28307	0.629369	346840	3.15738e+07	3.15757e+07	-89.3706	0.0000000E+000	0.0000000E+000	0.0000000E+000	89.3706	0.0000000E+000	0.0000000E+000	0.0000000E+000	-89.3706	0.0000000E+000	0.0000000E+000	0.0000000E+000	-0.629369	0.0000000E+000	0.0000000E+000	0.0000000E+000	0.629369	91.0332	89.3706	-0.000875058
20.8333	0.120963	0.0012167	0.120969	-0.576288	260353	-0.000436678	-3.07535	6.27883e+06	635.182	2	37	0.00511278	0.0422652	0	-1.39391	49	0.251841	0.13691	5.82826	4.84091e-06	4.99846e-06	5.50546e-06	6.05341e-06	4.15857e-06	3.81603e-06	0.119935	0.0844215	0.450681	4.51135e-06	3.55933e-05	6.239e-06	3.42436e-05	5.62809e-06	3.3028e-06	8.26618	0.083145	8.26659	0.576288	635180	6.3149e+07	6.31522e+07	-89.4237	0.0000000E+000	0.0000000E+000	0.0000000E+000	89.4237	0.0000000E+000	0.0000000E+000	0.0000000E+000	-89.4237	0.0000000E+000	0.0000000E+000	0.0000000E+000	-0.576288	0.0000000E+000	0.0000000E+000	0.0000000E+000	0.576288	99.4188	89.4237	-0.000831469
10.3959	0.121407	0.00129531	0.121414	-0.611272	260357	-0.000413768	-2.95746	1.18191e+07	1345.22	2	37	0.00511431	0.0421228	0	-1.39699	49	0.315194	0.159175	5.89584	5.12987e-06	6.51787e-06	3.41225e-06	6.59549e-06	8.26286e-06	6.31618e-06	0.11859	0.0843147	0.455661	7.71351e-06	3.54833e-05	4.42147e-06	3.17696e-05	6.52749e-06	7.78958e-06	8.2358	0.0878688	8.23627	0.611272	1.34523e+06	1.26086e+08	1.26093e+08	-89.3887	0.0000000E+000	0.0000000E+000	0.0000000E+000	89.3887	0.0000000E+000	0.0000000E+000	0.0000000E+000	-89.3887	0.0000000E+000	0.0000000E+000	0.0000000E+000	-0.611272	0.0000000E+000	0.0000000E+000	0.0000000E+000	0.611272	93.7284	89.3887	-0.00116132
5.19276	0.121873	0.00132026	0.12188	-0.620666	260361	-0.000412786	-2.99713	2.32146e+07	2724.05	2	37	0.00511805	0.0419924	0	-1.39999	49	0.217257	0.0830463	3.36614	3.34862e-06	7.65427e-06	3.00251e-06	4.13181e-06	1.89424e-06	1.84265e-06	0.132589	0.0398566	0.282702	1.07951e-05	3.84322e-05	4.7177e-06	3.13224e-05	5.89548e-06	6.33065e-06	8.20429	0.0888777	8.20477	0.620666	2.72405e+06	2.51457e+08	2.51471e+08	-89.3793	0.0000000E+000	0.0000000E+000	0.0000000E+000	89.3793	0.0000000E+000	0.0000000E+000	0.0000000E+000	-89.3793	0.0000000E+000	0.0000000E+000	0.0000000E+000	-0.620666	0.0000000E+000	0.0000000E+000	0.0000000E+000	0.620666	92.3098	89.3793	-0.00147013
2.58949	0.122274	0.00183788	0.122288	-0.861135	260368	-0.000416599	-2.9954	3.34417e+07	7553.59	2	37	0.00511919	0.0418617	0	-1.40612	49	0.144194	0.0656006	2.15222	2.37581e-06	3.41149e-06	2.05564e-06	4.32927e-06	1.92408e-06	2.81245e-06	0.126305	0.0632454	0.207356	6.76891e-06	3.14024e-05	5.41387e-06	3.209e-05	2.4846e-05	6.68292e-06	8.17648	0.122899	8.17741	0.861135	7.5536e+06	5.02541e+08	5.02598e+08	-89.1389	0.0000000E+000	0.0000000E+000	0.0000000E+000	89.1389	0.0000000E+000	0.0000000E+000	0.0000000E+000	-89.1389	0.0000000E+000	0.0000000E+000	0.0000000E+000	-0.861135	0.0000000E+000	0.0000000E+000	0.0000000E+000	0.861135	66.5302	89.1389	-0.00250923
1.29325	0.122922	0.00282654	0.122954	-1.31726	260380	-0.000416538	-2.97557	4.35394e+07	23009.5	2	37	0.00511864	0.0416305	0	-1.41772	49	0.12764	0.0567302	1.49087	9.78143e-07	3.63632e-06	2.18921e-06	2.6726e-06	2.74318e-06	2.65365e-06	0.122326	0.0830514	0.185215	1.14716e-05	3.5994e-05	7.37099e-06	3.12737e-05	7.50962e-06	6.27118e-06	8.13096	0.186969	8.13311	1.31726	2.30094e+07	1.00064e+09	1.00091e+09	-88.6827	0.0000000E+000	0.0000000E+000	0.0000000E+000	88.6827	0.0000000E+000	0.0000000E+000	0.0000000E+000	-88.6827	0.0000000E+000	0.0000000E+000	0.0000000E+000	-1.31726	0.0000000E+000	0.0000000E+000	0.0000000E+000	1.31726	43.4884	88.6827	-0.0066058
0.645874	0.124464	0.00471823	0.124553	-2.17095	260404	-0.000415556	-2.90993	5.22267e+07	74944.5	2	37	0.00511807	0.0410914	0	-1.43753	49	0.119664	0.0832375	1.0588	1.03351e-06	4.41794e-06	1.72106e-06	3.38189e-06	8.09141e-07	8.86951e-07	0.134827	0.0901744	0.193831	1.37244e-05	3.09422e-05	9.50889e-06	4.07184e-05	7.09099e-06	6.28954e-06	8.02292	0.304136	8.02868	2.17095	7.49445e+07	1.97699e+09	1.97841e+09	-87.829	0.0000000E+000	0.0000000E+000	0.0000000E+000	87.829	0.0000000E+000	0.0000000E+000	0.0000000E+000	-87.829	0.0000000E+000	0.0000000E+000	0.0000000E+000	-2.17095	0.0000000E+000	0.0000000E+000	0.0000000E+000	2.17095	26.3794	87.829	-0.00894203
0.322118	0.128157	0.00560436	0.128279	-2.50398	260451	-0.000403703	-2.81886	8.81614e+07	168274	2	37	0.00511663	0.0398866	0	-1.47696	49	0.112947	0.0706684	0.750951	1.73881e-06	4.2062e-06	1.60603e-06	2.06053e-06	1.96289e-06	6.24019e-07	0.13079	0.106612	0.173949	1.2437e-05	3.45088e-05	4.83552e-06	3.39931e-05	7.50131e-06	6.76007e-06	7.78804	0.340575	7.79548	2.50398	1.68274e+08	3.84798e+09	3.85166e+09	-87.496	0.0000000E+000	0.0000000E+000	0.0000000E+000	87.496	0.0000000E+000	0.0000000E+000	0.0000000E+000	-87.496	0.0000000E+000	0.0000000E+000	0.0000000E+000	-2.50398	0.0000000E+000	0.0000000E+000	0.0000000E+000	2.50398	22.8673	87.496	-0.0218288
0.160792	0.131238	0.00412295	0.131303	-1.7994	260544	-0.00042662	-3.07037	2.40075e+08	236709	2	37	0.0051124	0.038936	0	-1.53918	49	0.110309	0.0839702	0.542633	2.47509e-06	3.41993e-06	1.53225e-06	2.0994e-06	1.65936e-06	7.29255e-07	0.122908	0.0679793	0.184132	1.16002e-05	2.95139e-05	1.11864e-05	3.05747e-05	6.838e-06	6.38762e-06	7.61224	0.239145	7.61599	1.7994	2.36709e+08	7.53471e+09	7.53843e+09	-88.2006	0.0000000E+000	0.0000000E+000	0.0000000E+000	88.2006	0.0000000E+000	0.0000000E+000	0.0000000E+000	-88.2006	0.0000000E+000	0.0000000E+000	0.0000000E+000	-1.7994	0.0000000E+000	0.0000000E+000	0.0000000E+000	1.7994	31.8311	88.2006	-0.0228542
0.0802383	0.132558	0.00243325	0.13258	-1.05161	260729	-0.000435469	-3.10043	8.15177e+08	274578	2	37	0.00511406	0.0385732	0	-1.71853	49	0.117651	0.12474	0.402267	1.71667e-06	4.97717e-06	8.13853e-07	2.30954e-06	7.49731e-07	8.53125e-07	0.134868	0.0874238	0.196554	1.14325e-05	3.97388e-05	8.06243e-06	2.79547e-05	8.05278e-06	4.68659e-06	7.54132	0.138429	7.54259	1.05161	2.74577e+08	1.49584e+10	1.49609e+10	-88.9484	0.0000000E+000	0.0000000E+000	0.0000000E+000	88.9484	0.0000000E+000	0.0000000E+000	0.0000000E+000	-88.9484	0.0000000E+000	0.0000000E+000	0.0000000E+000	-1.05161	0.0000000E+000	0.0000000E+000	0.0000000E+000	1.05161	54.4778	88.9484	-0.0812568
0.04008	0.132853	0.00129017	0.132859	-0.556396	261099	-0.000432452	-3.03057	3.07785e+09	290239	2	37	0.00511492	0.0384988	0	-2.01962	49	0.0968597	0.126936	0.304168	2.09077e-06	3.33246e-06	6.3953e-07	2.26363e-06	9.77146e-07	8.73477e-07	0.129713	0.213041	0.18209	1.84361e-05	2.87932e-05	7.29287e-06	3.18583e-05	6.17562e-06	8.1438e-06	7.52641	0.0730909	7.52677	0.556396	2.90239e+08	2.98869e+10	2.98883e+10	-89.4436	0.0000000E+000	0.0000000E+000	0.0000000E+000	89.4436	0.0000000E+000	0.0000000E+000	0.0000000E+000	-89.4436	0.0000000E+000	0.0000000E+000	0.0000000E+000	-0.556396	0.0000000E+000	0.0000000E+000	0.0000000E+000	0.556396	102.973	89.4436	-0.103957
0.0199946	0.132874	0.00071549	0.132876	-0.308518	261840	-0.000440369	-2.98188	1.11251e+10	322564	2	37	0.00511015	0.0384579	0	-2.57177	49	0.105857	0.182274	0.260136	1.55857e-06	3.90388e-06	1.05848e-06	2.4413e-06	1.30194e-06	8.10822e-07	0.132455	0.174353	0.185837	2.53788e-05	2.56261e-05	8.50065e-06	3.08023e-05	2.39143e-06	8.07971e-06	7.52568	0.0405236	7.52579	0.308518	3.22563e+08	5.99037e+10	5.99045e+10	-89.6915	0.0000000E+000	0.0000000E+000	0.0000000E+000	89.6915	0.0000000E+000	0.0000000E+000	0.0000000E+000	-89.6915	0.0000000E+000	0.0000000E+000	0.0000000E+000	-0.308518	0.0000000E+000	0.0000000E+000	0.0000000E+000	0.308518	185.711	89.6915	-0.254768
138435	0.0946109	-0.0105826	0.0952009	6.38221	261843	-0.000343735	-1.96116	-108.638	-1.3424	3	37	0.00517729	0.0543828	0	-2.57361	49	-1	-1	-1	0	0	0	0	0	0	-1	-1	-1	0	0	0	0	0	0	10.439	-1.16764	10.5041	-6.38221	-1342.4	12001.4	12076.2	-96.3822	0.0000000E+000	0.0000000E+000	0.0000000E+000	96.3822	0.0000000E+000	0.0000000E+000	0.0000000E+000	-96.3822	0.0000000E+000	0.0000000E+000	0.0000000E+000	6.38221	0.0000000E+000	0.0000000E+000	0.0000000E+000	-6.38221	8.94026	83.6178	-0.00059519
69097	0.0974128	-0.00234589	0.097441	1.37953	261846	-0.000356262	-2.05156	-981.867	-0.569096	3	37	0.00521653	0.0535353	0	-2.57544	49	0.221374	0.226659	5.67681	3.207e-06	6.82348e-06	4.7905e-06	2.85832e-06	4.51463e-06	4.18287e-06	0.0936515	0.0593338	0.371557	1.39738e-05	4.70871e-05	4.97103e-06	5.87415e-06	4.57011e-06	3.14662e-06	10.2596	-0.247073	10.2626	-1.37953	-569.097	23631.6	23638.5	-91.3795	0.0000000E+000	0.0000000E+000	0.0000000E+000	91.3795	0.0000000E+000	0.0000000E+000	0.0000000E+000	-91.3795	0.0000000E+000	0.0000000E+000	0.0000000E+000	1.37953	0.0000000E+000	0.0000000E+000	0.0000000E+000	-1.37953	41.5248	88.6205	-0.000590785
34488.2	0.100084	0.00273074	0.100121	-1.5629	261850	-0.000347873	-2.03511	1689.93	1.25712	3	37	0.00518518	0.0517891	0	-2.57739	49	0.301208	0.18239	5.79107	1.01542e-05	6.89326e-06	3.67435e-06	3.68032e-06	3.99577e-06	5.03758e-06	0.107535	0.0551494	0.377954	7.24903e-06	5.43996e-05	1.72192e-06	6.72169e-06	4.31258e-06	3.11029e-06	9.98419	0.272413	9.98791	1.5629	1257.12	46074.7	46091.8	-88.4371	0.0000000E+000	0.0000000E+000	0.0000000E+000	88.4371	0.0000000E+000	0.0000000E+000	0.0000000E+000	-88.4371	0.0000000E+000	0.0000000E+000	0.0000000E+000	-1.5629	0.0000000E+000	0.0000000E+000	0.0000000E+000	1.5629	36.6509	88.4371	-0.000701705
17211.6	0.104008	0.00573693	0.104166	-3.15714	261853	-0.000353764	-2.11668	1611.83	4.88903	3	37	0.00517916	0.0497201	0	-2.57936	49	0.30551	0.142857	5.74054	5.31418e-06	7.68029e-06	6.89377e-06	7.30938e-06	2.86954e-06	4.08669e-06	0.102191	0.0123555	0.388365	4.94866e-06	4.8261e-05	6.77202e-06	9.5902e-06	6.68562e-06	5.10571e-06	9.58546	0.528718	9.60003	3.15714	4889.03	88636.2	88770.9	-86.8429	0.0000000E+000	0.0000000E+000	0.0000000E+000	86.8429	0.0000000E+000	0.0000000E+000	0.0000000E+000	-86.8429	0.0000000E+000	0.0000000E+000	0.0000000E+000	-3.15714	0.0000000E+000	0.0000000E+000	0.0000000E+000	3.15714	18.1296	86.8429	-0.000727751
8590.41	0.108017	0.00659225	0.108218	-3.49243	261857	-0.000473531	-2.91218	2810.43	10.429	3	37	0.00526371	0.04864	0	-2.58152	49	0.344469	0.162325	5.62496	5.22303e-06	8.33476e-06	7.07581e-06	6.05328e-06	7.08054e-06	7.02855e-06	0.111145	0.0518265	0.40023	4.81916e-06	5.11987e-05	4.41229e-06	1.17929e-05	8.16931e-06	5.46619e-06	9.22348	0.562908	9.24064	3.49243	10429	170884	171202	-86.5076	0.0000000E+000	0.0000000E+000	0.0000000E+000	86.5076	0.0000000E+000	0.0000000E+000	0.0000000E+000	-86.5076	0.0000000E+000	0.0000000E+000	0.0000000E+000	-3.49243	0.0000000E+000	0.0000000E+000	0.0000000E+000	3.49243	16.3854	86.5076	-0.000846964
4288.63	0.111434	0.0061678	0.111604	-3.16806	261861	-0.000466988	-2.94397	6016.88	18.3768	3	37	0.00517118	0.046335	0	-2.58462	49	0.299165	0.152231	5.70176	4.73085e-06	5.16832e-06	5.13103e-06	7.06545e-06	7.67592e-06	4.54566e-06	0.0857233	0.0394602	0.421441	4.83448e-06	3.78561e-05	2.617e-06	6.96277e-06	3.27763e-06	5.56033e-06	8.94653	0.495185	8.96022	3.16806	18376.8	332014	332522	-86.8319	0.0000000E+000	0.0000000E+000	0.0000000E+000	86.8319	0.0000000E+000	0.0000000E+000	0.0000000E+000	-86.8319	0.0000000E+000	0.0000000E+000	0.0000000E+000	-3.16806	0.0000000E+000	0.0000000E+000	0.0000000E+000	3.16806	18.067	86.8319	-0.00109199
2140.69	0.114117	0.00522753	0.114237	-2.6228	261865	-0.000475152	-3.0152	14222.3	29.7818	3	37	0.00514779	0.0450625	0	-2.58792	49	0.306853	0.156137	5.73248	4.58362e-06	5.22444e-06	7.83946e-06	6.10413e-06	6.42541e-06	6.59386e-06	0.0436186	0.0272867	0.441488	4.92625e-06	1.67345e-05	2.70449e-06	2.40679e-06	6.04974e-06	4.51418e-06	8.74457	0.400575	8.75374	2.6228	29781.8	650138	650820	-87.3772	0.0000000E+000	0.0000000E+000	0.0000000E+000	87.3772	0.0000000E+000	0.0000000E+000	0.0000000E+000	-87.3772	0.0000000E+000	0.0000000E+000	0.0000000E+000	-2.6228	0.0000000E+000	0.0000000E+000	0.0000000E+000	2.6228	21.83	87.3772	-0.00106784
1068.29	0.116245	0.00422148	0.116322	-2.0798	261869	-0.000480111	-3.06956	35291.1	46.4807	3	37	0.00513125	0.0441126	0	-2.59103	49	0.293998	0.228394	5.86744	5.18095e-06	5.95999e-06	4.75116e-06	7.15222e-06	7.13489e-06	3.93185e-06	0.031837	0.0950583	0.454973	1.93833e-06	5.82048e-06	4.03578e-06	6.85254e-06	6.71378e-06	3.87233e-06	8.59119	0.311992	8.59685	2.0798	46480.7	1.27992e+06	1.28076e+06	-87.9202	0.0000000E+000	0.0000000E+000	0.0000000E+000	87.9202	0.0000000E+000	0.0000000E+000	0.0000000E+000	-87.9202	0.0000000E+000	0.0000000E+000	0.0000000E+000	-2.0798	0.0000000E+000	0.0000000E+000	0.0000000E+000	2.0798	27.5366	87.9202	-0.001035
533.464	0.117915	0.00326307	0.11796	-1.58514	261873	-0.000430135	-2.94032	91429.9	69.9631	3	37	0.00507787	0.0430472	0	-2.59437	49	0.291445	0.154489	5.8998	5.01903e-06	5.26393e-06	5.15192e-06	6.44956e-06	5.62288e-06	6.07256e-06	0.0551563	0.0201991	0.4608	2.92664e-06	1.79039e-05	2.93132e-06	1.29503e-05	5.64122e-06	3.03558e-06	8.47417	0.234506	8.47742	1.58514	69963.1	2.52821e+06	2.52917e+06	-88.4149	0.0000000E+000	0.0000000E+000	0.0000000E+000	88.4149	0.0000000E+000	0.0000000E+000	0.0000000E+000	-88.4149	0.0000000E+000	0.0000000E+000	0.0000000E+000	-1.58514	0.0000000E+000	0.0000000E+000	0.0000000E+000	1.58514	36.1363	88.4149	-0.00114362
266.278	0.118901	0.00242577	0.118925	-1.16877	261876	-0.000430004	-3.03303	246397	102.514	3	37	0.00523673	0.0440337	0	-2.59741	49	0.32904	0.13259	5.63845	5.91748e-06	5.54129e-06	6.4028e-06	5.884e-06	4.76328e-06	9.94128e-06	0.0751365	0.0289168	0.455384	6.04448e-06	2.8443e-05	3.13335e-06	1.32236e-05	6.38345e-06	3.39901e-06	8.40688	0.171514	8.40863	1.16877	102514	5.02481e+06	5.02586e+06	-88.8312	0.0000000E+000	0.0000000E+000	0.0000000E+000	88.8312	0.0000000E+000	0.0000000E+000	0.0000000E+000	-88.8312	0.0000000E+000	0.0000000E+000	0.0000000E+000	-1.16877	0.0000000E+000	0.0000000E+000	0.0000000E+000	1.16877	49.0157	88.8312	-0.000965148
132.916	0.119593	0.00158231	0.119603	-0.758025	261880	-0.000428383	-2.97567	756749	132.449	3	37	0.00503666	0.0421115	0	-2.60025	49	0.337032	0.141604	5.95249	7.96038e-06	4.8884e-06	7.93979e-06	5.88294e-06	6.87751e-06	5.22941e-06	0.0920624	0.0247811	0.46898	6.40091e-06	3.04158e-05	4.70522e-06	1.99399e-05	7.36322e-06	5.05502e-06	8.36026	0.110613	8.36099	0.758025	132449	1.00106e+07	1.00115e+07	-89.242	0.0000000E+000	0.0000000E+000	0.0000000E+000	89.242	0.0000000E+000	0.0000000E+000	0.0000000E+000	-89.242	0.0000000E+000	0.0000000E+000	0.0000000E+000	-0.758025	0.0000000E+000	0.0000000E+000	0.0000000E+000	0.758025	75.5812	89.242	-0.00101308
66.3374	0.120117	0.0013153	0.120124	-0.627374	261883	-0.000437386	-3.02231	1.82405e+06	218.689	3	37	0.00510104	0.0424647	0	-2.60287	49	0.295385	0.145419	5.77506	3.67125e-06	8.63006e-06	5.74123e-06	6.93492e-06	3.84168e-06	4.24786e-06	0.107487	0.0270451	0.469793	4.64313e-06	3.26041e-05	7.38958e-06	2.9822e-05	3.16121e-06	3.57617e-06	8.32421	0.0911517	8.32471	0.627374	218688	1.99712e+07	1.99724e+07	-89.3726	0.0000000E+000	0.0000000E+000	0.0000000E+000	89.3726	0.0000000E+000	0.0000000E+000	0.0000000E+000	-89.3726	0.0000000E+000	0.0000000E+000	0.0000000E+000	-0.627374	0.0000000E+000	0.0000000E+000	0.0000000E+000	0.627374	91.3226	89.3726	-0.000833772
33.1038	0.120565	0.00121223	0.120571	-0.576069	261886	-0.000431179	-2.99562	3.96602e+06	400.908	3	37	0.00511685	0.0424386	0	-2.60551	49	0.290317	0.163804	5.88432	4.25921e-06	6.61882e-06	7.2491e-06	5.38188e-06	4.16346e-06	6.31278e-06	0.113529	0.0240668	0.459549	1.335e-06	3.36735e-05	5.3554e-06	3.14208e-05	9.00136e-06	7.07041e-06	8.29347	0.0833878	8.29389	0.576069	400910	3.98729e+07	3.98749e+07	-89.4239	0.0000000E+000	0.0000000E+000	0.0000000E+000	89.4239	0.0000000E+000	0.0000000E+000	0.0000000E+000	-89.4239	0.0000000E+000	0.0000000E+000	0.0000000E+000	-0.576069	0.0000000E+000	0.0000000E+000	0.0000000E+000	0.576069	99.4566	89.4239	-0.000842812
16.5286	0.120973	0.00110292	0.120978	-0.522354	261890	-0.000427618	-2.99437	8.73054e+06	725.628	3	37	0.00512023	0.0423237	0	-2.60804	49	0.336788	0.157209	5.79246	3.13686e-06	5.87116e-06	6.7621e-06	9.20376e-06	7.40087e-06	5.11857e-06	0.114791	0.0579566	0.451428	9.04564e-06	3.32705e-05	5.07788e-06	3.15626e-05	7.74797e-06	6.01298e-06	8.26562	0.0753581	8.26596	0.522354	725628	7.95902e+07	7.95935e+07	-89.4776	0.0000000E+000	0.0000000E+000	0.0000000E+000	89.4776	0.0000000E+000	0.0000000E+000	0.0000000E+000	-89.4776	0.0000000E+000	0.0000000E+000	0.0000000E+000	-0.522354	0.0000000E+000	0.0000000E+000	0.0000000E+000	0.522354	109.685	89.4776	-0.00069206
8.24973	0.121298	0.00127447	0.121304	-0.601985	261893	-0.000410031	-2.93143	1.51373e+07	1670.94	3	37	0.00511692	0.0421825	0	-2.61116	49	0.240208	0.10504	4.06608	3.6162e-06	7.2088e-06	1.80557e-06	5.82724e-06	3.60613e-06	4.7114e-06	0.132267	0.0460217	0.327886	2.44732e-05	3.53985e-05	3.87669e-06	3.21973e-05	1.1884e-05	5.4623e-06	8.24328	0.0866122	8.24374	0.601985	1.67093e+06	1.59031e+08	1.59039e+08	-89.398	0.0000000E+000	0.0000000E+000	0.0000000E+000	89.398	0.0000000E+000	0.0000000E+000	0.0000000E+000	-89.398	0.0000000E+000	0.0000000E+000	0.0000000E+000	-0.601985	0.0000000E+000	0.0000000E+000	0.0000000E+000	0.601985	95.1746	89.398	-0.00124705
4.11618	0.12168	0.00143337	0.121689	-0.674902	261898	-0.000419165	-2.93366	2.69754e+07	3742.7	3	37	0.00511651	0.042046	0	-2.61445	49	0.202997	0.0854665	2.87607	2.76435e-06	6.41932e-06	3.26564e-06	3.48563e-06	3.09126e-06	4.065e-06	0.116964	0.0215498	0.255928	8.35731e-06	3.48853e-05	1.1045e-05	2.98809e-05	8.07469e-06	5.22741e-06	8.21713	0.0967963	8.2177	0.674902	3.7427e+06	3.17721e+08	3.17743e+08	-89.3251	0.0000000E+000	0.0000000E+000	0.0000000E+000	89.3251	0.0000000E+000	0.0000000E+000	0.0000000E+000	-89.3251	0.0000000E+000	0.0000000E+000	0.0000000E+000	-0.674902	0.0000000E+000	0.0000000E+000	0.0000000E+000	0.674902	84.891	89.3251	-0.000971479
2.05457	0.122192	0.00207697	0.12221	-0.973796	261906	-0.000417571	-2.90577	3.72966e+07	10772.5	3	37	0.00511922	0.0418888	0	-2.62192	49	0.139908	0.0835719	1.90591	2.97959e-06	4.40354e-06	2.74161e-06	1.64293e-06	1.56968e-06	1.72533e-06	0.137204	0.054856	0.209961	1.55006e-05	3.68565e-05	9.86799e-06	3.02818e-05	8.59748e-06	1.86137e-05	8.18148	0.139065	8.18267	0.973796	1.07725e+07	6.33769e+08	6.3386e+08	-89.0262	0.0000000E+000	0.0000000E+000	0.0000000E+000	89.0262	0.0000000E+000	0.0000000E+000	0.0000000E+000	-89.0262	0.0000000E+000	0.0000000E+000	0.0000000E+000	-0.973796	0.0000000E+000	0.0000000E+000	0.0000000E+000	0.973796	58.8319	89.0262	-0.00309671
1.02607	0.122963	0.00333747	0.123009	-1.55474	261922	-0.000406724	-2.97662	4.64756e+07	34212.7	3	37	0.0051194	0.0416182	0	-2.63384	49	0.112312	0.0953684	1.36735	2.71168e-06	3.52392e-06	5.5727e-07	1.90222e-06	1.93555e-06	1.46621e-06	0.114495	0.0718971	0.203436	1.07262e-05	3.56156e-05	7.05761e-06	2.56441e-05	9.27932e-06	5.32995e-06	8.12651	0.22057	8.1295	1.55474	3.42128e+07	1.26051e+09	1.26097e+09	-88.4453	0.0000000E+000	0.0000000E+000	0.0000000E+000	88.4453	0.0000000E+000	0.0000000E+000	0.0000000E+000	-88.4453	0.0000000E+000	0.0000000E+000	0.0000000E+000	-1.55474	0.0000000E+000	0.0000000E+000	0.0000000E+000	1.55474	36.8433	88.4453	-0.00592855
0.511825	0.125269	0.00530353	0.125382	-2.42429	261952	-0.000420349	-3.09581	5.86318e+07	104905	3	37	0.00511782	0.0408179	0	-2.65859	49	0.104396	0.0980666	0.952092	2.24009e-06	2.92804e-06	1.29886e-06	2.67436e-06	1.37621e-06	1.47402e-06	0.120037	0.090513	0.20111	1.34476e-05	3.40854e-05	1.11996e-05	2.61269e-05	7.36265e-06	9.75103e-06	7.96852	0.337364	7.97566	2.42429	1.04905e+08	2.47786e+09	2.48008e+09	-87.5757	0.0000000E+000	0.0000000E+000	0.0000000E+000	87.5757	0.0000000E+000	0.0000000E+000	0.0000000E+000	-87.5757	0.0000000E+000	0.0000000E+000	0.0000000E+000	-2.42429	0.0000000E+000	0.0000000E+000	0.0000000E+000	2.42429	23.62	87.5757	-0.0135062
0.255612	0.129227	0.00529617	0.129335	-2.34687	262010	-0.000438365	-3.07405	1.17565e+08	197137	3	37	0.00511529	0.0395507	0	-2.70197	49	0.105576	0.103506	0.673626	2.22432e-06	4.00351e-06	1.2153e-06	2.3586e-06	6.87972e-07	5.40297e-07	0.122963	0.122532	0.166151	9.05941e-06	3.18144e-05	6.15354e-06	3.35236e-05	6.37036e-06	4.71179e-06	7.72537	0.316613	7.73185	2.34687	1.97137e+08	4.81015e+09	4.81419e+09	-87.6531	0.0000000E+000	0.0000000E+000	0.0000000E+000	87.6531	0.0000000E+000	0.0000000E+000	0.0000000E+000	-87.6531	0.0000000E+000	0.0000000E+000	0.0000000E+000	-2.34687	0.0000000E+000	0.0000000E+000	0.0000000E+000	2.34687	24.4	87.6531	-0.0135664
0.127525	0.131579	0.00349209	0.131625	-1.52026	262127	-0.000425181	-3.0082	3.57388e+08	251554	3	37	0.00511434	0.0388553	0	-2.81823	49	0.10752	0.108661	0.487801	2.45776e-06	3.73051e-06	6.76318e-07	2.2887e-06	1.82778e-06	6.8704e-07	0.121866	0.0856051	0.171601	6.43452e-06	3.17387e-05	4.66893e-06	3.15888e-05	7.9577e-06	7.37691e-06	7.59465	0.201561	7.59732	1.52026	2.51554e+08	9.47835e+09	9.48169e+09	-88.4797	0.0000000E+000	0.0000000E+000	0.0000000E+000	88.4797	0.0000000E+000	0.0000000E+000	0.0000000E+000	-88.4797	0.0000000E+000	0.0000000E+000	0.0000000E+000	-1.52026	0.0000000E+000	0.0000000E+000	0.0000000E+000	1.52026	37.6792	88.4797	-0.051186
0.0636941	0.132342	0.00188091	0.132356	-0.81426	262361	-0.000433651	-3.07572	1.32847e+09	268289	3	37	0.00511282	0.0386294	0	-2.99279	49	0.117623	0.0814499	0.368278	1.17528e-06	3.96393e-06	1.97448e-06	3.33272e-06	1.44664e-06	7.37867e-07	0.125858	0.0736476	0.193823	5.38117e-06	3.14314e-05	8.39891e-06	3.40016e-05	7.90008e-06	5.28715e-06	7.55463	0.10737	7.55539	0.81426	2.6829e+08	1.8877e+10	1.88789e+10	-89.1857	0.0000000E+000	0.0000000E+000	0.0000000E+000	89.1857	0.0000000E+000	0.0000000E+000	0.0000000E+000	-89.1857	0.0000000E+000	0.0000000E+000	0.0000000E+000	-0.81426	0.0000000E+000	0.0000000E+000	0.0000000E+000	0.81426	70.3607	89.1857	-0.0632075
0.0317924	0.132698	0.00108359	0.132702	-0.467856	262827	-0.000425519	-3.00351	4.6199e+09	308037	3	37	0.00511487	0.038544	0	-3.38019	49	0.112063	0.134975	0.28625	2.56144e-06	3.52023e-06	1.17704e-06	2.76799e-06	1.63646e-06	8.41387e-07	0.124407	0.114772	0.186423	1.65313e-05	2.46698e-05	9.34912e-06	3.46087e-05	8.37735e-06	2.31279e-06	7.53542	0.0615328	7.53567	0.467856	3.08038e+08	3.77228e+10	3.7724e+10	-89.5321	0.0000000E+000	0.0000000E+000	0.0000000E+000	89.5321	0.0000000E+000	0.0000000E+000	0.0000000E+000	-89.5321	0.0000000E+000	0.0000000E+000	0.0000000E+000	-0.467856	0.0000000E+000	0.0000000E+000	0.0000000E+000	0.467856	122.462	89.5321	-0.181216
0.0199946	0.132781	0.000745772	0.132783	-0.321803	263375	-0.000432756	-2.96367	1.06734e+10	336691	3	37	0.0051138	0.0385125	0	-3.92831	49	0.104732	0.166607	0.255843	2.13019e-06	4.09414e-06	8.15954e-07	1.92227e-06	9.84996e-07	4.24762e-07	0.132596	0.141299	0.183302	1.83796e-05	3.68644e-05	6.81485e-06	2.61055e-05	6.23499e-06	5.0787e-06	7.53099	0.0422984	7.5311	0.321803	3.36688e+08	5.99459e+10	5.99468e+10	-89.6782	0.0000000E+000	0.0000000E+000	0.0000000E+000	89.6782	0.0000000E+000	0.0000000E+000	0.0000000E+000	-89.6782	0.0000000E+000	0.0000000E+000	0.0000000E+000	-0.321803	0.0000000E+000	0.0000000E+000	0.0000000E+000	0.321803	178.044	89.6782	-0.302116