File: Python/Experiments/IRFB/240503-Felt-1p5M_FeCl2FeCl3-1M_HCl/Data/240503-EIS-Felt-1p5M_FeCl2FeCl3-1M_HCl-Wamup_10mLmin-4xFlowRate-20mHz_10ppd_09_PEIS_C15.mpt
EC-Lab ASCII FILE
Nb header lines : 75

Potentio Electrochemical Impedance Spectroscopy

Run on channel : 15 (SN 19485)
User :
Electrode connection : standard
Potential control : Ewe
Ewe ctrl range : min = -1.00 V, max = 1.00 V
Ewe,I filtering : 50 kHz
Safety Limits :
	Do not start on E overload
Channel : Grounded
Acquisition started on : 05/03/2024 14:39:22.131
Loaded Setting File :  NONE
Saved on :
	File : 240503-EIS-Felt-1p5M_FeCl2FeCl3-1M_HCl-Wamup_10mLmin-4xFlowRate-20mHz_10ppd_09_PEIS_C15.mpr
	Directory : C:\Data\mathias\IRFB\
	Host : 192.168.0.1
Device : VMP-300 (SN 0826)
Address : USB
EC-Lab for windows v11.52 (software)
Internet server v11.52 (firmware)
Command interpretor v11.52 (firmware)
Electrode material :
Initial state :
Electrolyte :
Comments :
Cable : special
Electrode surface area : 0.001 cm²
Characteristic mass : 0.001 g
Equivalent Weight : 0.000 g/eq.
Density : 0.000 g/cm3
Volume (V) : 0.001 cm³
Record EIS quality indicators
Cycle Definition : Charge/Discharge alternance
External device configuration :
   device type : Other
   device name : Other
   Analog OUT :
      mode : E/V
      unit : KNF Pump/ml/min
      max : 120.000 at 5.000 V
      min : 0.000 at 0.000 V
      current : 14.000
Mode                Single sine
E (V)               0.0000
vs.                 Eoc
tE (h:m:s)          0:00:0.0000
record              0
dI                  0.000
unit dI             mA
dt (s)              0.000
fi                  220.000
unit fi             kHz
ff                  20.000
unit ff             mHz
Nd                  10
Points              per decade
spacing             Logarithmic
Va (mV)             5.0
pw                  0.10
Na                  3
corr                0
E range min (V)     -1.000
E range max (V)     1.000
I Range             Auto
Bandwidth           8
nc cycles           2
goto Ns'            0
nr cycles           0
inc. cycle          0

freq/Hz	Re(Z)/Ohm	-Im(Z)/Ohm	|Z|/Ohm	Phase(Z)/deg	time/s	<Ewe>/V	<I>/mA	Cs/µF	Cp/µF	cycle number	I Range	|Ewe|/V	|I|/A	Ns	(Q-Qo)/mA.h	Analog OUT/V	THD Ewe/%	NSD Ewe/%	NSR Ewe/%	|Ewe h2|/V	|Ewe h3|/V	|Ewe h4|/V	|Ewe h5|/V	|Ewe h6|/V	|Ewe h7|/V	THD I/%	NSD I/%	NSR I/%	|I h2|/A	|I h3|/A	|I h4|/A	|I h5|/A	|I h6|/A	|I h7|/A	Re(Y)/Ohm-1	Im(Y)/Ohm-1	|Y|/Ohm-1	Phase(Y)/deg	Re(C)/nF	Im(C)/nF	|C|/nF	Phase(C)/deg	Re(M)	Im(M)	|M|	Phase(M)/deg	Re(Permittivity)	Im(Permittivity)	|Permittivity|	Phase(Permittivity)/deg	Re(Resistivity)/Ohm.cm	Im(Resistivity)/Ohm.cm	|Resistivity|/Ohm.cm	Phase(Resistivity)/deg	Re(Conductivity)/mS/cm	Im(Conductivity)/mS/cm	|Conductivity|/mS/cm	Phase(Conductivity)/deg	Tan(Delta)	Loss Angle(Delta)/deg	dq/mA.h
220003	0.0905974	-0.0194448	0.0926606	12.1136	263977	-0.000321311	-2.20019	-37.2039	-1.63835	1	37	0.00327437	0.0353372	0	-0.000963727	120	-1	-1	-1	0	0	0	0	0	0	-1	-1	-1	0	0	0	0	0	0	10.5518	-2.26472	10.7921	-12.1136	-1638.35	7633.4	7807.24	-102.114	0.0000000E+000	0.0000000E+000	0.0000000E+000	102.114	0.0000000E+000	0.0000000E+000	0.0000000E+000	-102.114	0.0000000E+000	0.0000000E+000	0.0000000E+000	12.1136	0.0000000E+000	0.0000000E+000	0.0000000E+000	-12.1136	4.6592	77.8864	-0.000963727
109811	0.0956587	-0.00708578	0.0959207	4.23637	263980	-0.000326698	-2.25394	-204.544	-1.11619	1	37	0.00523395	0.0545654	0	-0.00300484	120	-1	-1	-1	0	0	0	0	0	0	-1	-1	-1	0	0	0	0	0	0	10.3968	-0.770128	10.4253	-4.23637	-1116.19	15068.6	15109.9	-94.2364	0.0000000E+000	0.0000000E+000	0.0000000E+000	94.2364	0.0000000E+000	0.0000000E+000	0.0000000E+000	-94.2364	0.0000000E+000	0.0000000E+000	0.0000000E+000	4.23637	0.0000000E+000	0.0000000E+000	0.0000000E+000	-4.23637	13.5001	85.7636	-0.000762539
54808.1	0.0981106	-0.000225735	0.0981108	0.131827	263984	-0.000326884	-2.2579	-12864	-0.0680991	1	37	0.00519973	0.0529985	0	-0.00501437	120	0.330733	0.184463	5.75715	3.75379e-06	7.73519e-06	5.6627e-06	3.42535e-06	5.44378e-06	1.17055e-05	0.112566	0.042927	0.373681	6.29016e-06	5.81244e-05	3.63724e-06	7.8362e-06	4.37254e-06	4.70128e-06	10.1925	-0.0234513	10.1926	-0.131827	-68.0995	29597.6	29597.7	-90.1318	0.0000000E+000	0.0000000E+000	0.0000000E+000	90.1318	0.0000000E+000	0.0000000E+000	0.0000000E+000	-90.1318	0.0000000E+000	0.0000000E+000	0.0000000E+000	0.131827	0.0000000E+000	0.0000000E+000	0.0000000E+000	-0.131827	434.626	89.8682	-0.000652132
27362.3	0.101254	0.00424693	0.101343	-2.40177	263987	-0.000318906	-2.27791	1369.6	2.40523	1	37	0.00518436	0.0511566	0	-0.00717533	120	0.338637	0.2061	5.80325	3.2909e-06	8.06347e-06	6.12109e-06	7.72603e-06	6.60681e-06	7.94238e-06	0.113731	0.0366004	0.378825	2.5132e-06	5.70537e-05	2.37705e-06	6.84996e-06	6.79165e-06	3.73269e-06	9.85883	0.413513	9.8675	2.40177	2405.23	57344.6	57395	-87.5982	0.0000000E+000	0.0000000E+000	0.0000000E+000	87.5982	0.0000000E+000	0.0000000E+000	0.0000000E+000	-87.5982	0.0000000E+000	0.0000000E+000	0.0000000E+000	-2.40177	0.0000000E+000	0.0000000E+000	0.0000000E+000	2.40177	23.8416	87.5982	-0.000845654
13658	0.105407	0.00626933	0.105593	-3.40379	263990	-0.000329755	-2.27851	1858.72	6.55213	1	37	0.00516596	0.0489231	0	-0.00920257	120	0.304553	0.161359	5.85657	9.18429e-06	6.65726e-06	4.97665e-06	5.45981e-06	3.47354e-06	5.71063e-06	0.0954569	0.0130556	0.395004	5.31087e-06	4.53349e-05	3.41871e-06	5.0937e-06	5.9347e-06	3.82545e-06	9.45359	0.562274	9.47029	3.40379	6552.14	110162	110356	-86.5962	0.0000000E+000	0.0000000E+000	0.0000000E+000	86.5962	0.0000000E+000	0.0000000E+000	0.0000000E+000	-86.5962	0.0000000E+000	0.0000000E+000	0.0000000E+000	-3.40379	0.0000000E+000	0.0000000E+000	0.0000000E+000	3.40379	16.8131	86.5962	-0.000663917
6816.86	0.109252	0.00662254	0.109453	-3.46885	263994	-0.000449838	-3.20641	3525.42	12.9064	1	37	0.00517297	0.047262	0	-0.011881	120	0.365212	0.169498	5.73448	6.72662e-06	8.39893e-06	9.20971e-06	4.94749e-06	6.176e-06	7.04472e-06	0.0972	0.045508	0.421561	3.5436e-06	4.35685e-05	8.33058e-06	9.69933e-06	2.92609e-06	1.73174e-06	9.1196	0.552801	9.13634	3.46885	12906.4	212918	213309	-86.5312	0.0000000E+000	0.0000000E+000	0.0000000E+000	86.5312	0.0000000E+000	0.0000000E+000	0.0000000E+000	-86.5312	0.0000000E+000	0.0000000E+000	0.0000000E+000	-3.46885	0.0000000E+000	0.0000000E+000	0.0000000E+000	3.46885	16.4971	86.5312	-0.00102279
3403.27	0.112525	0.00579794	0.112675	-2.94959	263998	-0.000451833	-3.21106	8065.85	21.3572	1	37	0.00515746	0.045773	0	-0.0156063	120	0.313161	0.20229	5.76685	3.59717e-06	6.20732e-06	8.97233e-06	3.04731e-06	7.73644e-06	5.77536e-06	0.065236	0.0515994	0.433493	4.27841e-06	2.73882e-05	3.39591e-06	6.96499e-06	6.678e-06	3.11664e-06	8.86335	0.456689	8.8751	2.94959	21357.2	414497	415047	-87.0504	0.0000000E+000	0.0000000E+000	0.0000000E+000	87.0504	0.0000000E+000	0.0000000E+000	0.0000000E+000	-87.0504	0.0000000E+000	0.0000000E+000	0.0000000E+000	-2.94959	0.0000000E+000	0.0000000E+000	0.0000000E+000	2.94959	19.4078	87.0504	-0.00124994
1698.37	0.114931	0.00485783	0.115034	-2.42029	264002	-0.000451982	-3.22476	19290.6	34.4016	1	37	0.00512428	0.0445457	0	-0.019187	120	0.30886	0.159126	5.82787	5.57192e-06	7.2775e-06	5.49991e-06	6.4343e-06	5.79133e-06	5.31456e-06	0.0365997	0.0649868	0.437079	5.95824e-06	1.11939e-05	3.52445e-06	4.84056e-06	6.16938e-06	3.79601e-06	8.68532	0.367105	8.69308	2.42029	34401.6	813907	814633	-87.5797	0.0000000E+000	0.0000000E+000	0.0000000E+000	87.5797	0.0000000E+000	0.0000000E+000	0.0000000E+000	-87.5797	0.0000000E+000	0.0000000E+000	0.0000000E+000	-2.42029	0.0000000E+000	0.0000000E+000	0.0000000E+000	2.42029	23.659	87.5797	-0.00126537
847.556	0.116904	0.00391388	0.116969	-1.91752	264006	-0.00045351	-3.2199	47978.3	53.7175	1	37	0.00502498	0.0429598	0	-0.0226122	120	0.383917	0.197344	5.8677	4.74514e-06	5.54893e-06	6.08608e-06	1.18386e-05	7.36039e-06	3.45753e-06	0.0411048	0.0879518	0.465758	5.97649e-06	9.04912e-06	3.63449e-06	8.63025e-06	7.25906e-06	6.07055e-06	8.54447	0.286064	8.54925	1.91752	53717.5	1.60449e+06	1.60539e+06	-88.0825	0.0000000E+000	0.0000000E+000	0.0000000E+000	88.0825	0.0000000E+000	0.0000000E+000	0.0000000E+000	-88.0825	0.0000000E+000	0.0000000E+000	0.0000000E+000	-1.91752	0.0000000E+000	0.0000000E+000	0.0000000E+000	1.91752	29.869	88.0825	-0.00116967
423.239	0.118392	0.00302258	0.11843	-1.46246	264010	-0.000428476	-3.22625	124411	81.0375	1	37	0.00547032	0.0461903	0	-0.0259538	120	0.274473	0.1997	5.42687	2.28389e-06	6.65485e-06	5.1588e-06	8.53859e-06	5.86042e-06	4.45137e-06	0.0533801	0.0122501	0.429231	6.83517e-06	1.72351e-05	3.00476e-06	1.30657e-05	5.317e-06	5.64458e-06	8.44104	0.215502	8.44379	1.46246	81037.6	3.17417e+06	3.1752e+06	-88.5375	0.0000000E+000	0.0000000E+000	0.0000000E+000	88.5375	0.0000000E+000	0.0000000E+000	0.0000000E+000	-88.5375	0.0000000E+000	0.0000000E+000	0.0000000E+000	-1.46246	0.0000000E+000	0.0000000E+000	0.0000000E+000	1.46246	39.1692	88.5375	-0.00100404
211.149	0.119394	0.00212768	0.119413	-1.02094	264013	-0.000408474	-3.15165	354262	112.469	1	37	0.00536514	0.0449292	0	-0.0290365	120	0.275104	0.132908	5.57519	5.37055e-06	5.92267e-06	7.02727e-06	5.76312e-06	5.66212e-06	5.04441e-06	0.0723078	0.00904922	0.442887	5.22503e-06	2.45953e-05	1.99694e-06	1.9286e-05	4.6029e-06	3.65418e-06	8.37296	0.149212	8.37429	1.02094	112470	6.31118e+06	6.31218e+06	-88.9791	0.0000000E+000	0.0000000E+000	0.0000000E+000	88.9791	0.0000000E+000	0.0000000E+000	0.0000000E+000	-88.9791	0.0000000E+000	0.0000000E+000	0.0000000E+000	-1.02094	0.0000000E+000	0.0000000E+000	0.0000000E+000	1.02094	56.1146	88.9791	-0.000903413
105.438	0.120014	0.00161489	0.120025	-0.77092	264017	-0.000420647	-3.10879	934711	169.209	1	37	0.00506707	0.0422169	0	-0.032074	120	0.339714	0.152961	5.83811	5.25756e-06	6.3694e-06	3.8884e-06	6.92756e-06	8.25386e-06	8.61556e-06	0.0944811	0.0157797	0.456977	4.32577e-06	2.94151e-05	2.22472e-06	2.44019e-05	7.69555e-06	5.12085e-06	8.33086	0.112099	8.33162	0.77092	169209	1.25751e+07	1.25762e+07	-89.2291	0.0000000E+000	0.0000000E+000	0.0000000E+000	89.2291	0.0000000E+000	0.0000000E+000	0.0000000E+000	-89.2291	0.0000000E+000	0.0000000E+000	0.0000000E+000	-0.77092	0.0000000E+000	0.0000000E+000	0.0000000E+000	0.77092	74.3169	89.2291	-0.00114562
52.6255	0.120469	0.00120764	0.120475	-0.574339	264020	-0.000410227	-3.05486	2.5043e+06	251.631	1	37	0.00510845	0.0424025	0	-0.0349309	120	0.27188	0.136173	5.83414	6.18571e-06	6.60858e-06	5.59948e-06	5.05768e-06	5.92372e-06	3.41231e-06	0.113238	0.0142421	0.448706	6.24734e-06	3.2951e-05	3.57208e-06	3.14582e-05	9.04085e-06	7.66027e-06	8.30004	0.0832033	8.30046	0.574339	251632	2.51017e+07	2.5103e+07	-89.4257	0.0000000E+000	0.0000000E+000	0.0000000E+000	89.4257	0.0000000E+000	0.0000000E+000	0.0000000E+000	-89.4257	0.0000000E+000	0.0000000E+000	0.0000000E+000	-0.574339	0.0000000E+000	0.0000000E+000	0.0000000E+000	0.574339	99.7562	89.4257	-0.000935381
26.2693	0.120871	0.00102115	0.120875	-0.484039	264023	-0.000411382	-3.05305	5.93309e+06	423.433	1	37	0.00511752	0.0423371	0	-0.0377103	120	0.457894	0.127451	5.75227	8.94194e-06	4.19295e-06	5.36086e-06	6.52314e-06	1.47276e-05	6.91469e-06	0.117724	0.0209538	0.451107	3.45746e-06	3.45547e-05	4.42535e-06	3.15767e-05	1.31025e-05	8.29582e-06	8.27268	0.0698898	8.27298	0.484039	423434	5.01207e+07	5.01225e+07	-89.516	0.0000000E+000	0.0000000E+000	0.0000000E+000	89.516	0.0000000E+000	0.0000000E+000	0.0000000E+000	-89.516	0.0000000E+000	0.0000000E+000	0.0000000E+000	-0.484039	0.0000000E+000	0.0000000E+000	0.0000000E+000	0.484039	118.367	89.516	-0.000820292
13.1083	0.121133	0.0010296	0.121138	-0.486986	264027	-0.000403413	-3.08637	1.17925e+07	851.892	1	37	0.00511521	0.0422264	0	-0.0406595	120	0.264515	0.0749689	4.10769	6.84549e-06	5.60312e-06	3.73848e-06	7.50335e-06	4.27054e-06	3.29155e-06	0.11303	0.0559265	0.334228	8.89097e-06	3.23697e-05	3.04604e-06	3.21703e-05	5.86412e-06	6.90452e-06	8.25477	0.0701632	8.25507	0.486986	851889	1.00226e+08	1.0023e+08	-89.513	0.0000000E+000	0.0000000E+000	0.0000000E+000	89.513	0.0000000E+000	0.0000000E+000	0.0000000E+000	-89.513	0.0000000E+000	0.0000000E+000	0.0000000E+000	-0.486986	0.0000000E+000	0.0000000E+000	0.0000000E+000	0.486986	117.651	89.513	-0.000910958
6.54313	0.12156	0.00114797	0.121565	-0.541065	264030	-0.000408857	-3.09987	2.11887e+07	1889.5	1	37	0.00511804	0.0421012	0	-0.044063	120	0.215207	0.0885298	4.23892	4.60398e-06	5.43609e-06	2.79356e-06	4.28915e-06	2.91717e-06	3.38298e-06	0.115702	0.0448333	0.335963	2.07106e-05	3.09879e-05	5.45337e-06	2.88138e-05	5.54248e-06	6.32527e-06	8.22567	0.0776804	8.22604	0.541065	1.88951e+06	2.00081e+08	2.0009e+08	-89.4589	0.0000000E+000	0.0000000E+000	0.0000000E+000	89.4589	0.0000000E+000	0.0000000E+000	0.0000000E+000	-89.4589	0.0000000E+000	0.0000000E+000	0.0000000E+000	-0.541065	0.0000000E+000	0.0000000E+000	0.0000000E+000	0.541065	105.891	89.4589	-0.00154788
3.26541	0.12193	0.00153794	0.12194	-0.722648	264036	-0.000411621	-3.16971	3.16916e+07	5041.15	1	37	0.00511881	0.0419781	0	-0.0484945	120	0.108851	0.0717433	2.50748	2.04109e-06	3.67334e-06	1.1434e-06	2.21633e-06	1.73284e-06	9.02598e-07	0.121453	0.0440543	0.241919	5.96818e-06	3.0933e-05	7.15938e-06	3.77915e-05	8.69964e-06	4.47308e-06	8.20011	0.10343	8.20076	0.722648	5.04115e+06	3.9967e+08	3.99702e+08	-89.2774	0.0000000E+000	0.0000000E+000	0.0000000E+000	89.2774	0.0000000E+000	0.0000000E+000	0.0000000E+000	-89.2774	0.0000000E+000	0.0000000E+000	0.0000000E+000	-0.722648	0.0000000E+000	0.0000000E+000	0.0000000E+000	0.722648	79.2817	89.2774	-0.00100872
1.63084	0.122525	0.00232908	0.122547	-1.089	264046	-0.000413568	-3.27861	4.19011e+07	15135.1	1	37	0.00511766	0.0417607	0	-0.0595967	120	0.143653	0.0832798	1.68528	3.39801e-06	5.06506e-06	1.86979e-06	2.16467e-06	1.70545e-06	1.4598e-06	0.135932	0.0640546	0.196098	1.0947e-05	3.89669e-05	4.80348e-06	3.74686e-05	9.45415e-06	6.09063e-06	8.15863	0.155087	8.1601	1.089	1.51351e+07	7.96209e+08	7.96353e+08	-88.911	0.0000000E+000	0.0000000E+000	0.0000000E+000	88.911	0.0000000E+000	0.0000000E+000	0.0000000E+000	-88.911	0.0000000E+000	0.0000000E+000	0.0000000E+000	-1.089	0.0000000E+000	0.0000000E+000	0.0000000E+000	1.089	52.6067	88.911	-0.00554313
0.813551	0.124374	0.00311344	0.124413	-1.43398	264065	-0.000404938	-3.21583	6.28341e+07	39349.8	1	37	0.00511801	0.0411372	0	-0.073546	120	0.130591	0.0486262	1.19805	1.68309e-06	4.95362e-06	1.1162e-06	2.55224e-06	1.79975e-06	1.46445e-06	0.108362	0.0539235	0.176904	8.31995e-06	3.22217e-05	3.16336e-06	2.78442e-05	6.15447e-06	5.29235e-06	8.03522	0.201144	8.03774	1.43398	3.93498e+07	1.57193e+09	1.57242e+09	-88.566	0.0000000E+000	0.0000000E+000	0.0000000E+000	88.566	0.0000000E+000	0.0000000E+000	0.0000000E+000	-88.566	0.0000000E+000	0.0000000E+000	0.0000000E+000	-1.43398	0.0000000E+000	0.0000000E+000	0.0000000E+000	1.43398	39.9475	88.566	-0.00350653
0.406108	0.126202	0.00244873	0.126226	-1.11158	264103	-0.000393856	-3.22572	1.60043e+08	60231.3	1	37	0.00511508	0.0405231	0	-0.105923	120	0.0962261	0.0529428	0.860119	1.35152e-06	3.26751e-06	1.07414e-06	2.63152e-06	1.04373e-06	1.06709e-06	0.125795	0.0680203	0.188613	1.27139e-05	3.26136e-05	6.47901e-06	3.2728e-05	6.85068e-06	1.08533e-05	7.9208	0.153689	7.92229	1.11158	6.02315e+07	3.10419e+09	3.10477e+09	-88.8884	0.0000000E+000	0.0000000E+000	0.0000000E+000	88.8884	0.0000000E+000	0.0000000E+000	0.0000000E+000	-88.8884	0.0000000E+000	0.0000000E+000	0.0000000E+000	-1.11158	0.0000000E+000	0.0000000E+000	0.0000000E+000	1.11158	51.5378	88.8884	-0.00786599
0.202719	0.127022	0.0015127	0.127031	-0.682302	264177	-0.000398665	-3.20361	5.19005e+08	73596.9	1	37	0.00511582	0.0402722	0	-0.184284	120	0.0942948	0.0635195	0.598532	1.26109e-06	3.10484e-06	1.17643e-06	2.46019e-06	1.13038e-06	9.9353e-07	0.109414	0.0637655	0.150369	5.24093e-06	2.79853e-05	2.7665e-06	3.1823e-05	6.92678e-06	4.54565e-06	7.87153	0.0937419	7.87209	0.682302	7.35971e+07	6.17994e+09	6.18038e+09	-89.3177	0.0000000E+000	0.0000000E+000	0.0000000E+000	89.3177	0.0000000E+000	0.0000000E+000	0.0000000E+000	-89.3177	0.0000000E+000	0.0000000E+000	0.0000000E+000	-0.682302	0.0000000E+000	0.0000000E+000	0.0000000E+000	0.682302	83.9702	89.3177	-0.0340734
0.101164	0.127155	0.000827756	0.127158	-0.372979	264324	-0.000401521	-3.08714	1.9006e+09	80539.4	1	37	0.00511521	0.0402271	0	-0.287419	120	0.102945	0.057441	0.430901	1.45268e-06	3.95406e-06	1.17569e-06	2.50455e-06	1.00804e-06	2.96812e-07	0.11355	0.0853684	0.151658	8.98524e-06	3.07025e-05	5.24743e-06	3.0914e-05	4.78817e-06	4.59643e-06	7.86406	0.0511934	7.86422	0.372979	8.05393e+07	1.2372e+10	1.23723e+10	-89.627	0.0000000E+000	0.0000000E+000	0.0000000E+000	89.627	0.0000000E+000	0.0000000E+000	0.0000000E+000	-89.627	0.0000000E+000	0.0000000E+000	0.0000000E+000	-0.372979	0.0000000E+000	0.0000000E+000	0.0000000E+000	0.372979	153.615	89.627	-0.039122
0.0505041	0.127105	0.000447725	0.127106	-0.201822	264618	-0.00042073	-3.16575	7.03853e+09	87331.9	1	37	0.0051184	0.0402687	0	-0.571385	120	0.106097	0.0828545	0.329429	1.19113e-06	4.39147e-06	1.14662e-06	2.30487e-06	8.93096e-07	7.94232e-07	0.109777	0.0924738	0.166266	8.45025e-06	3.15428e-05	6.11691e-06	2.68147e-05	5.00259e-06	7.39892e-06	7.8674	0.0277127	7.86745	0.201822	8.73311e+07	2.47928e+10	2.47929e+10	-89.7982	0.0000000E+000	0.0000000E+000	0.0000000E+000	89.7982	0.0000000E+000	0.0000000E+000	0.0000000E+000	-89.7982	0.0000000E+000	0.0000000E+000	0.0000000E+000	-0.201822	0.0000000E+000	0.0000000E+000	0.0000000E+000	0.201822	283.891	89.7982	-0.130349
0.0252177	0.126883	0.000222425	0.126883	-0.100439	265205	-0.000433343	-3.21038	2.83746e+10	87195.2	1	37	0.00511554	0.040317	0	-1.09219	120	0.12087	0.0776527	0.269329	2.60402e-06	4.53001e-06	1.29383e-06	2.66019e-06	5.71175e-07	6.55263e-07	0.128022	0.153741	0.178531	1.56251e-05	3.66902e-05	1.13571e-05	2.85708e-05	6.4724e-06	4.04688e-06	7.88127	0.0138159	7.88128	0.100439	8.71966e+07	4.97406e+10	4.97407e+10	-89.8996	0.0000000E+000	0.0000000E+000	0.0000000E+000	89.8996	0.0000000E+000	0.0000000E+000	0.0000000E+000	-89.8996	0.0000000E+000	0.0000000E+000	0.0000000E+000	-0.100439	0.0000000E+000	0.0000000E+000	0.0000000E+000	0.100439	570.451	89.8996	-0.190621
174510	0.0923093	-0.0146008	0.0934569	8.98813	265513	-0.000330817	-2.15271	-62.4632	-1.52459	2	37	0.00467925	0.0500685	0	-1.30282	120	-1	-1	-1	0	0	0	0	0	0	-1	-1	-1	0	0	0	0	0	0	10.5687	-1.67168	10.7001	-8.98813	-1524.59	9638.79	9758.62	-98.9881	0.0000000E+000	0.0000000E+000	0.0000000E+000	98.9881	0.0000000E+000	0.0000000E+000	0.0000000E+000	-98.9881	0.0000000E+000	0.0000000E+000	0.0000000E+000	8.98813	0.0000000E+000	0.0000000E+000	0.0000000E+000	-8.98813	6.32223	81.0119	-0.000614333
87106.6	0.0958141	-0.00455317	0.0959223	2.7207	265517	-0.000334396	-2.15221	-401.287	-0.904157	2	37	0.00522853	0.054508	0	-1.30511	120	0.291376	0.105864	5.62093	4.61494e-06	5.57067e-06	4.55324e-06	6.04847e-06	5.89221e-06	7.90309e-06	0.0819501	0.0220461	0.345245	1.01919e-05	4.2254e-05	5.8344e-06	3.70762e-06	4.41335e-06	4.26608e-06	10.4134	-0.494852	10.4251	-2.7207	-904.157	19026.5	19048	-92.7207	0.0000000E+000	0.0000000E+000	0.0000000E+000	92.7207	0.0000000E+000	0.0000000E+000	0.0000000E+000	-92.7207	0.0000000E+000	0.0000000E+000	0.0000000E+000	2.7207	0.0000000E+000	0.0000000E+000	0.0000000E+000	-2.7207	21.0434	87.2793	-0.000740676
43479.1	0.0984059	0.0014223	0.0984161	-0.828059	265520	-0.000332607	-2.1405	2573.65	0.537523	2	37	0.00520224	0.0528596	0	-1.30713	120	0.355753	0.177673	5.79007	4.50274e-06	8.09499e-06	1.10035e-05	3.37401e-06	7.20421e-06	7.55484e-06	0.103357	0.0381157	0.360678	4.79613e-06	5.24409e-05	2.89027e-06	1.1921e-05	5.01248e-06	4.33009e-06	10.1599	0.146844	10.1609	0.828059	537.521	37190.2	37194.1	-89.1719	0.0000000E+000	0.0000000E+000	0.0000000E+000	89.1719	0.0000000E+000	0.0000000E+000	0.0000000E+000	-89.1719	0.0000000E+000	0.0000000E+000	0.0000000E+000	-0.828059	0.0000000E+000	0.0000000E+000	0.0000000E+000	0.828059	69.188	89.1719	-0.000731999
21702.4	0.101969	0.00499795	0.102091	-2.80607	265523	-0.000329848	-2.07425	1467.3	3.51662	2	37	0.00517802	0.0507194	0	-1.30912	120	0.3045	0.255282	5.76874	5.41419e-06	7.61557e-06	4.13993e-06	5.06806e-06	5.45823e-06	7.22698e-06	0.109222	0.0517186	0.378994	5.16094e-06	5.25387e-05	3.10255e-06	1.22628e-05	8.37186e-06	4.80567e-06	9.7834	0.479527	9.79514	2.80607	3516.61	71746.7	71832.8	-87.1939	0.0000000E+000	0.0000000E+000	0.0000000E+000	87.1939	0.0000000E+000	0.0000000E+000	0.0000000E+000	-87.1939	0.0000000E+000	0.0000000E+000	0.0000000E+000	-2.80607	0.0000000E+000	0.0000000E+000	0.0000000E+000	2.80607	20.4022	87.1939	-0.000544593
10837.3	0.106031	0.00635677	0.106221	-3.43089	265527	-0.00032666	-2.09572	2310.27	8.27393	2	37	0.00515868	0.0485653	0	-1.3111	120	0.341041	0.233009	5.75896	8.12828e-06	8.00978e-06	5.91243e-06	3.78803e-06	5.32378e-06	7.95063e-06	0.0733109	0.0347349	0.396551	3.9195e-06	3.34196e-05	4.77807e-06	3.67747e-06	7.56377e-06	4.99247e-06	9.39742	0.563394	9.4143	3.43089	8273.93	138009	138257	-86.5691	0.0000000E+000	0.0000000E+000	0.0000000E+000	86.5691	0.0000000E+000	0.0000000E+000	0.0000000E+000	-86.5691	0.0000000E+000	0.0000000E+000	0.0000000E+000	-3.43089	0.0000000E+000	0.0000000E+000	0.0000000E+000	3.43089	16.68	86.5691	-0.00071667
5406.63	0.109733	0.00630374	0.109914	-3.2878	265531	-0.000448328	-3.02363	4669.77	15.3597	2	37	0.00516447	0.0469863	0	-1.31399	120	0.287216	0.178151	5.75281	3.16722e-06	7.22285e-06	4.54765e-06	5.88487e-06	5.05504e-06	5.11562e-06	0.0964968	0.0986514	0.414532	6.69211e-06	4.32038e-05	7.47494e-06	7.19052e-06	3.43333e-06	3.24736e-06	9.08302	0.521782	9.09799	3.2878	15359.7	267377	267818	-86.7122	0.0000000E+000	0.0000000E+000	0.0000000E+000	86.7122	0.0000000E+000	0.0000000E+000	0.0000000E+000	-86.7122	0.0000000E+000	0.0000000E+000	0.0000000E+000	-3.2878	0.0000000E+000	0.0000000E+000	0.0000000E+000	3.2878	17.4077	86.7122	-0.00115467
2699.14	0.112607	0.00543393	0.112738	-2.76271	265535	-0.000443463	-2.94356	10851.3	25.2098	2	37	0.00516212	0.0457887	0	-1.31724	120	0.258667	0.137944	5.75364	3.46581e-06	4.67981e-06	5.13104e-06	4.82611e-06	5.78652e-06	5.68468e-06	0.0573178	0.0162484	0.418864	5.54939e-06	2.38193e-05	3.45158e-06	3.67347e-06	4.93846e-06	4.72363e-06	8.85983	0.427538	8.87014	2.76271	25209.8	522421	523029	-87.2373	0.0000000E+000	0.0000000E+000	0.0000000E+000	87.2373	0.0000000E+000	0.0000000E+000	0.0000000E+000	-87.2373	0.0000000E+000	0.0000000E+000	0.0000000E+000	-2.76271	0.0000000E+000	0.0000000E+000	0.0000000E+000	2.76271	20.7229	87.2373	-0.00107684
1347.15	0.114875	0.00442942	0.11496	-2.20815	265539	-0.000440462	-2.97325	26672	39.5962	2	37	0.00510121	0.0443736	0	-1.32061	120	0.310035	0.164307	5.95254	5.31423e-06	2.58734e-06	7.35597e-06	5.91681e-06	4.68176e-06	7.81532e-06	0.0294994	0.0385336	0.435023	5.92829e-06	4.20051e-06	3.53248e-06	6.29262e-06	4.27328e-06	5.09242e-06	8.69219	0.335159	8.69864	2.20815	39596.2	1.02691e+06	1.02767e+06	-87.7918	0.0000000E+000	0.0000000E+000	0.0000000E+000	87.7918	0.0000000E+000	0.0000000E+000	0.0000000E+000	-87.7918	0.0000000E+000	0.0000000E+000	0.0000000E+000	-2.20815	0.0000000E+000	0.0000000E+000	0.0000000E+000	2.20815	25.9346	87.7918	-0.00107323
672.366	0.116598	0.00363719	0.116654	-1.78673	265543	-0.000425046	-3.07023	65080.1	63.2672	2	37	0.00502283	0.0430574	0	-1.32397	120	0.310423	0.211666	5.93588	6.24581e-06	3.11805e-06	4.66562e-06	8.25183e-06	6.5085e-06	5.94239e-06	0.0485026	0.0160393	0.451936	3.58026e-06	1.42776e-05	4.41989e-06	1.18042e-05	3.36783e-06	5.22398e-06	8.56817	0.267279	8.57234	1.78673	63267.2	2.02816e+06	2.02915e+06	-88.2133	0.0000000E+000	0.0000000E+000	0.0000000E+000	88.2133	0.0000000E+000	0.0000000E+000	0.0000000E+000	-88.2133	0.0000000E+000	0.0000000E+000	0.0000000E+000	-1.78673	0.0000000E+000	0.0000000E+000	0.0000000E+000	1.78673	32.0571	88.2133	-0.00106219
335.537	0.117837	0.00257052	0.117865	-1.24966	265546	-0.000432595	-3.05947	184527	87.7672	2	37	0.0051894	0.0440284	0	-1.3272	120	0.33103	0.224658	5.72043	5.24423e-06	4.91067e-06	3.54953e-06	9.6346e-06	6.03269e-06	8.88506e-06	0.0628323	0.0158643	0.437959	4.40597e-06	2.26253e-05	5.43331e-06	1.15934e-05	5.78233e-06	2.25766e-06	8.48228	0.185034	8.4843	1.24966	87767.2	4.02339e+06	4.02435e+06	-88.7503	0.0000000E+000	0.0000000E+000	0.0000000E+000	88.7503	0.0000000E+000	0.0000000E+000	0.0000000E+000	-88.7503	0.0000000E+000	0.0000000E+000	0.0000000E+000	-1.24966	0.0000000E+000	0.0000000E+000	0.0000000E+000	1.24966	45.8416	88.7503	-0.00113309
167.481	0.118677	0.00185241	0.118692	-0.894245	265550	-0.000422362	-3.10429	513002	124.954	2	37	0.0049882	0.0420266	0	-1.33019	120	0.330404	0.231188	5.9678	6.47359e-06	7.55955e-06	1.06121e-05	3.07189e-06	3.76122e-06	3.94454e-06	0.0852735	0.0270813	0.465953	7.01013e-06	2.75635e-05	4.689e-06	1.81389e-05	4.83392e-06	8.43414e-06	8.42417	0.131491	8.4252	0.894245	124955	8.00539e+06	8.00636e+06	-89.1058	0.0000000E+000	0.0000000E+000	0.0000000E+000	89.1058	0.0000000E+000	0.0000000E+000	0.0000000E+000	-89.1058	0.0000000E+000	0.0000000E+000	0.0000000E+000	-0.894245	0.0000000E+000	0.0000000E+000	0.0000000E+000	0.894245	64.0665	89.1058	-0.000961435
83.635	0.119251	0.0013462	0.119259	-0.646774	265553	-0.000430433	-3.16691	1.41358e+06	180.12	2	37	0.00509039	0.0426836	0	-1.33315	120	0.313831	0.147294	5.86698	5.93227e-06	7.85695e-06	4.9231e-06	4.38676e-06	7.53867e-06	5.58864e-06	0.104179	0.0160994	0.454016	2.70333e-06	3.18401e-05	4.32533e-06	2.86006e-05	9.231e-06	4.80368e-06	8.38459	0.0946521	8.38513	0.646774	180120	1.59556e+07	1.59567e+07	-89.3532	0.0000000E+000	0.0000000E+000	0.0000000E+000	89.3532	0.0000000E+000	0.0000000E+000	0.0000000E+000	-89.3532	0.0000000E+000	0.0000000E+000	0.0000000E+000	-0.646774	0.0000000E+000	0.0000000E+000	0.0000000E+000	0.646774	88.5833	89.3532	-0.000985466
41.7501	0.119652	0.00111164	0.119657	-0.532301	265557	-0.000431738	-3.15941	3.42923e+06	295.974	2	37	0.00511295	0.0427301	0	-1.33611	120	0.387654	0.119361	5.83705	6.9833e-06	6.90559e-06	1.08962e-05	7.42668e-06	5.69651e-06	6.03006e-06	0.119215	0.019934	0.455545	6.76501e-06	3.73101e-05	6.0499e-06	3.13763e-05	7.78032e-06	5.28127e-06	8.35687	0.0776409	8.35723	0.532301	295975	3.18571e+07	3.18584e+07	-89.4677	0.0000000E+000	0.0000000E+000	0.0000000E+000	89.4677	0.0000000E+000	0.0000000E+000	0.0000000E+000	-89.4677	0.0000000E+000	0.0000000E+000	0.0000000E+000	-0.532301	0.0000000E+000	0.0000000E+000	0.0000000E+000	0.532301	107.635	89.4677	-0.000954734
20.8333	0.120016	0.000976046	0.12002	-0.465956	265560	-0.000437293	-3.23453	7.82693e+06	517.639	2	37	0.00511692	0.042634	0	-1.33908	120	0.319622	0.175358	5.81299	7.91985e-06	5.77275e-06	7.29912e-06	6.22557e-06	3.78156e-06	5.90464e-06	0.117463	0.087292	0.4449	6.5468e-06	3.46423e-05	5.2746e-06	3.26017e-05	9.63335e-06	7.42622e-06	8.33169	0.0677587	8.33197	0.465956	517640	6.36495e+07	6.36516e+07	-89.534	0.0000000E+000	0.0000000E+000	0.0000000E+000	89.534	0.0000000E+000	0.0000000E+000	0.0000000E+000	-89.534	0.0000000E+000	0.0000000E+000	0.0000000E+000	-0.465956	0.0000000E+000	0.0000000E+000	0.0000000E+000	0.465956	122.961	89.534	-0.00103649
10.3959	0.120198	0.00105721	0.120203	-0.503937	265563	-0.00042842	-3.18389	1.44809e+07	1120.19	2	37	0.00511397	0.0425444	0	-1.34218	120	0.238471	0.171325	5.92758	5.66722e-06	4.62137e-06	4.54463e-06	3.73696e-06	3.1035e-06	5.90652e-06	0.116526	0.0902808	0.449127	7.39292e-06	3.72704e-05	5.63843e-06	2.94019e-05	6.05541e-06	5.30485e-06	8.31894	0.07317	8.31926	0.503937	1.12019e+06	1.27358e+08	1.27363e+08	-89.4961	0.0000000E+000	0.0000000E+000	0.0000000E+000	89.4961	0.0000000E+000	0.0000000E+000	0.0000000E+000	-89.4961	0.0000000E+000	0.0000000E+000	0.0000000E+000	-0.503937	0.0000000E+000	0.0000000E+000	0.0000000E+000	0.503937	113.693	89.4961	-0.00114527
5.19276	0.120706	0.00124729	0.120712	-0.592034	265567	-0.000435715	-3.23674	2.45728e+07	2623.54	2	37	0.00511972	0.0424126	0	-1.34554	120	0.19717	0.0987284	3.3321	3.46314e-06	3.12141e-06	1.6939e-06	3.91599e-06	4.59284e-06	5.27358e-06	0.125735	0.038697	0.277292	7.13563e-06	3.53603e-05	7.61128e-06	3.32947e-05	5.65522e-06	7.66252e-06	8.28372	0.0855983	8.28417	0.592034	2.62353e+06	2.53891e+08	2.53905e+08	-89.408	0.0000000E+000	0.0000000E+000	0.0000000E+000	89.408	0.0000000E+000	0.0000000E+000	0.0000000E+000	-89.408	0.0000000E+000	0.0000000E+000	0.0000000E+000	-0.592034	0.0000000E+000	0.0000000E+000	0.0000000E+000	0.592034	96.7744	89.408	-0.00128065
2.58949	0.121175	0.00172184	0.121187	-0.81409	265574	-0.000420202	-3.12556	3.56955e+07	7205.82	2	37	0.00512043	0.0422522	0	-1.35171	120	0.139585	0.0591359	2.16419	2.59266e-06	3.79993e-06	1.84062e-06	3.75056e-06	1.91828e-06	1.68854e-06	0.129269	0.0503981	0.208682	8.79483e-06	3.19691e-05	5.9871e-06	3.30315e-05	2.49466e-05	6.29102e-06	8.25086	0.117241	8.25169	0.81409	7.20579e+06	5.07113e+08	5.07164e+08	-89.1859	0.0000000E+000	0.0000000E+000	0.0000000E+000	89.1859	0.0000000E+000	0.0000000E+000	0.0000000E+000	-89.1859	0.0000000E+000	0.0000000E+000	0.0000000E+000	-0.81409	0.0000000E+000	0.0000000E+000	0.0000000E+000	0.81409	70.3754	89.1859	-0.00254439
1.29325	0.122011	0.00272273	0.122041	-1.27837	265587	-0.000429044	-3.20243	4.51995e+07	22497.2	2	37	0.00511673	0.0419262	0	-1.36388	120	0.117165	0.0620643	1.49155	2.20844e-06	3.33386e-06	1.92594e-06	2.27953e-06	2.66738e-06	7.83533e-07	0.121179	0.0723703	0.198875	8.28699e-06	3.55295e-05	1.03828e-05	3.08275e-05	9.34579e-06	6.535e-06	8.19191	0.182806	8.19395	1.27837	2.24972e+07	1.00814e+09	1.0084e+09	-88.7216	0.0000000E+000	0.0000000E+000	0.0000000E+000	88.7216	0.0000000E+000	0.0000000E+000	0.0000000E+000	-88.7216	0.0000000E+000	0.0000000E+000	0.0000000E+000	-1.27837	0.0000000E+000	0.0000000E+000	0.0000000E+000	1.27837	44.812	88.7216	-0.0048776
0.645874	0.124199	0.0030056	0.124236	-1.38628	265611	-0.000429322	-3.22919	8.19861e+07	47985.5	2	37	0.00511906	0.0412044	0	-1.38733	120	0.111341	0.0743542	1.05401	8.38477e-07	4.72201e-06	1.06021e-06	2.19975e-06	1.52446e-06	6.65184e-07	0.123294	0.0677566	0.171868	6.20068e-06	3.72533e-05	4.80128e-06	3.25882e-05	3.9786e-06	5.96925e-06	8.04685	0.194732	8.04921	1.38628	4.79855e+07	1.98289e+09	1.98347e+09	-88.6137	0.0000000E+000	0.0000000E+000	0.0000000E+000	88.6137	0.0000000E+000	0.0000000E+000	0.0000000E+000	-88.6137	0.0000000E+000	0.0000000E+000	0.0000000E+000	-1.38628	0.0000000E+000	0.0000000E+000	0.0000000E+000	1.38628	41.3226	88.6137	-0.012804
0.322118	0.125624	0.00206053	0.125641	-0.939705	265657	-0.000428278	-3.2375	2.39787e+08	64494.7	2	37	0.0051173	0.0407297	0	-1.42559	120	0.0987707	0.0971562	0.757922	1.85504e-06	3.6427e-06	1.65348e-06	1.32771e-06	1.39991e-06	9.5769e-07	0.121708	0.0950645	0.184106	1.16543e-05	3.84982e-05	1.14668e-05	2.37611e-05	7.7768e-06	6.04023e-06	7.95814	0.130533	7.95922	0.939705	6.44947e+07	3.93203e+09	3.93256e+09	-89.0603	0.0000000E+000	0.0000000E+000	0.0000000E+000	89.0603	0.0000000E+000	0.0000000E+000	0.0000000E+000	-89.0603	0.0000000E+000	0.0000000E+000	0.0000000E+000	-0.939705	0.0000000E+000	0.0000000E+000	0.0000000E+000	0.939705	60.9667	89.0603	-0.0212929
0.160792	0.126296	0.00118804	0.126301	-0.538957	265750	-0.000411349	-3.08829	8.33148e+08	73717.8	2	37	0.0051176	0.040519	0	-1.50603	120	0.0820872	0.0494166	0.538953	1.53741e-06	2.8977e-06	6.34635e-07	2.09885e-06	1.04183e-06	5.52506e-07	0.127008	0.0952239	0.177715	1.29021e-05	3.42425e-05	1.13545e-05	3.07616e-05	5.71693e-06	9.99308e-06	7.91723	0.0744762	7.91758	0.538957	7.37176e+07	7.8366e+09	7.83695e+09	-89.461	0.0000000E+000	0.0000000E+000	0.0000000E+000	89.461	0.0000000E+000	0.0000000E+000	0.0000000E+000	-89.461	0.0000000E+000	0.0000000E+000	0.0000000E+000	-0.538957	0.0000000E+000	0.0000000E+000	0.0000000E+000	0.538957	106.305	89.461	-0.0246804
0.0802383	0.126386	0.000707203	0.126388	-0.320601	265936	-0.000411844	-3.06065	2.80475e+09	87815.8	2	37	0.00511752	0.0404907	0	-1.65631	120	0.114028	0.0813386	0.397111	2.35528e-06	3.80697e-06	1.01276e-06	2.89215e-06	1.45207e-06	8.51028e-07	0.115568	0.113847	0.16538	9.02686e-06	2.67146e-05	1.01105e-05	3.33619e-05	7.38368e-06	4.41777e-06	7.91204	0.0442725	7.91216	0.320601	8.78164e+07	1.56938e+10	1.5694e+10	-89.6794	0.0000000E+000	0.0000000E+000	0.0000000E+000	89.6794	0.0000000E+000	0.0000000E+000	0.0000000E+000	-89.6794	0.0000000E+000	0.0000000E+000	0.0000000E+000	-0.320601	0.0000000E+000	0.0000000E+000	0.0000000E+000	0.320601	178.712	89.6794	-0.0748089
0.04008	0.12655	0.000347033	0.12655	-0.15712	266306	-0.00041661	-3.09424	1.14425e+10	86047.2	2	37	0.00511824	0.0404443	0	-2.02265	120	0.0878354	0.114398	0.308545	2.05788e-06	2.68186e-06	6.72689e-07	1.86237e-06	1.44153e-06	1.22582e-06	0.121746	0.160994	0.166529	1.58628e-05	3.19106e-05	5.70876e-06	3.03777e-05	7.43422e-06	9.71325e-06	7.90196	0.0216692	7.90199	0.15712	8.60473e+07	3.13782e+10	3.13783e+10	-89.8429	0.0000000E+000	0.0000000E+000	0.0000000E+000	89.8429	0.0000000E+000	0.0000000E+000	0.0000000E+000	-89.8429	0.0000000E+000	0.0000000E+000	0.0000000E+000	-0.15712	0.0000000E+000	0.0000000E+000	0.0000000E+000	0.15712	364.663	89.8429	-0.136405
0.0199946	0.126315	0.000101299	0.126315	-0.0459486	267046	-0.000412466	-3.08563	7.85784e+10	50536.1	2	37	0.00511563	0.040499	0	-2.53179	120	0.113836	0.124789	0.25437	1.04408e-06	4.15571e-06	1.58164e-06	2.86146e-06	1.78643e-06	8.39256e-07	0.131875	0.132357	0.178637	1.51987e-05	3.63954e-05	1.16509e-05	3.26056e-05	6.89022e-06	3.93589e-06	7.91672	0.00634884	7.91672	0.0459486	5.05397e+07	6.30162e+10	6.30163e+10	-89.954	0.0000000E+000	0.0000000E+000	0.0000000E+000	89.954	0.0000000E+000	0.0000000E+000	0.0000000E+000	-89.954	0.0000000E+000	0.0000000E+000	0.0000000E+000	-0.0459486	0.0000000E+000	0.0000000E+000	0.0000000E+000	0.0459486	1246.95	89.954	-0.209987
138435	0.0935636	-0.0105165	0.0941528	6.41308	267050	-0.000324908	-2.054	-109.321	-1.36388	3	37	0.00516783	0.0548877	0	-2.53376	120	-1	-1	-1	0	0	0	0	0	0	-1	-1	-1	0	0	0	0	0	0	10.5546	-1.18633	10.621	-6.41308	-1363.88	12134.3	12210.7	-96.4131	0.0000000E+000	0.0000000E+000	0.0000000E+000	96.4131	0.0000000E+000	0.0000000E+000	0.0000000E+000	-96.4131	0.0000000E+000	0.0000000E+000	0.0000000E+000	6.41308	0.0000000E+000	0.0000000E+000	0.0000000E+000	-6.41308	8.89687	83.5869	-0.000581181
69097	0.0963903	-0.00226213	0.0964168	1.34439	267053	-0.000326437	-2.09775	-1018.23	-0.560496	3	37	0.0052189	0.0541285	0	-2.53582	120	0.223323	0.107942	5.74535	4.29128e-06	3.87468e-06	3.32508e-06	6.7791e-06	2.33798e-06	4.34956e-06	0.0856605	0.0649397	0.356303	7.11278e-06	4.48562e-05	4.90448e-06	5.59922e-06	3.82577e-06	1.608e-06	10.3688	-0.243339	10.3716	-1.34439	-560.494	23883	23889.6	-91.3444	0.0000000E+000	0.0000000E+000	0.0000000E+000	91.3444	0.0000000E+000	0.0000000E+000	0.0000000E+000	-91.3444	0.0000000E+000	0.0000000E+000	0.0000000E+000	1.34439	0.0000000E+000	0.0000000E+000	0.0000000E+000	-1.34439	42.6105	88.6556	-0.000687799
34488.2	0.0991888	0.00282902	0.0992292	-1.63372	267057	-0.000333315	-2.13849	1631.23	1.32589	3	37	0.00519382	0.0523416	0	-2.53769	120	0.28818	0.185076	5.77401	6.63912e-06	8.05824e-06	5.10416e-06	5.58554e-06	4.20992e-06	4.05362e-06	0.107906	0.0520828	0.375543	6.94208e-06	5.47072e-05	4.43193e-06	9.03309e-06	5.59986e-06	1.5775e-06	10.0736	0.287314	10.0777	1.63372	1325.89	46487.2	46506.1	-88.3663	0.0000000E+000	0.0000000E+000	0.0000000E+000	88.3663	0.0000000E+000	0.0000000E+000	0.0000000E+000	-88.3663	0.0000000E+000	0.0000000E+000	0.0000000E+000	-1.63372	0.0000000E+000	0.0000000E+000	0.0000000E+000	1.63372	35.0612	88.3663	-0.000602833
17211.6	0.103087	0.00571504	0.103245	-3.17318	267060	-0.000331507	-2.10144	1618	4.95769	3	37	0.00517254	0.0500997	0	-2.53964	120	0.324777	0.16022	5.83718	5.24089e-06	8.57759e-06	8.36219e-06	4.51186e-06	5.31946e-06	6.77521e-06	0.101003	0.0129737	0.383604	6.62776e-06	4.89526e-05	5.793e-06	7.54455e-06	2.98391e-06	2.46033e-06	9.67085	0.536143	9.6857	3.17318	4957.69	89425.8	89563.1	-86.8268	0.0000000E+000	0.0000000E+000	0.0000000E+000	86.8268	0.0000000E+000	0.0000000E+000	0.0000000E+000	-86.8268	0.0000000E+000	0.0000000E+000	0.0000000E+000	-3.17318	0.0000000E+000	0.0000000E+000	0.0000000E+000	3.17318	18.0378	86.8268	-0.000584908
8590.41	0.107144	0.00654984	0.107344	-3.49822	267063	-0.000429725	-2.9939	2828.63	10.5313	3	37	0.00526042	0.0490054	0	-2.54204	120	0.330737	0.179084	5.63906	5.43192e-06	1.03884e-05	4.05961e-06	4.09027e-06	5.81877e-06	7.22721e-06	0.115433	0.0562317	0.400429	2.64187e-06	5.41303e-05	4.95586e-06	1.3512e-05	2.44711e-06	6.17835e-06	9.29851	0.568431	9.31587	3.49822	10531.3	172274	172596	-86.5018	0.0000000E+000	0.0000000E+000	0.0000000E+000	86.5018	0.0000000E+000	0.0000000E+000	0.0000000E+000	-86.5018	0.0000000E+000	0.0000000E+000	0.0000000E+000	-3.49822	0.0000000E+000	0.0000000E+000	0.0000000E+000	3.49822	16.3582	86.5018	-0.00107856
4288.63	0.110509	0.00591098	0.110667	-3.06175	267067	-0.000439567	-3.02912	6278.31	17.9112	3	37	0.00515717	0.0466008	0	-2.54519	120	0.295411	0.151306	5.80486	4.62163e-06	5.63756e-06	4.86561e-06	6.21616e-06	7.08933e-06	6.1726e-06	0.074556	0.0269225	0.413422	2.95184e-06	3.29416e-05	3.50604e-06	5.80223e-06	6.1255e-06	4.10683e-06	9.02321	0.482639	9.03611	3.06175	17911.2	334860	335338	-86.9382	0.0000000E+000	0.0000000E+000	0.0000000E+000	86.9382	0.0000000E+000	0.0000000E+000	0.0000000E+000	-86.9382	0.0000000E+000	0.0000000E+000	0.0000000E+000	-3.06175	0.0000000E+000	0.0000000E+000	0.0000000E+000	3.06175	18.6956	86.9382	-0.00110698
2140.69	0.113212	0.00501144	0.113323	-2.53461	267071	-0.000438262	-3.08339	14835.6	29.0133	3	37	0.00516123	0.0455446	0	-2.54859	120	0.26405	0.196262	5.8484	6.32178e-06	5.16965e-06	3.73961e-06	4.82164e-06	4.85644e-06	5.33597e-06	0.0531579	0.0285841	0.434775	2.38638e-06	2.10056e-05	3.97455e-06	4.85933e-06	7.45965e-06	4.84721e-06	8.81573	0.390238	8.82437	2.53461	29013.3	655429	656071	-87.4654	0.0000000E+000	0.0000000E+000	0.0000000E+000	87.4654	0.0000000E+000	0.0000000E+000	0.0000000E+000	-87.4654	0.0000000E+000	0.0000000E+000	0.0000000E+000	-2.53461	0.0000000E+000	0.0000000E+000	0.0000000E+000	2.53461	22.5906	87.4654	-0.00110689
1068.29	0.115399	0.00422715	0.115477	-2.09784	267075	-0.000441767	-3.06883	35243.7	47.2268	3	37	0.00510999	0.0442513	0	-2.55218	120	0.297499	0.182555	5.91818	5.35647e-06	6.61493e-06	4.801e-06	7.97869e-06	3.1175e-06	6.76144e-06	0.0350129	0.097953	0.442522	3.40688e-06	6.36628e-06	2.8977e-06	9.34963e-06	8.03821e-06	3.77098e-06	8.65396	0.317	8.65976	2.09784	47226.7	1.28927e+06	1.29014e+06	-87.9022	0.0000000E+000	0.0000000E+000	0.0000000E+000	87.9022	0.0000000E+000	0.0000000E+000	0.0000000E+000	-87.9022	0.0000000E+000	0.0000000E+000	0.0000000E+000	-2.09784	0.0000000E+000	0.0000000E+000	0.0000000E+000	2.09784	27.2995	87.9022	-0.00119779
533.464	0.117065	0.00327427	0.117111	-1.60213	267079	-0.00042266	-3.07836	91117.3	71.2257	3	37	0.00506554	0.0432543	0	-2.55537	120	0.284026	0.204229	5.89588	7.18121e-06	4.34973e-06	4.08673e-06	5.69872e-06	2.22765e-06	6.33568e-06	0.0568958	0.0192632	0.451387	5.11225e-06	1.72286e-05	4.75622e-06	1.36231e-05	6.25332e-06	2.29703e-06	8.53559	0.238738	8.53893	1.60213	71225.7	2.54653e+06	2.54753e+06	-88.3979	0.0000000E+000	0.0000000E+000	0.0000000E+000	88.3979	0.0000000E+000	0.0000000E+000	0.0000000E+000	-88.3979	0.0000000E+000	0.0000000E+000	0.0000000E+000	-1.60213	0.0000000E+000	0.0000000E+000	0.0000000E+000	1.60213	35.753	88.3979	-0.00107674
266.278	0.118049	0.00238462	0.118073	-1.15723	267083	-0.00040236	-3.02458	250648	102.235	3	37	0.00523309	0.0443207	0	-2.55826	120	0.254303	0.178084	5.69956	6.44424e-06	6.03739e-06	5.67958e-06	3.01675e-06	5.53083e-06	3.27921e-06	0.0788525	0.0233792	0.44486	8.04768e-06	2.69616e-05	5.81137e-06	1.6766e-05	7.85976e-06	5.3263e-06	8.46759	0.171047	8.46931	1.15723	102236	5.0611e+06	5.06213e+06	-88.8428	0.0000000E+000	0.0000000E+000	0.0000000E+000	88.8428	0.0000000E+000	0.0000000E+000	0.0000000E+000	-88.8428	0.0000000E+000	0.0000000E+000	0.0000000E+000	-1.15723	0.0000000E+000	0.0000000E+000	0.0000000E+000	1.15723	49.5043	88.8428	-0.000903184
132.916	0.118711	0.00161195	0.118721	-0.777962	267086	-0.000417944	-3.11599	742832	136.942	3	37	0.00549422	0.0462783	0	-2.5611	120	0.31291	0.135394	5.48992	8.16335e-06	6.05894e-06	5.37296e-06	7.4467e-06	5.9618e-06	6.7285e-06	0.0997174	0.0195436	0.435349	5.25903e-06	3.64875e-05	4.66233e-06	2.38459e-05	9.37659e-06	7.72455e-06	8.4223	0.114365	8.42307	0.777962	136942	1.00849e+07	1.00859e+07	-89.222	0.0000000E+000	0.0000000E+000	0.0000000E+000	89.222	0.0000000E+000	0.0000000E+000	0.0000000E+000	-89.222	0.0000000E+000	0.0000000E+000	0.0000000E+000	-0.777962	0.0000000E+000	0.0000000E+000	0.0000000E+000	0.777962	73.644	89.222	-0.000978682
66.3374	0.119223	0.00128235	0.11923	-0.616241	267090	-0.000408008	-3.04935	1.87093e+06	216.419	3	37	0.00510083	0.0427814	0	-2.56395	120	0.211331	0.116427	5.80439	3.77013e-06	3.64893e-06	3.57084e-06	5.34277e-06	2.66497e-06	4.36862e-06	0.105561	0.0242122	0.451942	7.28088e-06	3.11033e-05	4.9987e-06	2.89251e-05	7.58551e-06	8.41386e-06	8.38666	0.0902057	8.38715	0.616241	216419	2.01211e+07	2.01222e+07	-89.3838	0.0000000E+000	0.0000000E+000	0.0000000E+000	89.3838	0.0000000E+000	0.0000000E+000	0.0000000E+000	-89.3838	0.0000000E+000	0.0000000E+000	0.0000000E+000	-0.616241	0.0000000E+000	0.0000000E+000	0.0000000E+000	0.616241	92.9727	89.3838	-0.000851446
33.1038	0.119378	0.000969187	0.119382	-0.465152	267093	-0.000392462	-2.98099	4.9606e+06	326.941	3	37	0.00510982	0.0428021	0	-2.56665	120	0.33655	0.22414	6.02394	6.653e-06	7.41811e-06	6.24103e-06	4.09082e-06	2.7232e-06	9.24689e-06	0.113626	0.0252236	0.458336	6.78639e-06	3.42924e-05	5.02369e-06	3.14048e-05	5.74323e-06	8.58898e-06	8.37618	0.068003	8.37646	0.465152	326939	4.02706e+07	4.02719e+07	-89.5349	0.0000000E+000	0.0000000E+000	0.0000000E+000	89.5349	0.0000000E+000	0.0000000E+000	0.0000000E+000	-89.5349	0.0000000E+000	0.0000000E+000	0.0000000E+000	-0.465152	0.0000000E+000	0.0000000E+000	0.0000000E+000	0.465152	123.174	89.5349	-0.000849086
16.5286	0.119966	0.00104736	0.11997	-0.500206	267096	-0.000415278	-3.10092	9.19368e+06	700.697	3	37	0.00512086	0.0426843	0	-2.56924	120	0.265911	0.182734	5.82825	5.044e-06	2.99586e-06	7.10332e-06	4.80298e-06	3.75657e-06	4.48451e-06	0.110913	0.0813885	0.451861	9.02296e-06	3.25499e-05	6.63123e-06	3.00525e-05	7.69763e-06	7.29614e-06	8.33507	0.0727689	8.33538	0.500206	700698	8.02589e+07	8.0262e+07	-89.4998	0.0000000E+000	0.0000000E+000	0.0000000E+000	89.4998	0.0000000E+000	0.0000000E+000	0.0000000E+000	-89.4998	0.0000000E+000	0.0000000E+000	0.0000000E+000	-0.500206	0.0000000E+000	0.0000000E+000	0.0000000E+000	0.500206	114.542	89.4998	-0.000697797
8.24973	0.12024	0.00105899	0.120244	-0.504609	267100	-0.000409528	-3.08606	1.82175e+07	1413	3	37	0.00512056	0.0425847	0	-2.57253	120	0.200593	0.104523	4.05322	2.7519e-06	3.9037e-06	3.8923e-06	4.88222e-06	4.0725e-06	4.17841e-06	0.137022	0.0859989	0.330226	2.70328e-05	3.5734e-05	5.66994e-06	3.38299e-05	5.70315e-06	5.0146e-06	8.31609	0.0732424	8.31641	0.504609	1.413e+06	1.60435e+08	1.60441e+08	-89.4954	0.0000000E+000	0.0000000E+000	0.0000000E+000	89.4954	0.0000000E+000	0.0000000E+000	0.0000000E+000	-89.4954	0.0000000E+000	0.0000000E+000	0.0000000E+000	-0.504609	0.0000000E+000	0.0000000E+000	0.0000000E+000	0.504609	113.542	89.4954	-0.00133399
4.11618	0.120531	0.0013271	0.120538	-0.63083	267105	-0.000404066	-3.14668	2.91354e+07	3531.7	3	37	0.00511814	0.0424608	0	-2.57613	120	0.18368	0.110275	2.83437	5.64889e-06	4.69182e-06	1.34965e-06	2.88068e-06	3.7608e-06	1.87433e-06	0.129129	0.0710941	0.256177	1.57334e-05	3.75361e-05	1.32215e-05	3.12523e-05	4.17805e-06	3.71347e-06	8.29564	0.0913392	8.29615	0.63083	3.53169e+06	3.20757e+08	3.20776e+08	-89.3692	0.0000000E+000	0.0000000E+000	0.0000000E+000	89.3692	0.0000000E+000	0.0000000E+000	0.0000000E+000	-89.3692	0.0000000E+000	0.0000000E+000	0.0000000E+000	-0.63083	0.0000000E+000	0.0000000E+000	0.0000000E+000	0.63083	90.8223	89.3692	-0.00114408
2.05457	0.120935	0.00191764	0.12095	-0.908448	267113	-0.000403818	-3.0522	4.03954e+07	10154.3	3	37	0.00511703	0.0423068	0	-2.58394	120	0.154563	0.0825244	1.9371	4.19183e-06	4.0585e-06	1.08931e-06	3.89421e-06	2.04357e-06	1.94372e-06	0.151689	0.0710853	0.210548	1.75322e-05	4.06149e-05	6.46047e-06	3.947e-05	9.0664e-06	1.74438e-05	8.26681	0.131085	8.26785	0.908448	1.01543e+07	6.40379e+08	6.40459e+08	-89.0916	0.0000000E+000	0.0000000E+000	0.0000000E+000	89.0916	0.0000000E+000	0.0000000E+000	0.0000000E+000	-89.0916	0.0000000E+000	0.0000000E+000	0.0000000E+000	-0.908448	0.0000000E+000	0.0000000E+000	0.0000000E+000	0.908448	63.0647	89.0916	-0.00334032
1.02607	0.122417	0.00299735	0.122454	-1.40259	267128	-0.000396974	-3.04306	5.17493e+07	31005.4	3	37	0.00511853	0.0417997	0	-2.59635	120	0.132993	0.0759119	1.36336	2.5457e-06	5.01008e-06	6.7855e-07	2.33993e-06	1.62546e-06	2.13059e-06	0.127447	0.0862189	0.200981	1.52359e-05	3.9171e-05	5.61089e-06	2.70421e-05	1.08953e-05	1.07349e-05	8.16391	0.199891	8.16636	1.40259	3.10054e+07	1.26631e+09	1.26669e+09	-88.5974	0.0000000E+000	0.0000000E+000	0.0000000E+000	88.5974	0.0000000E+000	0.0000000E+000	0.0000000E+000	-88.5974	0.0000000E+000	0.0000000E+000	0.0000000E+000	-1.40259	0.0000000E+000	0.0000000E+000	0.0000000E+000	1.40259	40.8417	88.5974	-0.00644382
0.511825	0.124488	0.00270382	0.124517	-1.24425	267158	-0.000413676	-3.11656	1.15006e+08	54227.6	3	37	0.00511741	0.0410981	0	-2.62205	120	0.111477	0.0996479	0.944227	1.80811e-06	4.17131e-06	1.01671e-06	2.34644e-06	1.72345e-06	1.17252e-06	0.114756	0.0570413	0.171137	6.43252e-06	3.56685e-05	3.98994e-06	2.82301e-05	6.10438e-06	7.34331e-06	8.02915	0.17439	8.03104	1.24425	5.42276e+07	2.49671e+09	2.4973e+09	-88.7558	0.0000000E+000	0.0000000E+000	0.0000000E+000	88.7558	0.0000000E+000	0.0000000E+000	0.0000000E+000	-88.7558	0.0000000E+000	0.0000000E+000	0.0000000E+000	-1.24425	0.0000000E+000	0.0000000E+000	0.0000000E+000	1.24425	46.0413	88.7558	-0.0141227
0.255612	0.125567	0.00174689	0.125579	-0.797051	267217	-0.000444333	-3.24744	3.56429e+08	68971.8	3	37	0.00511654	0.0407436	0	-2.6671	120	0.0916481	0.0749008	0.670435	1.61836e-06	2.93654e-06	1.2029e-06	2.14219e-06	1.68858e-06	7.97683e-07	0.108861	0.0790221	0.1783	1.12537e-05	3.03043e-05	6.40437e-06	2.57961e-05	1.00657e-05	4.96321e-06	7.96234	0.110772	7.96311	0.797051	6.89718e+07	4.9577e+09	4.95818e+09	-89.203	0.0000000E+000	0.0000000E+000	0.0000000E+000	89.203	0.0000000E+000	0.0000000E+000	0.0000000E+000	-89.203	0.0000000E+000	0.0000000E+000	0.0000000E+000	-0.797051	0.0000000E+000	0.0000000E+000	0.0000000E+000	0.797051	71.8801	89.203	-0.0150071
0.127525	0.125952	0.0009895	0.125956	-0.450115	267334	-0.000432674	-3.34749	1.26127e+09	77839.8	3	37	0.00511631	0.0406197	0	-2.79356	120	0.117206	0.0753819	0.493133	2.5223e-06	4.37014e-06	1.39587e-06	2.26245e-06	1.38994e-06	7.61895e-07	0.128772	0.0842971	0.175466	1.38239e-05	3.59009e-05	1.00383e-05	3.18148e-05	5.08396e-06	6.93655e-06	7.93902	0.0623701	7.93927	0.450115	7.78392e+07	9.90814e+09	9.90845e+09	-89.5499	0.0000000E+000	0.0000000E+000	0.0000000E+000	89.5499	0.0000000E+000	0.0000000E+000	0.0000000E+000	-89.5499	0.0000000E+000	0.0000000E+000	0.0000000E+000	-0.450115	0.0000000E+000	0.0000000E+000	0.0000000E+000	0.450115	127.289	89.5499	-0.0556956
0.0636941	0.126093	0.000570385	0.126095	-0.259177	267567	-0.000416842	-3.09273	4.38079e+09	89638.9	3	37	0.00511405	0.0405573	0	-2.97013	120	0.115586	0.0719448	0.367957	2.41426e-06	3.20947e-06	1.73159e-06	3.24785e-06	1.18291e-06	1.08145e-06	0.136815	0.089605	0.177692	7.61306e-06	3.60207e-05	1.08534e-05	3.70382e-05	7.28696e-06	4.93625e-06	7.93048	0.0358737	7.93056	0.259177	8.96394e+07	1.98162e+10	1.98164e+10	-89.7408	0.0000000E+000	0.0000000E+000	0.0000000E+000	89.7408	0.0000000E+000	0.0000000E+000	0.0000000E+000	-89.7408	0.0000000E+000	0.0000000E+000	0.0000000E+000	-0.259177	0.0000000E+000	0.0000000E+000	0.0000000E+000	0.259177	221.067	89.7408	-0.0610098
0.0317924	0.126204	0.000275486	0.126204	-0.125069	268033	-0.000418098	-3.22412	1.81718e+10	86586.4	3	37	0.00511424	0.0405237	0	-3.3836	120	0.109907	0.155348	0.295551	2.46414e-06	3.29264e-06	1.10641e-06	3.07116e-06	1.7091e-06	6.47566e-07	0.117582	0.146281	0.174372	1.73134e-05	2.56246e-05	8.0703e-06	3.08371e-05	7.79061e-06	1.06216e-05	7.92367	0.0172963	7.92369	0.125069	8.65863e+07	3.96664e+10	3.96665e+10	-89.8749	0.0000000E+000	0.0000000E+000	0.0000000E+000	89.8749	0.0000000E+000	0.0000000E+000	0.0000000E+000	-89.8749	0.0000000E+000	0.0000000E+000	0.0000000E+000	-0.125069	0.0000000E+000	0.0000000E+000	0.0000000E+000	0.125069	458.113	89.8749	-0.193815
0.0199946	0.12624	0.000164835	0.12624	-0.0748126	268582	-0.000420202	-3.21164	4.82902e+10	82330.9	3	37	0.00511487	0.040517	0	-3.9703	120	0.116456	0.212351	0.244391	2.83101e-06	3.64549e-06	8.77195e-07	2.75311e-06	1.78339e-06	9.41908e-07	0.126151	0.1519	0.162269	1.61244e-05	3.00614e-05	8.01469e-06	3.11866e-05	8.34164e-06	7.38023e-06	7.92142	0.0103432	7.92143	0.0748126	8.23322e+07	6.30537e+10	6.30537e+10	-89.9252	0.0000000E+000	0.0000000E+000	0.0000000E+000	89.9252	0.0000000E+000	0.0000000E+000	0.0000000E+000	-89.9252	0.0000000E+000	0.0000000E+000	0.0000000E+000	-0.0748126	0.0000000E+000	0.0000000E+000	0.0000000E+000	0.0748126	765.857	89.9252	-0.321977