File: Python/Experiments/IRFB/240415-Felt-0p5M_FeCl2FeCl23-1M_HCl/Data/240416-EIS-0p5M_FeCl2FeCl3-1M_HCl-20mLmin_Dampened-25mHz_10ppd_C15.mpt
EC-Lab ASCII FILE
Nb header lines : 66

Potentio Electrochemical Impedance Spectroscopy

Run on channel : 15 (SN 19485)
User :
Electrode connection : standard
Potential control : Ewe
Ewe ctrl range : min = -1.00 V, max = 1.00 V
Ewe,I filtering : <None>
Safety Limits :
	Do not start on E overload
Channel : Floating
Acquisition started on : 04/16/2024 11:45:13.974
Loaded Setting File :  NONE
Saved on :
	File : 240416-EIS-0p5M_FeCl2FeCl3-1M_HCl-20mLmin_Dampened-25mHz_10ppd_C15.mpr
	Directory : C:\Data\mathias\IRFB\
	Host : 192.168.0.1
Device : VMP-300 (SN 0826)
Address : USB
EC-Lab for windows v11.52 (software)
Internet server v11.52 (firmware)
Command interpretor v11.52 (firmware)
Electrode material :
Initial state :
Electrolyte :
Comments :
Cable : special
Electrode surface area : 0.001 cm²
Characteristic mass : 0.001 g
Equivalent Weight : 0.000 g/eq.
Density : 0.000 g/cm3
Volume (V) : 0.001 cm³
Record EIS quality indicators
Cycle Definition : Charge/Discharge alternance
Mode                Single sine
E (V)               0.0000
vs.                 Eoc
tE (h:m:s)          0:00:0.0000
record              0
dI                  0.000
unit dI             mA
dt (s)              0.000
fi                  920.000
unit fi             kHz
ff                  25.000
unit ff             mHz
Nd                  10
Points              per decade
spacing             Logarithmic
Va (mV)             5.0
pw                  0.10
Na                  3
corr                0
E range min (V)     -1.000
E range max (V)     1.000
I Range             Auto
Bandwidth           8
nc cycles           0
goto Ns'            0
nr cycles           999
inc. cycle          1

freq/Hz	Re(Z)/Ohm	-Im(Z)/Ohm	|Z|/Ohm	Phase(Z)/deg	time/s	<Ewe>/V	<I>/mA	Cs/µF	Cp/µF	cycle number	I Range	|Ewe|/V	|I|/A	Ns	(Q-Qo)/mA.h	THD Ewe/%	NSD Ewe/%	NSR Ewe/%	|Ewe h2|/V	|Ewe h3|/V	|Ewe h4|/V	|Ewe h5|/V	|Ewe h6|/V	|Ewe h7|/V	THD I/%	NSD I/%	NSR I/%	|I h2|/A	|I h3|/A	|I h4|/A	|I h5|/A	|I h6|/A	|I h7|/A	Re(Y)/Ohm-1	Im(Y)/Ohm-1	|Y|/Ohm-1	Phase(Y)/deg	Re(C)/nF	Im(C)/nF	|C|/nF	Phase(C)/deg	Re(M)	Im(M)	|M|	Phase(M)/deg	Re(Permittivity)	Im(Permittivity)	|Permittivity|	Phase(Permittivity)/deg	Re(Resistivity)/Ohm.cm	Im(Resistivity)/Ohm.cm	|Resistivity|/Ohm.cm	Phase(Resistivity)/deg	Re(Conductivity)/mS/cm	Im(Conductivity)/mS/cm	|Conductivity|/mS/cm	Phase(Conductivity)/deg	Tan(Delta)	Loss Angle(Delta)/deg	dq/mA.h
920001	-0.0945144	-0.221103	0.240457	113.145	1.97648	-0.000120619	-0.508761	-0.782414	-0.661534	1	37	0.000708629	0.00294701	0	-0.000262372	-1	-1	-1	0	0	0	0	0	0	-1	-1	-1	0	0	0	0	0	0	-1.63464	-3.82402	4.15875	-113.145	-661.534	-282.784	719.44	156.855	0.0000000E+000	0.0000000E+000	0.0000000E+000	-156.855	0.0000000E+000	0.0000000E+000	0.0000000E+000	156.855	0.0000000E+000	0.0000000E+000	0.0000000E+000	113.145	0.0000000E+000	0.0000000E+000	0.0000000E+000	-113.145	0.427467	23.1451	-0.000262372
184902	0.0824251	-0.0157841	0.0839228	10.8407	10.0055	-0.000122259	-0.481401	-54.533	-1.92902	1	37	0.0038683	0.0460935	0	-0.00127169	-1	-1	-1	0	0	0	0	0	0	-1	-1	-1	0	0	0	0	0	0	11.7031	-2.24109	11.9157	-10.8407	-1929.02	10073.4	10256.5	-100.841	0.0000000E+000	0.0000000E+000	0.0000000E+000	100.841	0.0000000E+000	0.0000000E+000	0.0000000E+000	-100.841	0.0000000E+000	0.0000000E+000	0.0000000E+000	10.8407	0.0000000E+000	0.0000000E+000	0.0000000E+000	-10.8407	5.22205	79.1593	-0.000131149
37160.4	0.0918434	0.00541376	0.0920028	-3.37343	17.9065	-0.00011896	-0.421845	791.117	2.73928	1	37	0.00519776	0.0564957	0	-0.00256068	0.314288	0.163596	6.36212	2.76076e-06	8.58442e-06	6.15093e-06	6.32455e-06	7.62253e-06	4.75869e-06	0.128723	0.0460542	0.382012	4.77544e-06	7.12377e-05	5.68238e-06	1.06426e-05	4.52734e-06	2.90832e-06	10.8504	0.639583	10.8692	3.37343	2739.28	46471.4	46552.1	-86.6266	0.0000000E+000	0.0000000E+000	0.0000000E+000	86.6266	0.0000000E+000	0.0000000E+000	0.0000000E+000	-86.6266	0.0000000E+000	0.0000000E+000	0.0000000E+000	-3.37343	0.0000000E+000	0.0000000E+000	0.0000000E+000	3.37343	16.9648	86.6266	-0.000133832
7470.62	0.106067	0.0117445	0.106715	-6.31844	25.9892	-0.000236229	-1.16702	1813.97	21.9707	1	37	0.00520582	0.0487823	0	-0.00421702	0.251693	0.18978	6.21542	3.41667e-06	7.43176e-06	7.1279e-06	4.47065e-06	3.11718e-06	3.28741e-06	0.110692	0.059293	0.464423	5.629e-06	5.19205e-05	9.30036e-06	7.23924e-06	4.62448e-06	2.09773e-06	9.31381	1.03129	9.37073	6.31844	21970.7	198423	199635	-83.6816	0.0000000E+000	0.0000000E+000	0.0000000E+000	83.6816	0.0000000E+000	0.0000000E+000	0.0000000E+000	-83.6816	0.0000000E+000	0.0000000E+000	0.0000000E+000	-6.31844	0.0000000E+000	0.0000000E+000	0.0000000E+000	6.31844	9.03123	83.6816	-0.000332511
1501.44	0.117755	0.00715645	0.117972	-3.47782	35.2335	-0.000242473	-1.18427	14812	54.5068	1	37	0.0051417	0.043584	0	-0.00759244	0.317811	0.140445	6.35226	5.5169e-06	6.14684e-06	5.91146e-06	7.32255e-06	4.36416e-06	8.409e-06	0.0389432	0.0171095	0.507697	5.69395e-06	9.59831e-06	3.52394e-06	9.13232e-06	5.5505e-06	4.64773e-06	8.46097	0.514208	8.47658	3.47782	54506.8	896875	898530	-86.5222	0.0000000E+000	0.0000000E+000	0.0000000E+000	86.5222	0.0000000E+000	0.0000000E+000	0.0000000E+000	-86.5222	0.0000000E+000	0.0000000E+000	0.0000000E+000	-3.47782	0.0000000E+000	0.0000000E+000	0.0000000E+000	3.47782	16.4544	86.5222	-0.000457542
301.641	0.121511	0.00274424	0.121542	-1.29377	44.0887	-0.000224858	-1.19414	192268	98.0168	1	37	0.00531403	0.0437219	0	-0.0104506	0.316354	0.176817	6.22915	5.25471e-06	7.98214e-06	6.79926e-06	3.46164e-06	7.45078e-06	7.13154e-06	0.0604789	0.0355539	0.50504	4.80187e-06	2.07594e-05	5.03981e-06	1.15971e-05	3.90229e-06	6.65894e-06	8.22553	0.185768	8.22763	1.29377	98017.1	4.34004e+06	4.34114e+06	-88.7062	0.0000000E+000	0.0000000E+000	0.0000000E+000	88.7062	0.0000000E+000	0.0000000E+000	0.0000000E+000	-88.7062	0.0000000E+000	0.0000000E+000	0.0000000E+000	-1.29377	0.0000000E+000	0.0000000E+000	0.0000000E+000	1.29377	44.2785	88.7062	-0.000336962
60.6403	0.12306	0.0016699	0.123072	-0.777441	52.0317	-0.000215668	-1.23549	1.5717e+06	289.355	1	37	0.00526286	0.0427625	0	-0.0132488	0.297069	0.149147	6.11445	6.03038e-06	5.13781e-06	6.0324e-06	7.68764e-06	6.0107e-06	5.62362e-06	0.108327	0.0500177	0.510358	4.27486e-06	3.57428e-05	6.06573e-06	2.64071e-05	8.15077e-06	4.51546e-06	8.1246	0.110249	8.12535	0.777441	289356	2.13236e+07	2.13256e+07	-89.2226	0.0000000E+000	0.0000000E+000	0.0000000E+000	89.2226	0.0000000E+000	0.0000000E+000	0.0000000E+000	-89.2226	0.0000000E+000	0.0000000E+000	0.0000000E+000	-0.777441	0.0000000E+000	0.0000000E+000	0.0000000E+000	0.777441	73.6934	89.2226	-0.000423388
12.188	0.124556	0.00182204	0.124569	-0.838082	59.7488	-0.00022016	-1.18306	7.16688e+06	1533.3	1	37	0.0052749	0.0423452	0	-0.0157329	0.255027	0.135628	6.26347	6.84625e-06	5.96954e-06	2.92575e-06	5.56637e-06	4.09889e-06	5.43946e-06	0.163343	0.108162	0.495493	1.09844e-05	3.91299e-05	4.23461e-05	3.16811e-05	7.55318e-06	1.14582e-05	8.02681	0.117419	8.02767	0.838082	1.5333e+06	1.04817e+08	1.04828e+08	-89.1619	0.0000000E+000	0.0000000E+000	0.0000000E+000	89.1619	0.0000000E+000	0.0000000E+000	0.0000000E+000	-89.1619	0.0000000E+000	0.0000000E+000	0.0000000E+000	-0.838082	0.0000000E+000	0.0000000E+000	0.0000000E+000	0.838082	68.3605	89.1619	-0.000603878
2.44752	0.12605	0.00275706	0.12608	-1.25301	72.3443	-0.000210147	-1.17901	2.35856e+07	11278.3	1	37	0.0052704	0.0418019	0	-0.0188801	0.170889	0.0804853	2.25199	2.61415e-06	7.0337e-06	2.14891e-06	2.93692e-06	1.79431e-06	2.11719e-06	0.141372	0.082403	0.28359	8.50067e-06	3.12385e-05	5.10608e-06	2.42587e-05	1.04124e-05	4.06642e-05	7.92956	0.173441	7.93146	1.25301	1.12783e+07	5.15635e+08	5.15759e+08	-88.747	0.0000000E+000	0.0000000E+000	0.0000000E+000	88.747	0.0000000E+000	0.0000000E+000	0.0000000E+000	-88.747	0.0000000E+000	0.0000000E+000	0.0000000E+000	-1.25301	0.0000000E+000	0.0000000E+000	0.0000000E+000	1.25301	45.7191	88.747	-0.000916626
0.492188	0.128782	0.00764629	0.129008	-3.39789	123.124	-0.000197108	-1.17511	4.229e+07	148560	1	37	0.00526943	0.0408456	0	-0.039184	0.105383	0.0765198	0.962876	1.38347e-06	4.30712e-06	1.85986e-06	1.83845e-06	9.0075e-07	1.00502e-06	0.164297	0.0964067	0.320871	4.33663e-05	3.71231e-05	1.39227e-05	2.50928e-05	8.64083e-06	7.72157e-06	7.7378	0.459425	7.75143	3.39789	1.4856e+08	2.50211e+09	2.50652e+09	-86.6021	0.0000000E+000	0.0000000E+000	0.0000000E+000	86.6021	0.0000000E+000	0.0000000E+000	0.0000000E+000	-86.6021	0.0000000E+000	0.0000000E+000	0.0000000E+000	-3.39789	0.0000000E+000	0.0000000E+000	0.0000000E+000	3.39789	16.8424	86.6021	-0.00861187
0.0988834	0.146009	0.0128403	0.146572	-5.02578	366.111	-0.000203049	-1.21666	1.25349e+08	961987	1	37	0.00526087	0.0358927	0	-0.117238	0.107087	0.0632559	0.450586	1.60407e-06	4.58484e-06	7.32959e-07	2.06567e-06	9.68893e-07	7.98552e-07	0.129031	0.118448	0.442512	9.09188e-06	3.15093e-05	6.73891e-06	2.90565e-05	6.69592e-06	6.57751e-06	6.79635	0.597685	6.82258	5.02578	9.61987e+08	1.09389e+10	1.09811e+10	-84.9742	0.0000000E+000	0.0000000E+000	0.0000000E+000	84.9742	0.0000000E+000	0.0000000E+000	0.0000000E+000	-84.9742	0.0000000E+000	0.0000000E+000	0.0000000E+000	-5.02578	0.0000000E+000	0.0000000E+000	0.0000000E+000	5.02578	11.3711	84.9742	-0.0104914
920001	-0.0973993	-0.22062	0.241163	113.821	1260.47	-0.000123024	-0.348127	-0.78413	-0.656227	2	37	0.000710669	0.00294684	0	2.12987e-05	-1	-1	-1	0	0	0	0	0	0	-1	-1	-1	0	0	0	0	0	0	-1.67469	-3.79335	4.14657	-113.821	-656.227	-289.712	717.334	156.179	0.0000000E+000	0.0000000E+000	0.0000000E+000	-156.179	0.0000000E+000	0.0000000E+000	0.0000000E+000	156.179	0.0000000E+000	0.0000000E+000	0.0000000E+000	113.821	0.0000000E+000	0.0000000E+000	0.0000000E+000	-113.821	0.441481	23.8205	0.490999
184902	0.0817128	-0.0157012	0.0832076	10.8768	1268.5	-0.000127684	-0.648865	-54.821	-1.95202	2	37	0.00383391	0.0460764	0	-0.00138594	-1	-1	-1	0	0	0	0	0	0	-1	-1	-1	0	0	0	0	0	0	11.8022	-2.2678	12.0181	-10.8768	-1952.02	10158.8	10344.6	-100.877	0.0000000E+000	0.0000000E+000	0.0000000E+000	100.877	0.0000000E+000	0.0000000E+000	0.0000000E+000	-100.877	0.0000000E+000	0.0000000E+000	0.0000000E+000	10.8768	0.0000000E+000	0.0000000E+000	0.0000000E+000	-10.8768	5.20425	79.1232	-0.000241283
37160.4	0.0911211	0.00544343	0.0912835	-3.4187	1276.4	-0.000124328	-0.512761	786.804	2.79787	2	37	0.00520322	0.0570006	0	-0.00298493	0.344684	0.150283	6.24321	7.29144e-06	7.18422e-06	8.0471e-06	5.16217e-06	5.72274e-06	8.20602e-06	0.128176	0.039339	0.389551	8.29037e-06	7.14962e-05	6.82468e-06	7.43505e-06	3.38995e-06	4.92153e-06	10.9354	0.653263	10.9549	3.4187	2797.87	46835.3	46918.8	-86.5813	0.0000000E+000	0.0000000E+000	0.0000000E+000	86.5813	0.0000000E+000	0.0000000E+000	0.0000000E+000	-86.5813	0.0000000E+000	0.0000000E+000	0.0000000E+000	-3.4187	0.0000000E+000	0.0000000E+000	0.0000000E+000	3.4187	16.7396	86.5813	-0.00023288
7470.62	0.105309	0.011651	0.105952	-6.31331	1284.49	-0.00023099	-1.3105	1828.52	22.1111	2	37	0.00519326	0.0490152	0	-0.00458504	0.375081	0.246934	6.1808	8.74954e-06	8.37952e-06	7.87429e-06	5.66842e-06	6.07557e-06	3.5773e-06	0.117604	0.0589729	0.44309	3.1999e-06	5.53125e-05	4.27986e-06	1.28055e-05	6.72229e-06	2.44056e-06	9.38099	1.03788	9.43823	6.31331	22111.1	199854	201073	-83.6867	0.0000000E+000	0.0000000E+000	0.0000000E+000	83.6867	0.0000000E+000	0.0000000E+000	0.0000000E+000	-83.6867	0.0000000E+000	0.0000000E+000	0.0000000E+000	-6.31331	0.0000000E+000	0.0000000E+000	0.0000000E+000	6.31331	9.03863	83.6867	-0.000373601
1501.44	0.117229	0.00718427	0.117449	-3.50694	1293.73	-0.00024868	-1.34035	14754.7	55.2075	2	37	0.00512464	0.043633	0	-0.00798864	0.29214	0.160884	6.41359	4.59122e-06	6.23033e-06	6.0753e-06	7.39857e-06	4.05161e-06	3.48345e-06	0.0315851	0.0264676	0.507446	3.63767e-06	8.60146e-06	4.34433e-06	5.94799e-06	5.72045e-06	3.24967e-06	8.49841	0.520818	8.51435	3.50694	55207.4	900844	902534	-86.4931	0.0000000E+000	0.0000000E+000	0.0000000E+000	86.4931	0.0000000E+000	0.0000000E+000	0.0000000E+000	-86.4931	0.0000000E+000	0.0000000E+000	0.0000000E+000	-3.50694	0.0000000E+000	0.0000000E+000	0.0000000E+000	3.50694	16.3174	86.4931	-0.000539216
301.641	0.121079	0.00273952	0.12111	-1.29615	1302.8	-0.000216544	-1.30683	192599	98.5469	2	37	0.00502497	0.0414909	0	-0.0113738	0.306368	0.166533	6.48926	6.68945e-06	6.33245e-06	4.56724e-06	6.43054e-06	4.53913e-06	5.74517e-06	0.0507668	0.0260944	0.531718	2.85454e-06	1.72238e-05	3.76413e-06	8.52896e-06	4.89338e-06	3.45704e-06	8.25483	0.186773	8.25694	1.29615	98546.6	4.35549e+06	4.35661e+06	-88.7039	0.0000000E+000	0.0000000E+000	0.0000000E+000	88.7039	0.0000000E+000	0.0000000E+000	0.0000000E+000	-88.7039	0.0000000E+000	0.0000000E+000	0.0000000E+000	-1.29615	0.0000000E+000	0.0000000E+000	0.0000000E+000	1.29615	44.1972	88.7039	-0.000476861
60.6403	0.122613	0.00163936	0.122624	-0.766012	1310.53	-0.000208044	-1.28811	1.60097e+06	286.144	2	37	0.00541457	0.044156	0	-0.014389	0.338757	0.122839	5.96419	7.87102e-06	9.3445e-06	6.1142e-06	3.68624e-06	8.13725e-06	7.51121e-06	0.114338	0.061921	0.51148	5.70485e-06	3.82347e-05	5.95533e-06	2.99068e-05	5.15041e-06	7.45612e-06	8.15431	0.109025	8.15504	0.766012	286145	2.14016e+07	2.14035e+07	-89.234	0.0000000E+000	0.0000000E+000	0.0000000E+000	89.234	0.0000000E+000	0.0000000E+000	0.0000000E+000	-89.234	0.0000000E+000	0.0000000E+000	0.0000000E+000	-0.766012	0.0000000E+000	0.0000000E+000	0.0000000E+000	0.766012	74.793	89.234	-0.000464874
12.188	0.123896	0.00171133	0.123908	-0.791351	1318.24	-0.000202302	-1.25634	7.63056e+06	1455.53	2	37	0.00542416	0.0437756	0	-0.0171541	0.32269	0.14642	5.91547	7.71776e-06	5.29919e-06	7.59783e-06	4.62443e-06	7.90769e-06	7.38171e-06	0.155693	0.139412	0.478889	8.81172e-06	3.50301e-05	4.40049e-05	3.44634e-05	8.68613e-06	6.02219e-06	8.06973	0.111464	8.0705	0.791351	1.45553e+06	1.05378e+08	1.05388e+08	-89.2086	0.0000000E+000	0.0000000E+000	0.0000000E+000	89.2086	0.0000000E+000	0.0000000E+000	0.0000000E+000	-89.2086	0.0000000E+000	0.0000000E+000	0.0000000E+000	-0.791351	0.0000000E+000	0.0000000E+000	0.0000000E+000	0.791351	72.3979	89.2086	-0.000592142
2.44752	0.125472	0.00273927	0.125502	-1.25066	1330.84	-0.000212091	-1.2414	2.37388e+07	11309	2	37	0.00542616	0.0432356	0	-0.0208129	0.180618	0.0755094	2.1819	1.6201e-06	6.87439e-06	3.92238e-06	3.68133e-06	1.92326e-06	2.2126e-06	0.13938	0.0872225	0.278199	9.71557e-06	3.30345e-05	6.57157e-06	2.55212e-05	9.83536e-06	3.994e-05	7.9661	0.173913	7.96799	1.25066	1.1309e+07	5.18011e+08	5.18134e+08	-88.7493	0.0000000E+000	0.0000000E+000	0.0000000E+000	88.7493	0.0000000E+000	0.0000000E+000	0.0000000E+000	-88.7493	0.0000000E+000	0.0000000E+000	0.0000000E+000	-1.25066	0.0000000E+000	0.0000000E+000	0.0000000E+000	1.25066	45.805	88.7493	-0.000971266
0.492188	0.128236	0.00753409	0.128458	-3.36235	1381.62	-0.000205953	-1.28208	4.29198e+07	147639	2	37	0.00542509	0.0422325	0	-0.04263	0.1061	0.0756016	0.920913	1.4385e-06	4.68799e-06	8.04467e-07	2.50888e-06	9.93554e-07	5.8098e-07	0.163162	0.0892455	0.296083	4.34359e-05	4.12002e-05	9.06514e-06	2.9752e-05	9.23082e-06	4.8588e-06	7.77127	0.456574	7.78467	3.36235	1.47639e+08	2.51293e+09	2.51726e+09	-86.6376	0.0000000E+000	0.0000000E+000	0.0000000E+000	86.6376	0.0000000E+000	0.0000000E+000	0.0000000E+000	-86.6376	0.0000000E+000	0.0000000E+000	0.0000000E+000	-3.36235	0.0000000E+000	0.0000000E+000	0.0000000E+000	3.36235	17.0208	86.6376	-0.00979165
0.0988834	0.14522	0.0125937	0.145765	-4.95638	1624.6	-0.000230391	-1.43632	1.27803e+08	953989	2	37	0.00541864	0.0371737	0	-0.137559	0.10853	0.0520532	0.42507	1.43012e-06	4.58329e-06	1.64058e-06	2.46887e-06	9.00067e-07	8.05378e-07	0.140155	0.0713695	0.418465	1.7996e-05	3.08695e-05	7.14693e-06	3.38e-05	5.44657e-06	3.86765e-06	6.83469	0.592716	6.86034	4.95638	9.53989e+08	1.10006e+10	1.10419e+10	-85.0436	0.0000000E+000	0.0000000E+000	0.0000000E+000	85.0436	0.0000000E+000	0.0000000E+000	0.0000000E+000	-85.0436	0.0000000E+000	0.0000000E+000	0.0000000E+000	-4.95638	0.0000000E+000	0.0000000E+000	0.0000000E+000	4.95638	11.5311	85.0436	-0.0166038
920001	-0.0962762	-0.221631	0.241639	113.48	2518.97	-0.000130107	0.0849946	-0.780553	-0.656643	3	37	0.000712293	0.00294776	0	0.0005392	-1	-1	-1	0	0	0	0	0	0	-1	-1	-1	0	0	0	0	0	0	-1.64887	-3.79575	4.13841	-113.48	-656.643	-285.245	715.922	156.52	0.0000000E+000	0.0000000E+000	0.0000000E+000	-156.52	0.0000000E+000	0.0000000E+000	0.0000000E+000	156.52	0.0000000E+000	0.0000000E+000	0.0000000E+000	113.48	0.0000000E+000	0.0000000E+000	0.0000000E+000	-113.48	0.4344	23.4801	0.539456
184902	0.0813069	-0.0157624	0.0828207	10.9714	2527	-0.000145989	-0.602449	-54.608	-1.97798	3	37	0.00381574	0.0460723	0	-0.000907939	-1	-1	-1	0	0	0	0	0	0	-1	-1	-1	0	0	0	0	0	0	11.8536	-2.29797	12.0743	-10.9714	-1977.99	10203	10393	-100.971	0.0000000E+000	0.0000000E+000	0.0000000E+000	100.971	0.0000000E+000	0.0000000E+000	0.0000000E+000	-100.971	0.0000000E+000	0.0000000E+000	0.0000000E+000	10.9714	0.0000000E+000	0.0000000E+000	0.0000000E+000	-10.9714	5.15828	79.0286	-0.00022944
37160.4	0.0906941	0.00528822	0.0908482	-3.33704	2534.9	-0.000140583	-0.545145	809.898	2.74421	3	37	0.00519157	0.0571456	0	-0.0021703	0.332969	0.28588	6.24386	8.88894e-06	6.8372e-06	5.2473e-06	6.80423e-06	5.02063e-06	7.1515e-06	0.129505	0.0466417	0.376638	6.15482e-06	7.26831e-05	3.11505e-06	9.18398e-06	6.76293e-06	1.36059e-06	10.9887	0.640733	11.0074	3.33704	2744.2	47063.8	47143.7	-86.663	0.0000000E+000	0.0000000E+000	0.0000000E+000	86.663	0.0000000E+000	0.0000000E+000	0.0000000E+000	-86.663	0.0000000E+000	0.0000000E+000	0.0000000E+000	-3.33704	0.0000000E+000	0.0000000E+000	0.0000000E+000	3.33704	17.1502	86.663	-2.90609e-05
7470.62	0.104745	0.0116229	0.105388	-6.33184	2542.98	-0.000252763	-1.29561	1832.95	22.2944	3	37	0.00519111	0.0492572	0	-0.00380564	0.364306	0.189501	6.23125	6.44629e-06	9.85361e-06	6.39707e-06	9.62297e-06	4.76951e-06	5.12478e-06	0.108128	0.054134	0.451019	3.05686e-06	5.19762e-05	6.39264e-06	5.42725e-06	4.85081e-06	2.77301e-06	9.43088	1.04648	9.48876	6.33184	22294.4	200917	202150	-83.6682	0.0000000E+000	0.0000000E+000	0.0000000E+000	83.6682	0.0000000E+000	0.0000000E+000	0.0000000E+000	-83.6682	0.0000000E+000	0.0000000E+000	0.0000000E+000	-6.33184	0.0000000E+000	0.0000000E+000	0.0000000E+000	6.33184	9.01197	83.6682	-0.0003252
1501.44	0.116687	0.00730764	0.116915	-3.58354	2552.23	-0.000255298	-1.41647	14505.6	56.6693	3	37	0.00517281	0.0442441	0	-0.00758339	0.362562	0.183411	6.19619	5.2919e-06	6.18684e-06	8.33021e-06	8.01139e-06	9.22329e-06	3.5198e-06	0.0352975	0.0195703	0.498597	4.6383e-06	9.50154e-06	1.72062e-06	8.43876e-06	6.20388e-06	2.57568e-06	8.53649	0.534608	8.55321	3.58354	56669.3	904880	906653	-86.4165	0.0000000E+000	0.0000000E+000	0.0000000E+000	86.4165	0.0000000E+000	0.0000000E+000	0.0000000E+000	-86.4165	0.0000000E+000	0.0000000E+000	0.0000000E+000	-3.58354	0.0000000E+000	0.0000000E+000	0.0000000E+000	3.58354	15.9677	86.4165	-0.000550523
301.641	0.120721	0.00285395	0.120754	-1.35427	2561.08	-0.000246015	-1.48924	184877	103.269	3	37	0.00531371	0.0440043	0	-0.0111464	0.274993	0.129454	6.23629	5.27904e-06	6.58437e-06	6.55211e-06	5.64376e-06	5.7915e-06	4.07276e-06	0.0644907	0.0262563	0.507691	3.30947e-06	2.28321e-05	3.20404e-06	1.31577e-05	8.24078e-06	2.26351e-06	8.27896	0.195722	8.28127	1.35427	103269	4.36823e+06	4.36945e+06	-88.6457	0.0000000E+000	0.0000000E+000	0.0000000E+000	88.6457	0.0000000E+000	0.0000000E+000	0.0000000E+000	-88.6457	0.0000000E+000	0.0000000E+000	0.0000000E+000	-1.35427	0.0000000E+000	0.0000000E+000	0.0000000E+000	1.35427	42.2995	88.6457	-0.000455659
60.6403	0.122089	0.0014933	0.122098	-0.700767	2569.02	-0.000215575	-1.3935	1.75756e+06	262.9	3	37	0.00525898	0.0430719	0	-0.0143254	0.340047	0.16268	6.18447	5.81886e-06	6.2036e-06	7.09547e-06	8.94117e-06	5.73242e-06	5.72261e-06	0.103747	0.0411323	0.53075	6.5049e-06	3.22232e-05	4.36738e-06	2.84134e-05	7.29721e-06	4.18785e-06	8.18955	0.100169	8.19016	0.700767	262900	2.14941e+07	2.14957e+07	-89.2992	0.0000000E+000	0.0000000E+000	0.0000000E+000	89.2992	0.0000000E+000	0.0000000E+000	0.0000000E+000	-89.2992	0.0000000E+000	0.0000000E+000	0.0000000E+000	-0.700767	0.0000000E+000	0.0000000E+000	0.0000000E+000	0.700767	81.7575	89.2992	-0.000419325
12.188	0.123381	0.00184561	0.123394	-0.857004	2576.74	-0.000218781	-1.30875	7.07538e+06	1582.84	3	37	0.00527183	0.0427234	0	-0.0171184	0.327783	0.18006	6.12593	7.32947e-06	7.34914e-06	5.61373e-06	5.0091e-06	5.4102e-06	6.72932e-06	0.159174	0.159002	0.494912	1.75097e-05	3.22192e-05	4.51319e-05	3.19222e-05	8.82157e-06	3.79987e-06	8.10319	0.121213	8.10409	0.857004	1.58284e+06	1.05814e+08	1.05826e+08	-89.143	0.0000000E+000	0.0000000E+000	0.0000000E+000	89.143	0.0000000E+000	0.0000000E+000	0.0000000E+000	-89.143	0.0000000E+000	0.0000000E+000	0.0000000E+000	-0.857004	0.0000000E+000	0.0000000E+000	0.0000000E+000	0.857004	66.8509	89.143	-0.000619157
2.44752	0.124967	0.00259542	0.124994	-1.1898	2589.34	-0.000216797	-1.36583	2.50545e+07	10802.4	3	37	0.00527191	0.0421773	0	-0.0211981	0.147282	0.100274	2.22988	2.27038e-06	5.12718e-06	2.74253e-06	1.34627e-06	2.12605e-06	3.23086e-06	0.1544	0.0837188	0.291525	1.6437e-05	3.99162e-05	6.02752e-06	3.10079e-05	9.82411e-06	3.4597e-05	7.99865	0.166123	8.00037	1.1898	1.08025e+07	5.20128e+08	5.2024e+08	-88.8102	0.0000000E+000	0.0000000E+000	0.0000000E+000	88.8102	0.0000000E+000	0.0000000E+000	0.0000000E+000	-88.8102	0.0000000E+000	0.0000000E+000	0.0000000E+000	-1.1898	0.0000000E+000	0.0000000E+000	0.0000000E+000	1.1898	48.1491	88.8102	-0.00106474
0.492188	0.127633	0.00739269	0.127847	-3.31494	2640.12	-0.000228972	-1.377	4.37408e+07	146254	3	37	0.00527139	0.041232	0	-0.0440382	0.114963	0.0259205	0.948245	2.20934e-06	4.53236e-06	8.76155e-07	2.67875e-06	9.44288e-07	1.07936e-06	0.167404	0.125165	0.301399	4.35167e-05	3.8515e-05	1.72687e-05	2.87691e-05	9.42589e-06	4.22207e-06	7.80874	0.452292	7.82183	3.31494	1.46254e+08	2.52505e+09	2.52928e+09	-86.6851	0.0000000E+000	0.0000000E+000	0.0000000E+000	86.6851	0.0000000E+000	0.0000000E+000	0.0000000E+000	-86.6851	0.0000000E+000	0.0000000E+000	0.0000000E+000	-3.31494	0.0000000E+000	0.0000000E+000	0.0000000E+000	3.31494	17.2648	86.6851	-0.00641106
0.0988834	0.144614	0.01252	0.145155	-4.94806	2883.11	-0.000224904	-1.4361	1.28557e+08	956397	3	37	0.00526152	0.0362477	0	-0.120105	0.124263	0.0981544	0.44336	2.02035e-06	4.35641e-06	1.69974e-06	2.69635e-06	1.94179e-06	9.09596e-07	0.142382	0.107993	0.417154	1.33162e-05	2.43704e-05	9.00856e-06	3.93056e-05	1.04419e-05	5.55053e-06	6.86353	0.594212	6.88921	4.94806	9.56398e+08	1.1047e+10	1.10883e+10	-85.0519	0.0000000E+000	0.0000000E+000	0.0000000E+000	85.0519	0.0000000E+000	0.0000000E+000	0.0000000E+000	-85.0519	0.0000000E+000	0.0000000E+000	0.0000000E+000	-4.94806	0.0000000E+000	0.0000000E+000	0.0000000E+000	4.94806	11.5507	85.0519	-0.0110375
920001	-0.094637	-0.219299	0.238848	113.342	3777.47	-0.000123956	-1.13451	-0.788851	-0.665007	4	37	0.000705707	0.00295463	0	-0.000984047	-1	-1	-1	0	0	0	0	0	0	-1	-1	-1	0	0	0	0	0	0	-1.65889	-3.8441	4.18677	-113.342	-665.007	-286.979	724.287	156.658	0.0000000E+000	0.0000000E+000	0.0000000E+000	-156.658	0.0000000E+000	0.0000000E+000	0.0000000E+000	156.658	0.0000000E+000	0.0000000E+000	0.0000000E+000	113.342	0.0000000E+000	0.0000000E+000	0.0000000E+000	-113.342	0.431543	23.3423	0.512541
184902	0.0812253	-0.015797	0.0827472	11.0057	3785.5	-0.000118718	-0.509262	-54.4883	-1.98585	4	37	0.00381336	0.0460845	0	-0.00230084	-1	-1	-1	0	0	0	0	0	0	-1	-1	-1	0	0	0	0	0	0	11.8627	-2.30711	12.085	-11.0057	-1985.85	10210.9	10402.2	-101.006	0.0000000E+000	0.0000000E+000	0.0000000E+000	101.006	0.0000000E+000	0.0000000E+000	0.0000000E+000	-101.006	0.0000000E+000	0.0000000E+000	0.0000000E+000	11.0057	0.0000000E+000	0.0000000E+000	0.0000000E+000	-11.0057	5.14182	78.9943	-0.000115821
37160.4	0.0903549	0.00515442	0.0905018	-3.26498	3793.4	-0.00013048	-0.365025	830.921	2.69529	4	37	0.0051949	0.0574011	0	-0.00341546	0.343582	0.234879	6.28971	5.92355e-06	5.37431e-06	8.01637e-06	5.18622e-06	9.42925e-06	6.80474e-06	0.130849	0.0428846	0.387777	5.7644e-06	7.40332e-05	1.93309e-06	9.1007e-06	5.55533e-06	1.76712e-06	11.0316	0.629312	11.0495	3.26498	2695.29	47247.3	47324.1	-86.735	0.0000000E+000	0.0000000E+000	0.0000000E+000	86.735	0.0000000E+000	0.0000000E+000	0.0000000E+000	-86.735	0.0000000E+000	0.0000000E+000	0.0000000E+000	-3.26498	0.0000000E+000	0.0000000E+000	0.0000000E+000	3.26498	17.5296	86.735	-0.000219109
7470.62	0.104404	0.0117249	0.10506	-6.40763	3801.48	-0.000253751	-1.30644	1817.01	22.6305	4	37	0.00518928	0.0493933	0	-0.00498601	0.293923	0.166031	6.31588	5.78054e-06	5.92711e-06	4.84004e-06	7.47093e-06	5.4626e-06	5.78893e-06	0.116259	0.0570788	0.450901	2.69772e-06	5.51014e-05	5.57867e-06	1.2745e-05	4.10195e-06	3.17499e-06	9.45888	1.06226	9.51834	6.40763	22630.5	201513	202780	-83.5924	0.0000000E+000	0.0000000E+000	0.0000000E+000	83.5924	0.0000000E+000	0.0000000E+000	0.0000000E+000	-83.5924	0.0000000E+000	0.0000000E+000	0.0000000E+000	-6.40763	0.0000000E+000	0.0000000E+000	0.0000000E+000	6.40763	8.9045	83.5924	-0.000518163
1501.44	0.116528	0.0073862	0.116761	-3.62689	3810.73	-0.000261561	-1.33514	14351.3	57.4294	4	37	0.0051055	0.043726	0	-0.00814144	0.364357	0.152345	6.3588	5.79566e-06	7.128e-06	1.15155e-05	4.79484e-06	5.72265e-06	6.67276e-06	0.0362231	0.0248547	0.49961	5.23711e-06	1.09251e-05	5.02007e-06	5.68425e-06	5.19703e-06	2.32922e-06	8.54732	0.541779	8.56447	3.62689	57429.4	906028	907847	-86.3731	0.0000000E+000	0.0000000E+000	0.0000000E+000	86.3731	0.0000000E+000	0.0000000E+000	0.0000000E+000	-86.3731	0.0000000E+000	0.0000000E+000	0.0000000E+000	-3.62689	0.0000000E+000	0.0000000E+000	0.0000000E+000	3.62689	15.7764	86.3731	-0.000488008
301.641	0.120412	0.0029358	0.120447	-1.39667	3819.8	-0.000225119	-1.34472	179723	106.773	4	37	0.00502106	0.0416868	0	-0.011544	0.311125	0.220326	6.34917	5.24401e-06	6.05617e-06	5.31785e-06	8.02843e-06	4.58266e-06	4.58055e-06	0.0649801	0.0293449	0.527485	7.25223e-06	2.04398e-05	4.65629e-06	1.35881e-05	5.01942e-06	4.1213e-06	8.29992	0.202363	8.30238	1.39667	106773	4.37928e+06	4.38058e+06	-88.6033	0.0000000E+000	0.0000000E+000	0.0000000E+000	88.6033	0.0000000E+000	0.0000000E+000	0.0000000E+000	-88.6033	0.0000000E+000	0.0000000E+000	0.0000000E+000	-1.39667	0.0000000E+000	0.0000000E+000	0.0000000E+000	1.39667	41.0149	88.6033	-0.000504957
60.6403	0.12193	0.00166091	0.121942	-0.780425	3827.52	-0.000213934	-1.2609	1.5802e+06	293.158	4	37	0.00541816	0.0444324	0	-0.0141992	0.350469	0.153288	6.02857	7.21999e-06	8.07497e-06	1.0857e-05	3.52435e-06	4.3073e-06	6.20842e-06	0.110103	0.0337299	0.490458	5.40131e-06	3.65745e-05	4.08189e-06	3.02346e-05	7.96333e-06	2.7885e-06	8.19989	0.111698	8.20065	0.780425	293158	2.15212e+07	2.15232e+07	-89.2196	0.0000000E+000	0.0000000E+000	0.0000000E+000	89.2196	0.0000000E+000	0.0000000E+000	0.0000000E+000	-89.2196	0.0000000E+000	0.0000000E+000	0.0000000E+000	-0.780425	0.0000000E+000	0.0000000E+000	0.0000000E+000	0.780425	73.4116	89.2196	-0.000337738
12.188	0.123223	0.00178198	0.123236	-0.828519	3835.24	-0.000216618	-1.34037	7.328e+06	1532.2	4	37	0.00542545	0.0440247	0	-0.0170692	0.356019	0.180985	6.10253	7.52753e-06	1.25693e-05	8.43488e-06	3.86173e-06	3.60276e-06	3.73382e-06	0.156518	0.113411	0.477709	8.63842e-06	4.25753e-05	3.98507e-05	3.4085e-05	6.99568e-06	3.9632e-06	8.11364	0.117334	8.11449	0.828519	1.5322e+06	1.05951e+08	1.05962e+08	-89.1715	0.0000000E+000	0.0000000E+000	0.0000000E+000	89.1715	0.0000000E+000	0.0000000E+000	0.0000000E+000	-89.1715	0.0000000E+000	0.0000000E+000	0.0000000E+000	-0.828519	0.0000000E+000	0.0000000E+000	0.0000000E+000	0.828519	69.1497	89.1715	-9.0922e-05
2.44752	0.124692	0.00263057	0.12472	-1.20857	3847.84	-0.000217521	-1.33445	2.47197e+07	10997	4	37	0.00542798	0.0435215	0	-0.0224102	0.170965	0.111353	2.16832	4.77809e-06	5.12436e-06	2.67642e-06	3.36083e-06	1.96361e-06	1.99246e-06	0.157225	0.093525	0.282647	2.45242e-05	4.19485e-05	7.78092e-06	2.53664e-05	1.01241e-05	3.72678e-05	8.01621	0.169115	8.01799	1.20857	1.0997e+07	5.21269e+08	5.21385e+08	-88.7914	0.0000000E+000	0.0000000E+000	0.0000000E+000	88.7914	0.0000000E+000	0.0000000E+000	0.0000000E+000	-88.7914	0.0000000E+000	0.0000000E+000	0.0000000E+000	-1.20857	0.0000000E+000	0.0000000E+000	0.0000000E+000	1.20857	47.401	88.7914	-0.00106923
0.492188	0.127351	0.00733689	0.127563	-3.29725	3898.61	-0.000224109	-1.43055	4.40734e+07	145799	4	37	0.00542595	0.0425356	0	-0.0359698	0.125427	0.0647686	0.935859	2.14727e-06	3.89627e-06	1.07517e-06	4.09116e-06	1.42903e-06	6.87678e-07	0.1587	0.0842379	0.307113	3.84211e-05	3.95409e-05	9.5051e-06	3.19509e-05	1.10769e-05	7.54874e-06	7.82631	0.450885	7.83929	3.29725	1.45799e+08	2.53073e+09	2.53493e+09	-86.7028	0.0000000E+000	0.0000000E+000	0.0000000E+000	86.7028	0.0000000E+000	0.0000000E+000	0.0000000E+000	-86.7028	0.0000000E+000	0.0000000E+000	0.0000000E+000	-3.29725	0.0000000E+000	0.0000000E+000	0.0000000E+000	3.29725	17.3577	86.7028	-0.000252243
0.0988834	0.14419	0.0125713	0.144737	-4.98279	4141.6	-0.000189506	-1.26489	1.28031e+08	965872	4	37	0.00541853	0.0374371	0	-0.13235	0.114448	0.0897598	0.432132	1.3685e-06	5.2297e-06	9.41243e-07	2.33049e-06	9.13273e-07	8.41597e-07	0.135371	0.106908	0.410921	6.34016e-06	3.89232e-05	9.26906e-06	2.78998e-05	5.39571e-06	5.13382e-06	6.88297	0.600098	6.90908	4.98279	9.65872e+08	1.10783e+10	1.11203e+10	-85.0172	0.0000000E+000	0.0000000E+000	0.0000000E+000	85.0172	0.0000000E+000	0.0000000E+000	0.0000000E+000	-85.0172	0.0000000E+000	0.0000000E+000	0.0000000E+000	-4.98279	0.0000000E+000	0.0000000E+000	0.0000000E+000	4.98279	11.4697	85.0172	-0.0330975
920001	-0.0952122	-0.220499	0.240178	113.355	5035.96	-0.000110478	-0.677937	-0.784558	-0.661263	5	37	0.000708068	0.0029481	0	-0.000543151	-1	-1	-1	0	0	0	0	0	0	-1	-1	-1	0	0	0	0	0	0	-1.65055	-3.82245	4.16359	-113.355	-661.263	-285.535	720.277	156.645	0.0000000E+000	0.0000000E+000	0.0000000E+000	-156.645	0.0000000E+000	0.0000000E+000	0.0000000E+000	156.645	0.0000000E+000	0.0000000E+000	0.0000000E+000	113.355	0.0000000E+000	0.0000000E+000	0.0000000E+000	-113.355	0.431803	23.3548	0.408698
184902	0.0809836	-0.0158387	0.0825179	11.0662	5043.99	-9.63114e-05	-0.511458	-54.345	-2.00217	5	37	0.00380096	0.0460622	0	-0.00165334	-1	-1	-1	0	0	0	0	0	0	-1	-1	-1	0	0	0	0	0	0	11.8932	-2.32607	12.1186	-11.0662	-2002.17	10237.1	10431.1	-101.066	0.0000000E+000	0.0000000E+000	0.0000000E+000	101.066	0.0000000E+000	0.0000000E+000	0.0000000E+000	-101.066	0.0000000E+000	0.0000000E+000	0.0000000E+000	11.0662	0.0000000E+000	0.0000000E+000	0.0000000E+000	-11.0662	5.11303	78.9338	-0.000177705
37160.4	0.0901184	0.00514936	0.0902654	-3.27032	5051.89	-0.000114449	-0.635856	831.739	2.70676	5	37	0.00520045	0.0576129	0	-0.00330801	0.400514	0.158828	6.25194	6.56215e-06	1.33208e-05	5.28757e-06	5.27497e-06	7.92228e-06	7.68782e-06	0.128226	0.0400942	0.379029	4.75485e-06	7.2977e-05	5.47588e-06	8.08949e-06	1.50281e-06	2.55395e-06	11.0604	0.63199	11.0784	3.27032	2706.76	47370.8	47448.1	-86.7297	0.0000000E+000	0.0000000E+000	0.0000000E+000	86.7297	0.0000000E+000	0.0000000E+000	0.0000000E+000	-86.7297	0.0000000E+000	0.0000000E+000	0.0000000E+000	-3.27032	0.0000000E+000	0.0000000E+000	0.0000000E+000	3.27032	17.5009	86.7297	-0.000344327
7470.62	0.104083	0.0117125	0.10474	-6.4205	5059.97	-0.000223143	-1.4263	1818.93	22.7452	5	37	0.00519674	0.0496158	0	-0.00520166	0.377662	0.139077	6.27907	7.29331e-06	8.08254e-06	9.94805e-06	4.31191e-06	4.96341e-06	8.40833e-06	0.111963	0.0566788	0.445095	6.41252e-06	5.31163e-05	4.08669e-06	1.29688e-05	3.39243e-06	4.37556e-06	9.4876	1.06764	9.54748	6.4205	22745.2	202125	203401	-83.5795	0.0000000E+000	0.0000000E+000	0.0000000E+000	83.5795	0.0000000E+000	0.0000000E+000	0.0000000E+000	-83.5795	0.0000000E+000	0.0000000E+000	0.0000000E+000	-6.4205	0.0000000E+000	0.0000000E+000	0.0000000E+000	6.4205	8.8865	83.5795	-0.00048768
1501.44	0.116397	0.00748052	0.116637	-3.67718	5069.22	-0.000238074	-1.40234	14170.3	58.2866	5	37	0.00510078	0.043732	0	-0.00892984	0.281863	0.197244	6.50133	4.55873e-06	6.42912e-06	5.20399e-06	6.16908e-06	3.96471e-06	6.21253e-06	0.0371052	0.0216244	0.507624	5.07226e-06	9.7528e-06	5.66514e-06	5.87044e-06	4.67969e-06	4.59309e-06	8.55593	0.549866	8.57358	3.67718	58286.6	906941	908812	-86.3228	0.0000000E+000	0.0000000E+000	0.0000000E+000	86.3228	0.0000000E+000	0.0000000E+000	0.0000000E+000	-86.3228	0.0000000E+000	0.0000000E+000	0.0000000E+000	-3.67718	0.0000000E+000	0.0000000E+000	0.0000000E+000	3.67718	15.56	86.3228	-0.000473548
301.641	0.120511	0.00284924	0.120545	-1.35439	5078.07	-0.000208212	-1.42674	185182	103.458	5	37	0.00531458	0.0440881	0	-0.0122556	0.266647	0.161189	6.12231	6.23452e-06	6.75717e-06	2.99983e-06	5.53991e-06	4.95912e-06	5.65085e-06	0.0615144	0.0504944	0.500069	4.39308e-06	2.07715e-05	3.9266e-06	1.35868e-05	6.69785e-06	3.96003e-06	8.29337	0.196081	8.29569	1.35439	103458	4.37583e+06	4.37705e+06	-88.6456	0.0000000E+000	0.0000000E+000	0.0000000E+000	88.6456	0.0000000E+000	0.0000000E+000	0.0000000E+000	-88.6456	0.0000000E+000	0.0000000E+000	0.0000000E+000	-1.35439	0.0000000E+000	0.0000000E+000	0.0000000E+000	1.35439	42.2957	88.6456	-0.000430767
60.6403	0.121768	0.00154865	0.121778	-0.728653	5086.02	-0.000219526	-1.48954	1.69475e+06	274.08	5	37	0.00525834	0.0431798	0	-0.0154391	0.336368	0.192111	6.25031	7.97993e-06	8.81233e-06	3.42419e-06	6.38186e-06	6.52631e-06	5.91599e-06	0.106841	0.0650006	0.51908	3.81356e-06	3.40241e-05	6.93192e-06	2.82961e-05	6.97539e-06	6.0683e-06	8.21102	0.104428	8.21169	0.728653	274080	2.15504e+07	2.15522e+07	-89.2713	0.0000000E+000	0.0000000E+000	0.0000000E+000	89.2713	0.0000000E+000	0.0000000E+000	0.0000000E+000	-89.2713	0.0000000E+000	0.0000000E+000	0.0000000E+000	-0.728653	0.0000000E+000	0.0000000E+000	0.0000000E+000	0.728653	78.6282	89.2713	-0.000453637
12.188	0.12319	0.00170305	0.123202	-0.792036	5093.74	-0.000221465	-1.55786	7.66765e+06	1465.14	5	37	0.00527737	0.0428351	0	-0.018568	0.314974	0.181555	6.27424	3.7196e-06	6.7637e-06	5.44768e-06	7.85167e-06	6.57323e-06	6.52545e-06	0.156832	0.132301	0.488988	1.62519e-05	3.75097e-05	4.30874e-05	2.65725e-05	2.09954e-06	9.03098e-06	8.11597	0.112199	8.11674	0.792036	1.46514e+06	1.05981e+08	1.05991e+08	-89.208	0.0000000E+000	0.0000000E+000	0.0000000E+000	89.208	0.0000000E+000	0.0000000E+000	0.0000000E+000	-89.208	0.0000000E+000	0.0000000E+000	0.0000000E+000	-0.792036	0.0000000E+000	0.0000000E+000	0.0000000E+000	0.792036	72.3352	89.208	-0.000705416
2.44752	0.124549	0.00259904	0.124576	-1.19545	5106.33	-0.00021787	-1.53265	2.50196e+07	10890.2	5	37	0.00527098	0.0423112	0	-0.0232354	0.149505	0.110101	2.21896	1.71366e-06	4.28337e-06	3.23276e-06	3.10124e-06	1.86727e-06	2.33834e-06	0.150685	0.0714999	0.284405	1.1412e-05	3.44214e-05	8.73381e-06	3.34262e-05	1.26487e-05	3.66618e-05	8.02545	0.167471	8.0272	1.19545	1.08902e+07	5.2187e+08	5.21984e+08	-88.8046	0.0000000E+000	0.0000000E+000	0.0000000E+000	88.8046	0.0000000E+000	0.0000000E+000	0.0000000E+000	-88.8046	0.0000000E+000	0.0000000E+000	0.0000000E+000	-1.19545	0.0000000E+000	0.0000000E+000	0.0000000E+000	1.19545	47.9213	88.8046	-0.00121567
0.492188	0.127111	0.00726708	0.127319	-3.2721	5157.11	-0.000224296	-1.59987	4.44968e+07	144965	5	37	0.00526935	0.041387	0	-0.04852	0.112517	0.0783644	0.9609	2.33701e-06	3.78111e-06	1.10177e-06	3.25477e-06	5.59928e-07	1.35516e-06	0.136594	0.105766	0.334092	2.73158e-05	3.23298e-05	1.69109e-05	2.67396e-05	1.01593e-05	5.66746e-06	7.84149	0.448306	7.8543	3.2721	1.44965e+08	2.53564e+09	2.53978e+09	-86.7279	0.0000000E+000	0.0000000E+000	0.0000000E+000	86.7279	0.0000000E+000	0.0000000E+000	0.0000000E+000	-86.7279	0.0000000E+000	0.0000000E+000	0.0000000E+000	-3.2721	0.0000000E+000	0.0000000E+000	0.0000000E+000	3.2721	17.4914	86.7279	-0.00793754
0.0988834	0.14391	0.0123075	0.144436	-4.88817	5400.09	-0.0002182	-1.35997	1.30775e+08	949552	5	37	0.00526391	0.0364447	0	-0.128657	0.0978344	0.116533	0.444295	1.90531e-06	3.07722e-06	8.50806e-07	2.67591e-06	5.15134e-07	1.41478e-06	0.133726	0.108397	0.403747	1.31638e-05	2.86261e-05	9.93963e-06	3.32262e-05	5.41333e-06	3.97319e-06	6.89831	0.589959	6.92349	4.88817	9.49552e+08	1.1103e+10	1.11435e+10	-85.1118	0.0000000E+000	0.0000000E+000	0.0000000E+000	85.1118	0.0000000E+000	0.0000000E+000	0.0000000E+000	-85.1118	0.0000000E+000	0.0000000E+000	0.0000000E+000	-4.88817	0.0000000E+000	0.0000000E+000	0.0000000E+000	4.88817	11.6929	85.1118	-0.00962799
920001	-0.0950702	-0.219055	0.238796	113.461	6294.46	-0.000120172	-1.09866	-0.789731	-0.664557	6	37	0.000704846	0.00295167	0	-0.000839808	-1	-1	-1	0	0	0	0	0	0	-1	-1	-1	0	0	0	0	0	0	-1.66721	-3.84149	4.18768	-113.461	-664.557	-288.419	724.445	156.539	0.0000000E+000	0.0000000E+000	0.0000000E+000	-156.539	0.0000000E+000	0.0000000E+000	0.0000000E+000	156.539	0.0000000E+000	0.0000000E+000	0.0000000E+000	113.461	0.0000000E+000	0.0000000E+000	0.0000000E+000	-113.461	0.434002	23.4609	0.541227
184902	0.0807083	-0.0157558	0.0822319	11.0463	6302.49	-0.000129939	-0.629323	-54.6308	-2.00558	6	37	0.00378896	0.0460766	0	-0.00227609	-1	-1	-1	0	0	0	0	0	0	-1	-1	-1	0	0	0	0	0	0	11.9354	-2.33003	12.1607	-11.0463	-2005.58	10273.5	10467.4	-101.046	0.0000000E+000	0.0000000E+000	0.0000000E+000	101.046	0.0000000E+000	0.0000000E+000	0.0000000E+000	-101.046	0.0000000E+000	0.0000000E+000	0.0000000E+000	11.0463	0.0000000E+000	0.0000000E+000	0.0000000E+000	-11.0463	5.12245	78.9537	-0.000238629
37160.4	0.0899411	0.0051384	0.0900878	-3.26979	6310.39	-0.00012636	-0.586443	833.512	2.71166	6	37	0.00519351	0.0576495	0	-0.00318375	0.351931	0.233519	6.2456	9.12772e-06	7.68349e-06	2.08108e-06	7.65045e-06	8.49369e-06	3.06904e-06	0.129033	0.0423565	0.377654	6.31006e-06	7.31552e-05	2.62732e-06	1.06048e-05	4.42574e-06	1.4194e-06	11.0822	0.633135	11.1003	3.26979	2711.66	47464.2	47541.6	-86.7302	0.0000000E+000	0.0000000E+000	0.0000000E+000	86.7302	0.0000000E+000	0.0000000E+000	0.0000000E+000	-86.7302	0.0000000E+000	0.0000000E+000	0.0000000E+000	-3.26979	0.0000000E+000	0.0000000E+000	0.0000000E+000	3.26979	17.5037	86.7302	-0.000179399
7470.62	0.103982	0.0118179	0.104651	-6.48408	6318.47	-0.000241933	-1.4442	1802.69	22.9889	6	37	0.00520591	0.0497455	0	-0.00499809	0.311631	0.175896	6.19861	3.75243e-06	8.35548e-06	6.15397e-06	6.06075e-06	6.4196e-06	5.06429e-06	0.111468	0.0654726	0.445559	3.58838e-06	5.34619e-05	4.78258e-06	1.05783e-05	5.31155e-06	5.27473e-06	9.49445	1.07908	9.55557	6.48408	22988.9	202271	203573	-83.5159	0.0000000E+000	0.0000000E+000	0.0000000E+000	83.5159	0.0000000E+000	0.0000000E+000	0.0000000E+000	-83.5159	0.0000000E+000	0.0000000E+000	0.0000000E+000	-6.48408	0.0000000E+000	0.0000000E+000	0.0000000E+000	6.48408	8.79862	83.5159	-0.000384838
1501.44	0.116314	0.00748064	0.116554	-3.67988	6327.72	-0.000248774	-1.47269	14170.1	58.371	6	37	0.00510053	0.0437612	0	-0.00893516	0.348047	0.316206	6.36143	9.5533e-06	7.43886e-06	5.49806e-06	7.72095e-06	5.1375e-06	5.23072e-06	0.0363957	0.0164966	0.508025	3.46675e-06	1.09277e-05	3.75732e-06	7.50258e-06	5.67482e-06	2.20452e-06	8.56204	0.550662	8.57973	3.67988	58371	907588	909463	-86.3201	0.0000000E+000	0.0000000E+000	0.0000000E+000	86.3201	0.0000000E+000	0.0000000E+000	0.0000000E+000	-86.3201	0.0000000E+000	0.0000000E+000	0.0000000E+000	-3.67988	0.0000000E+000	0.0000000E+000	0.0000000E+000	3.67988	15.5486	86.3201	-0.000567799
301.641	0.12035	0.00287094	0.120384	-1.36653	6336.79	-0.00022057	-1.45552	183783	104.524	6	37	0.00502397	0.0417329	0	-0.0127376	0.300412	0.158734	6.51281	6.35665e-06	4.09407e-06	6.4537e-06	5.32403e-06	3.64766e-06	7.0881e-06	0.0707944	0.0417439	0.543201	4.03617e-06	2.47837e-05	3.57197e-06	1.21779e-05	6.54165e-06	4.75996e-06	8.30439	0.198101	8.30675	1.36653	104524	4.38164e+06	4.38289e+06	-88.6335	0.0000000E+000	0.0000000E+000	0.0000000E+000	88.6335	0.0000000E+000	0.0000000E+000	0.0000000E+000	-88.6335	0.0000000E+000	0.0000000E+000	0.0000000E+000	-1.36653	0.0000000E+000	0.0000000E+000	0.0000000E+000	1.36653	41.9199	88.6335	-0.000545843
60.6403	0.121705	0.00166636	0.121716	-0.784434	6344.51	-0.000224783	-1.57312	1.57504e+06	295.21	6	37	0.00540975	0.0444457	0	-0.0158872	0.280222	0.186666	5.92373	6.51927e-06	7.01775e-06	5.14632e-06	5.76979e-06	4.9598e-06	4.70015e-06	0.107316	0.0249709	0.499495	7.34851e-06	3.54315e-05	5.64788e-06	2.82813e-05	8.10942e-06	4.39513e-06	8.21508	0.112479	8.21585	0.784434	295209	2.15611e+07	2.15631e+07	-89.2156	0.0000000E+000	0.0000000E+000	0.0000000E+000	89.2156	0.0000000E+000	0.0000000E+000	0.0000000E+000	-89.2156	0.0000000E+000	0.0000000E+000	0.0000000E+000	-0.784434	0.0000000E+000	0.0000000E+000	0.0000000E+000	0.784434	73.0364	89.2156	-0.000429696
12.188	0.12302	0.00154709	0.12303	-0.720509	6352.23	-0.000204949	-1.46205	8.4406e+06	1334.7	6	37	0.00542547	0.0440988	0	-0.0189462	0.310867	0.121819	5.95914	6.34076e-06	5.98714e-06	4.53072e-06	8.36508e-06	7.32418e-06	6.25215e-06	0.148351	0.103816	0.478292	1.42242e-05	3.53368e-05	4.01098e-05	3.1587e-05	1.04097e-05	3.89563e-06	8.12747	0.10221	8.12811	0.720509	1.33471e+06	1.06132e+08	1.0614e+08	-89.2795	0.0000000E+000	0.0000000E+000	0.0000000E+000	89.2795	0.0000000E+000	0.0000000E+000	0.0000000E+000	-89.2795	0.0000000E+000	0.0000000E+000	0.0000000E+000	-0.720509	0.0000000E+000	0.0000000E+000	0.0000000E+000	0.720509	79.517	89.2795	-0.000660435
2.44752	0.12461	0.00251091	0.124635	-1.15437	6364.82	-0.00022433	-1.48628	2.58977e+07	10511	6	37	0.00542914	0.0435603	0	-0.0235657	0.144652	0.105138	2.14332	9.22482e-07	6.52475e-06	1.5419e-06	1.71782e-06	1.64786e-06	2.69126e-06	0.153315	0.0964072	0.281309	2.2215e-05	3.25137e-05	9.78153e-06	3.40107e-05	1.40565e-05	3.62704e-05	8.02179	0.161641	8.02342	1.15437	1.0511e+07	5.21633e+08	5.21739e+08	-88.8456	0.0000000E+000	0.0000000E+000	0.0000000E+000	88.8456	0.0000000E+000	0.0000000E+000	0.0000000E+000	-88.8456	0.0000000E+000	0.0000000E+000	0.0000000E+000	-1.15437	0.0000000E+000	0.0000000E+000	0.0000000E+000	1.15437	49.6273	88.8456	-0.00117968
0.492188	0.127146	0.00722681	0.127351	-3.25312	6415.6	-0.000236071	-1.57838	4.47448e+07	144089	6	37	0.00542589	0.0426058	0	-0.0484435	0.123015	0.118851	0.924074	1.51485e-06	4.80433e-06	1.32113e-06	3.28637e-06	1.34051e-06	1.33359e-06	0.168845	0.150633	0.303963	4.40327e-05	4.01511e-05	1.65995e-05	2.7771e-05	1.25074e-05	8.27521e-06	7.83965	0.445596	7.85231	3.25312	1.44089e+08	2.53504e+09	2.53914e+09	-86.7469	0.0000000E+000	0.0000000E+000	0.0000000E+000	86.7469	0.0000000E+000	0.0000000E+000	0.0000000E+000	-86.7469	0.0000000E+000	0.0000000E+000	0.0000000E+000	-3.25312	0.0000000E+000	0.0000000E+000	0.0000000E+000	3.25312	17.5936	86.7469	-0.0072429
0.0988834	0.14385	0.0123501	0.144379	-4.90704	6658.58	-0.00022184	-1.439	1.30325e+08	953582	6	37	0.00541855	0.03753	0	-0.135371	0.130104	0.114007	0.430102	2.17963e-06	5.38818e-06	1.41356e-06	3.08495e-06	1.16183e-06	7.68539e-07	0.14655	0.106721	0.400893	1.29199e-05	3.3786e-05	7.30946e-06	3.93571e-05	8.19811e-06	2.66711e-06	6.90083	0.592463	6.92621	4.90704	9.53583e+08	1.1107e+10	1.11479e+10	-85.093	0.0000000E+000	0.0000000E+000	0.0000000E+000	85.093	0.0000000E+000	0.0000000E+000	0.0000000E+000	-85.093	0.0000000E+000	0.0000000E+000	0.0000000E+000	-4.90704	0.0000000E+000	0.0000000E+000	0.0000000E+000	4.90704	11.6477	85.093	-0.012064
920001	-0.096909	-0.221042	0.241352	113.674	7552.95	-0.000121719	-1.34623	-0.782632	-0.656454	7	37	0.000711948	0.00294983	0	-0.0011171	-1	-1	-1	0	0	0	0	0	0	-1	-1	-1	0	0	0	0	0	0	-1.66365	-3.79465	4.14332	-113.674	-656.454	-287.802	716.772	156.326	0.0000000E+000	0.0000000E+000	0.0000000E+000	-156.326	0.0000000E+000	0.0000000E+000	0.0000000E+000	156.326	0.0000000E+000	0.0000000E+000	0.0000000E+000	113.674	0.0000000E+000	0.0000000E+000	0.0000000E+000	-113.674	0.438419	23.6736	0.534459
184902	0.0807092	-0.0159339	0.082267	11.1679	7560.98	-0.000144032	-0.769522	-54.0202	-2.02651	7	37	0.00379114	0.0460834	0	-0.00311908	-1	-1	-1	0	0	0	0	0	0	-1	-1	-1	0	0	0	0	0	0	11.9254	-2.35435	12.1555	-11.1679	-2026.51	10264.8	10462.9	-101.168	0.0000000E+000	0.0000000E+000	0.0000000E+000	101.168	0.0000000E+000	0.0000000E+000	0.0000000E+000	-101.168	0.0000000E+000	0.0000000E+000	0.0000000E+000	11.1679	0.0000000E+000	0.0000000E+000	0.0000000E+000	-11.1679	5.06524	78.8321	-0.000330164
37160.4	0.0899409	0.00521075	0.0900918	-3.31574	7568.88	-0.000140266	-0.695337	821.938	2.7496	7	37	0.00520497	0.0577741	0	-0.00465867	0.300119	0.135535	6.3475	4.98042e-06	5.09117e-06	6.84564e-06	2.80187e-06	6.89396e-06	7.57168e-06	0.130277	0.0406261	0.376909	7.26583e-06	7.40663e-05	5.8278e-06	7.05403e-06	3.76853e-06	3.41176e-06	11.0812	0.641993	11.0998	3.31574	2749.61	47459.9	47539.5	-86.6843	0.0000000E+000	0.0000000E+000	0.0000000E+000	86.6843	0.0000000E+000	0.0000000E+000	0.0000000E+000	-86.6843	0.0000000E+000	0.0000000E+000	0.0000000E+000	-3.31574	0.0000000E+000	0.0000000E+000	0.0000000E+000	3.31574	17.2606	86.6843	-0.000256776
7470.62	0.103727	0.0119283	0.10441	-6.56003	7576.96	-0.00026501	-1.60234	1786.02	23.3106	7	37	0.00518259	0.0496367	0	-0.00704995	0.366152	0.192069	6.30517	5.65485e-06	8.436e-06	5.7362e-06	6.1159e-06	8.83704e-06	7.44009e-06	0.113148	0.0563494	0.450541	3.24854e-06	5.37349e-05	8.77822e-06	1.02103e-05	2.1642e-06	5.12013e-06	9.51488	1.09418	9.57758	6.56003	23310.6	202706	204042	-83.44	0.0000000E+000	0.0000000E+000	0.0000000E+000	83.44	0.0000000E+000	0.0000000E+000	0.0000000E+000	-83.44	0.0000000E+000	0.0000000E+000	0.0000000E+000	-6.56003	0.0000000E+000	0.0000000E+000	0.0000000E+000	6.56003	8.69587	83.44	-0.000571291
1501.44	0.116387	0.00760713	0.116635	-3.73959	7586.2	-0.000253434	-1.55976	13934.5	59.2756	7	37	0.00517083	0.0443335	0	-0.0113019	0.299182	0.182569	6.32313	5.06177e-06	5.25121e-06	6.61056e-06	5.96611e-06	5.94042e-06	6.79318e-06	0.0366457	0.0237656	0.497555	4.63813e-06	1.19735e-05	5.69447e-06	6.42263e-06	2.70748e-06	2.18714e-06	8.55551	0.559196	8.57377	3.73959	59275.6	906897	908832	-86.2604	0.0000000E+000	0.0000000E+000	0.0000000E+000	86.2604	0.0000000E+000	0.0000000E+000	0.0000000E+000	-86.2604	0.0000000E+000	0.0000000E+000	0.0000000E+000	-3.73959	0.0000000E+000	0.0000000E+000	0.0000000E+000	3.73959	15.2997	86.2604	-0.000534691
301.641	0.12058	0.0029443	0.120616	-1.39875	7595.06	-0.000220328	-1.44141	179204	106.782	7	37	0.00531707	0.0440825	0	-0.0149902	0.265483	0.168003	6.15138	6.87884e-06	4.19839e-06	4.09027e-06	5.59762e-06	4.81129e-06	6.53166e-06	0.066367	0.0366698	0.502152	5.4212e-06	2.35717e-05	3.52902e-06	1.35524e-05	5.97973e-06	2.53447e-06	8.28827	0.202381	8.29074	1.39875	106782	4.37314e+06	4.37444e+06	-88.6012	0.0000000E+000	0.0000000E+000	0.0000000E+000	88.6012	0.0000000E+000	0.0000000E+000	0.0000000E+000	-88.6012	0.0000000E+000	0.0000000E+000	0.0000000E+000	-1.39875	0.0000000E+000	0.0000000E+000	0.0000000E+000	1.39875	40.9539	88.6012	-0.000454807
60.6403	0.121833	0.00164984	0.121844	-0.77584	7603	-0.00021962	-1.44014	1.59081e+06	291.668	7	37	0.00525724	0.0431471	0	-0.0179192	0.340586	0.236155	6.17317	7.29365e-06	6.39154e-06	8.95074e-06	5.14332e-06	5.3005e-06	6.07572e-06	0.118496	0.0438064	0.509709	5.67262e-06	3.8232e-05	7.95602e-06	3.06349e-05	7.46609e-06	4.7988e-06	8.20644	0.11113	8.20719	0.77584	291669	2.15384e+07	2.15404e+07	-89.2242	0.0000000E+000	0.0000000E+000	0.0000000E+000	89.2242	0.0000000E+000	0.0000000E+000	0.0000000E+000	-89.2242	0.0000000E+000	0.0000000E+000	0.0000000E+000	-0.77584	0.0000000E+000	0.0000000E+000	0.0000000E+000	0.77584	73.8455	89.2242	-0.000361132
12.188	0.123122	0.00169014	0.123134	-0.786466	7610.72	-0.00023086	-1.46115	7.72623e+06	1455.64	7	37	0.00527015	0.0428001	0	-0.0208366	0.314212	0.170087	6.06905	6.97887e-06	8.83014e-06	5.65936e-06	7.33626e-06	5.43969e-06	3.8286e-06	0.156489	0.155299	0.492709	1.90482e-05	3.46453e-05	4.57604e-05	2.49827e-05	7.42796e-06	6.62063e-06	8.12047	0.111472	8.12123	0.786466	1.45565e+06	1.0604e+08	1.0605e+08	-89.2135	0.0000000E+000	0.0000000E+000	0.0000000E+000	89.2135	0.0000000E+000	0.0000000E+000	0.0000000E+000	-89.2135	0.0000000E+000	0.0000000E+000	0.0000000E+000	-0.786466	0.0000000E+000	0.0000000E+000	0.0000000E+000	0.786466	72.8476	89.2135	-0.000450382
2.44752	0.124652	0.00251598	0.124678	-1.1563	7623.31	-0.000217574	-1.41048	2.58456e+07	10525	7	37	0.0052719	0.0422842	0	-0.0258648	0.140083	0.0730568	2.22054	1.98069e-06	3.02676e-06	1.84336e-06	2.66119e-06	3.82369e-06	3.46501e-06	0.141779	0.0783752	0.281312	1.42858e-05	3.25587e-05	2.51405e-06	2.98109e-05	9.08109e-06	3.50637e-05	8.01904	0.161856	8.02067	1.1563	1.0525e+07	5.21454e+08	5.2156e+08	-88.8437	0.0000000E+000	0.0000000E+000	0.0000000E+000	88.8437	0.0000000E+000	0.0000000E+000	0.0000000E+000	-88.8437	0.0000000E+000	0.0000000E+000	0.0000000E+000	-1.1563	0.0000000E+000	0.0000000E+000	0.0000000E+000	1.1563	49.5443	88.8437	-0.00114174
0.492188	0.127204	0.00723441	0.12741	-3.25505	7674.09	-0.000210787	-1.3981	4.46977e+07	144108	7	37	0.00526981	0.0413612	0	-0.0458284	0.109314	0.0894441	0.952931	1.8961e-06	4.11648e-06	1.39221e-06	2.24132e-06	1.46367e-06	1.1695e-06	0.16711	0.141027	0.315534	3.5359e-05	4.49223e-05	1.62143e-05	2.68056e-05	1.06901e-05	1.10703e-05	7.83604	0.445655	7.8487	3.25505	1.44108e+08	2.53388e+09	2.53797e+09	-86.7449	0.0000000E+000	0.0000000E+000	0.0000000E+000	86.7449	0.0000000E+000	0.0000000E+000	0.0000000E+000	-86.7449	0.0000000E+000	0.0000000E+000	0.0000000E+000	-3.25505	0.0000000E+000	0.0000000E+000	0.0000000E+000	3.25505	17.5832	86.7449	-0.00234608
0.0988834	0.143863	0.0124162	0.144397	-4.93273	7917.08	-0.000203169	-1.46831	1.29631e+08	958442	7	37	0.00526352	0.0364516	0	-0.128979	0.117239	0.108479	0.43893	1.37111e-06	4.81663e-06	7.83133e-07	2.95477e-06	1.58264e-06	8.53454e-07	0.131797	0.0866496	0.400331	7.05545e-06	3.04042e-05	5.26455e-06	3.43515e-05	6.02013e-06	4.55618e-06	6.89968	0.595482	6.92533	4.93273	9.58441e+08	1.11052e+10	1.11465e+10	-85.0673	0.0000000E+000	0.0000000E+000	0.0000000E+000	85.0673	0.0000000E+000	0.0000000E+000	0.0000000E+000	-85.0673	0.0000000E+000	0.0000000E+000	0.0000000E+000	-4.93273	0.0000000E+000	0.0000000E+000	0.0000000E+000	4.93273	11.5867	85.0673	-0.018752