File: Python/Experiments/IRFB/240415-Felt-0p5M_FeCl2FeCl23-1M_HCl/Data/240417-EIS-0p5M_FeCl2FeCl3-1M_HCl-100mLmin_Dampened-25mHz_10ppd_C15.mpt
EC-Lab ASCII FILE
Nb header lines : 66

Potentio Electrochemical Impedance Spectroscopy

Run on channel : 15 (SN 19485)
User :
Electrode connection : standard
Potential control : Ewe
Ewe ctrl range : min = -1.00 V, max = 1.00 V
Ewe,I filtering : <None>
Safety Limits :
	Do not start on E overload
Channel : Floating
Acquisition started on : 04/17/2024 11:38:39.798
Loaded Setting File :  NONE
Saved on :
	File : 240417-EIS-0p5M_FeCl2FeCl3-1M_HCl-100mLmin_Dampened-25mHz_10ppd_C15.mpr
	Directory : C:\Data\mathias\IRFB\
	Host : 192.168.0.1
Device : VMP-300 (SN 0826)
Address : USB
EC-Lab for windows v11.52 (software)
Internet server v11.52 (firmware)
Command interpretor v11.52 (firmware)
Electrode material :
Initial state :
Electrolyte :
Comments :
Cable : special
Electrode surface area : 0.001 cm²
Characteristic mass : 0.001 g
Equivalent Weight : 0.000 g/eq.
Density : 0.000 g/cm3
Volume (V) : 0.001 cm³
Record EIS quality indicators
Cycle Definition : Charge/Discharge alternance
Mode                Single sine
E (V)               0.0000
vs.                 Eoc
tE (h:m:s)          0:00:0.0000
record              0
dI                  0.000
unit dI             mA
dt (s)              0.000
fi                  920.000
unit fi             kHz
ff                  25.000
unit ff             mHz
Nd                  10
Points              per decade
spacing             Logarithmic
Va (mV)             5.0
pw                  0.10
Na                  3
corr                0
E range min (V)     -1.000
E range max (V)     1.000
I Range             Auto
Bandwidth           8
nc cycles           0
goto Ns'            0
nr cycles           0
inc. cycle          1

freq/Hz	Re(Z)/Ohm	-Im(Z)/Ohm	|Z|/Ohm	Phase(Z)/deg	time/s	<Ewe>/V	<I>/mA	Cs/µF	Cp/µF	cycle number	I Range	|Ewe|/V	|I|/A	Ns	(Q-Qo)/mA.h	THD Ewe/%	NSD Ewe/%	NSR Ewe/%	|Ewe h2|/V	|Ewe h3|/V	|Ewe h4|/V	|Ewe h5|/V	|Ewe h6|/V	|Ewe h7|/V	THD I/%	NSD I/%	NSR I/%	|I h2|/A	|I h3|/A	|I h4|/A	|I h5|/A	|I h6|/A	|I h7|/A	Re(Y)/Ohm-1	Im(Y)/Ohm-1	|Y|/Ohm-1	Phase(Y)/deg	Re(C)/nF	Im(C)/nF	|C|/nF	Phase(C)/deg	Re(M)	Im(M)	|M|	Phase(M)/deg	Re(Permittivity)	Im(Permittivity)	|Permittivity|	Phase(Permittivity)/deg	Re(Resistivity)/Ohm.cm	Im(Resistivity)/Ohm.cm	|Resistivity|/Ohm.cm	Phase(Resistivity)/deg	Re(Conductivity)/mS/cm	Im(Conductivity)/mS/cm	|Conductivity|/mS/cm	Phase(Conductivity)/deg	Tan(Delta)	Loss Angle(Delta)/deg	dq/mA.h
920001	-0.0952955	-0.222722	0.242252	113.165	1.97648	-0.000135792	-1.24379	-0.776728	-0.656536	1	37	0.000714159	0.002948	0	-0.000640867	-1	-1	-1	0	0	0	0	0	0	-1	-1	-1	0	0	0	0	0	0	-1.62381	-3.79513	4.12792	-113.165	-656.536	-280.91	714.108	156.835	0.0000000E+000	0.0000000E+000	0.0000000E+000	-156.835	0.0000000E+000	0.0000000E+000	0.0000000E+000	156.835	0.0000000E+000	0.0000000E+000	0.0000000E+000	113.165	0.0000000E+000	0.0000000E+000	0.0000000E+000	-113.165	0.427868	23.1645	-0.000640867
731536	-0.0257079	-0.123259	0.125911	101.781	3.12248	-0.000127963	-1.19386	-1.76509	-1.69151	1	37	0.000601752	0.00477919	0	-0.00101711	-1	-1	-1	0	0	0	0	0	0	-1	-1	-1	0	0	0	0	0	0	-1.62158	-7.77482	7.94212	-101.781	-1691.51	-352.796	1727.91	168.219	0.0000000E+000	0.0000000E+000	0.0000000E+000	-168.219	0.0000000E+000	0.0000000E+000	0.0000000E+000	168.219	0.0000000E+000	0.0000000E+000	0.0000000E+000	101.781	0.0000000E+000	0.0000000E+000	0.0000000E+000	-101.781	0.208569	11.7812	-0.000376241
581679	0.024353	-0.0736698	0.0775907	71.7077	4.2695	-0.000132493	-1.1842	-3.71405	-3.34817	1	37	0.000578493	0.0074557	0	-0.00139182	-1	-1	-1	0	0	0	0	0	0	-1	-1	-1	0	0	0	0	0	0	4.04514	-12.2369	12.8881	-71.7077	-3348.17	1106.8	3526.37	-161.708	0.0000000E+000	0.0000000E+000	0.0000000E+000	161.708	0.0000000E+000	0.0000000E+000	0.0000000E+000	-161.708	0.0000000E+000	0.0000000E+000	0.0000000E+000	71.7077	0.0000000E+000	0.0000000E+000	0.0000000E+000	-71.7077	0.33057	18.2923	-0.000374712
462524	0.0502177	-0.0513045	0.0717911	45.6133	5.4165	-0.000126342	-1.15781	-6.70703	-3.4253	1	37	0.00076304	0.0106286	0	-0.0017467	-1	-1	-1	0	0	0	0	0	0	-1	-1	-1	0	0	0	0	0	0	9.7435	-9.95436	13.9293	-45.6133	-3425.3	3352.75	4793.08	-135.613	0.0000000E+000	0.0000000E+000	0.0000000E+000	135.613	0.0000000E+000	0.0000000E+000	0.0000000E+000	-135.613	0.0000000E+000	0.0000000E+000	0.0000000E+000	45.6133	0.0000000E+000	0.0000000E+000	0.0000000E+000	-45.6133	0.978817	44.3867	-0.000354881
367781	0.0647582	-0.0385471	0.0753624	30.7631	6.56349	-0.000131375	-1.18331	-11.2264	-2.93705	1	37	0.00116167	0.0154144	0	-0.00214181	-1	-1	-1	0	0	0	0	0	0	-1	-1	-1	0	0	0	0	0	0	11.4021	-6.78705	13.2692	-30.7631	-2937.05	4934.18	5742.16	-120.763	0.0000000E+000	0.0000000E+000	0.0000000E+000	120.763	0.0000000E+000	0.0000000E+000	0.0000000E+000	-120.763	0.0000000E+000	0.0000000E+000	0.0000000E+000	30.7631	0.0000000E+000	0.0000000E+000	0.0000000E+000	-30.7631	1.67998	59.2369	-0.000395113
292440	0.0727548	-0.0289668	0.0783092	21.7096	7.71048	-0.000132456	-1.14843	-18.7881	-2.57074	1	37	0.00176103	0.0224882	0	-0.00251215	-1	-1	-1	0	0	0	0	0	0	-1	-1	-1	0	0	0	0	0	0	11.8641	-4.72362	12.7699	-21.7096	-2570.74	6456.83	6949.77	-111.71	0.0000000E+000	0.0000000E+000	0.0000000E+000	111.71	0.0000000E+000	0.0000000E+000	0.0000000E+000	-111.71	0.0000000E+000	0.0000000E+000	0.0000000E+000	21.7096	0.0000000E+000	0.0000000E+000	0.0000000E+000	-21.7096	2.51166	68.2904	-0.00037034
232529	0.0771842	-0.0222284	0.0803213	16.066	8.85749	-0.000119836	-1.16929	-30.7918	-2.35826	1	37	0.00260598	0.0324445	0	-0.00286556	-1	-1	-1	0	0	0	0	0	0	-1	-1	-1	0	0	0	0	0	0	11.9638	-3.44546	12.45	-16.066	-2358.26	8188.63	8521.45	-106.066	0.0000000E+000	0.0000000E+000	0.0000000E+000	106.066	0.0000000E+000	0.0000000E+000	0.0000000E+000	-106.066	0.0000000E+000	0.0000000E+000	0.0000000E+000	16.066	0.0000000E+000	0.0000000E+000	0.0000000E+000	-16.066	3.47232	73.9341	-0.000353404
184902	0.0796109	-0.0166761	0.0813387	11.8307	10.0045	-0.000129194	-1.18999	-51.6159	-2.1696	1	37	0.00374889	0.0460898	0	-0.00329143	-1	-1	-1	0	0	0	0	0	0	-1	-1	-1	0	0	0	0	0	0	12.0331	-2.52058	12.2943	-11.8307	-2169.6	10357.5	10582.3	-101.831	0.0000000E+000	0.0000000E+000	0.0000000E+000	101.831	0.0000000E+000	0.0000000E+000	0.0000000E+000	-101.831	0.0000000E+000	0.0000000E+000	0.0000000E+000	11.8307	0.0000000E+000	0.0000000E+000	0.0000000E+000	-11.8307	4.77394	78.1693	-0.000425876
147018	0.0814276	-0.0119755	0.0823035	8.36648	11.0175	-0.000119389	-1.177	-90.3974	-1.91385	1	37	0.00527847	0.0641342	0	-0.00362759	-1	-1	-1	0	0	0	0	0	0	-1	-1	-1	0	0	0	0	0	0	12.0208	-1.7679	12.1501	-8.36648	-1913.85	13013.2	13153.2	-98.3665	0.0000000E+000	0.0000000E+000	0.0000000E+000	98.3665	0.0000000E+000	0.0000000E+000	0.0000000E+000	-98.3665	0.0000000E+000	0.0000000E+000	0.0000000E+000	8.36648	0.0000000E+000	0.0000000E+000	0.0000000E+000	-8.36648	6.79951	81.6335	-0.000336153
116909	0.0825761	-0.00792005	0.0829551	5.4786	12.1645	-0.000123918	-1.15102	-171.887	-1.5668	1	37	0.00525032	0.0632911	0	-0.00410447	-1	-1	-1	0	0	0	0	0	0	-1	-1	-1	0	0	0	0	0	0	11.9997	-1.15091	12.0547	-5.4786	-1566.8	16335.8	16410.8	-95.4786	0.0000000E+000	0.0000000E+000	0.0000000E+000	95.4786	0.0000000E+000	0.0000000E+000	0.0000000E+000	-95.4786	0.0000000E+000	0.0000000E+000	0.0000000E+000	5.4786	0.0000000E+000	0.0000000E+000	0.0000000E+000	-5.4786	10.4262	84.5214	-0.000476879
92961.3	0.0837507	-0.00490709	0.0838944	3.35322	13.3125	-0.000124981	-1.18418	-348.894	-1.19365	1	37	0.0052357	0.0624083	0	-0.0044516	0.332153	0.206946	6.16425	9.01962e-06	5.58848e-06	7.87974e-06	5.96979e-06	4.53511e-06	6.51053e-06	0.097558	0.0122688	0.338439	1.04668e-05	5.9131e-05	4.49812e-06	5.82761e-06	3.45696e-06	4.02187e-06	11.8993	-0.697202	11.9198	-3.35322	-1193.65	20372.3	20407.3	-93.3532	0.0000000E+000	0.0000000E+000	0.0000000E+000	93.3532	0.0000000E+000	0.0000000E+000	0.0000000E+000	-93.3532	0.0000000E+000	0.0000000E+000	0.0000000E+000	3.35322	0.0000000E+000	0.0000000E+000	0.0000000E+000	-3.35322	17.0673	86.6468	-0.000347134
73912.6	0.0846281	-0.00224164	0.0846578	1.5173	14.4605	-0.000130275	-1.14895	-960.585	-0.673494	1	37	0.00522185	0.0616818	0	-0.00482417	0.362895	0.153048	6.21767	6.97728e-06	9.92385e-06	8.1294e-06	5.96065e-06	5.81547e-06	7.05217e-06	0.108142	0.0268279	0.349822	1.11835e-05	6.48827e-05	4.07016e-06	6.53849e-06	3.48192e-06	3.49057e-06	11.8081	-0.312775	11.8123	-1.5173	-673.494	25426.3	25435.2	-91.5173	0.0000000E+000	0.0000000E+000	0.0000000E+000	91.5173	0.0000000E+000	0.0000000E+000	0.0000000E+000	-91.5173	0.0000000E+000	0.0000000E+000	0.0000000E+000	1.5173	0.0000000E+000	0.0000000E+000	0.0000000E+000	-1.5173	37.7527	88.4827	-0.000372571
58770	0.0856294	0.00033034	0.0856301	-0.221034	15.6085	-0.000122557	-1.13155	8197.91	0.122004	1	37	0.00522566	0.061026	0	-0.00527813	0.295559	0.176431	6.36268	4.79414e-06	7.35516e-06	6.84803e-06	6.31749e-06	3.77804e-06	5.78494e-06	0.112633	0.0523113	0.353932	4.63666e-06	6.78315e-05	5.06024e-06	5.96804e-06	3.42518e-06	4.25672e-06	11.6781	0.0450514	11.6781	0.221034	122.002	31625.3	31625.5	-89.779	0.0000000E+000	0.0000000E+000	0.0000000E+000	89.779	0.0000000E+000	0.0000000E+000	0.0000000E+000	-89.779	0.0000000E+000	0.0000000E+000	0.0000000E+000	-0.221034	0.0000000E+000	0.0000000E+000	0.0000000E+000	0.221034	259.216	89.779	-0.000453959
46735.8	0.0867788	0.0026145	0.0868181	-1.72571	16.7575	-0.000127274	-1.1265	1302.51	1.18124	1	37	0.00519725	0.0598637	0	-0.00548803	0.276756	0.159454	6.17807	3.59544e-06	9.0239e-06	3.34522e-06	3.59458e-06	6.04666e-06	5.42702e-06	0.127366	0.0103011	0.360568	3.13974e-06	7.56635e-05	2.43527e-06	4.66762e-06	5.07245e-06	3.81772e-06	11.5131	0.346871	11.5183	1.72571	1181.24	39206.9	39224.7	-88.2743	0.0000000E+000	0.0000000E+000	0.0000000E+000	88.2743	0.0000000E+000	0.0000000E+000	0.0000000E+000	-88.2743	0.0000000E+000	0.0000000E+000	0.0000000E+000	-1.72571	0.0000000E+000	0.0000000E+000	0.0000000E+000	1.72571	33.1913	88.2743	-0.0002099
37160.4	0.0880419	0.0045762	0.0881607	-2.97541	17.9055	-0.000116537	-1.07843	935.912	2.5217	1	37	0.00520621	0.0590536	0	-0.00597221	0.245755	0.139072	6.25725	3.80532e-06	6.69104e-06	4.49349e-06	4.84893e-06	4.02973e-06	5.16999e-06	0.126716	0.0422451	0.367778	8.63717e-06	7.37739e-05	2.68634e-06	6.89604e-06	3.34705e-06	2.72105e-06	11.3276	0.588782	11.3429	2.97541	2521.7	48515.3	48580.8	-87.0246	0.0000000E+000	0.0000000E+000	0.0000000E+000	87.0246	0.0000000E+000	0.0000000E+000	0.0000000E+000	-87.0246	0.0000000E+000	0.0000000E+000	0.0000000E+000	-2.97541	0.0000000E+000	0.0000000E+000	0.0000000E+000	2.97541	19.2391	87.0246	-0.000484177
29552	0.0893391	0.00647795	0.0895736	-4.14724	19.0545	-0.000131412	-1.06202	831.372	4.3482	1	37	0.00519462	0.0579927	0	-0.00622461	0.309599	0.175553	6.23006	6.98589e-06	5.55198e-06	5.48096e-06	6.97624e-06	4.81598e-06	7.28502e-06	0.133646	0.0184028	0.370398	1.22149e-05	7.52575e-05	3.26851e-06	9.12457e-06	4.40451e-06	7.55461e-06	11.1348	0.807378	11.164	4.14724	4348.2	59967.2	60124.6	-85.8528	0.0000000E+000	0.0000000E+000	0.0000000E+000	85.8528	0.0000000E+000	0.0000000E+000	0.0000000E+000	-85.8528	0.0000000E+000	0.0000000E+000	0.0000000E+000	-4.14724	0.0000000E+000	0.0000000E+000	0.0000000E+000	4.14724	13.7913	85.8528	-0.000252402
23493.2	0.0908991	0.00809204	0.0912586	-5.08719	20.2025	-0.000132046	-1.07722	837.183	6.58247	1	37	0.00518016	0.0567635	0	-0.00665675	0.412356	0.0704242	6.25767	9.51212e-06	8.33332e-06	1.14953e-05	6.83228e-06	5.58064e-06	4.46767e-06	0.126284	0.0119754	0.37704	7.08866e-06	7.04221e-05	2.36803e-06	8.49433e-06	4.24412e-06	4.69944e-06	10.9147	0.971652	10.9579	5.08719	6582.48	73941.9	74234.3	-84.9128	0.0000000E+000	0.0000000E+000	0.0000000E+000	84.9128	0.0000000E+000	0.0000000E+000	0.0000000E+000	-84.9128	0.0000000E+000	0.0000000E+000	0.0000000E+000	-5.08719	0.0000000E+000	0.0000000E+000	0.0000000E+000	5.08719	11.2331	84.9128	-0.000432144
18677.6	0.0925947	0.00957994	0.0930889	-5.90686	21.3505	-0.000124123	-1.08111	889.479	9.42031	1	37	0.00517508	0.0555928	0	-0.00697485	0.319798	0.249615	6.22537	5.86267e-06	7.15649e-06	4.50447e-06	6.48518e-06	9.34838e-06	3.99019e-06	0.125683	0.0336629	0.388472	4.6771e-06	6.85317e-05	5.12333e-06	7.41486e-06	5.97882e-06	3.75508e-06	10.6854	1.10552	10.7424	5.90686	9420.3	91051.7	91537.8	-84.0931	0.0000000E+000	0.0000000E+000	0.0000000E+000	84.0931	0.0000000E+000	0.0000000E+000	0.0000000E+000	-84.0931	0.0000000E+000	0.0000000E+000	0.0000000E+000	-5.90686	0.0000000E+000	0.0000000E+000	0.0000000E+000	5.90686	9.66548	84.0931	-0.000318097
14854.9	0.0946779	0.010833	0.0952956	-6.52736	22.4985	-0.000121588	-1.08872	989.015	12.7806	1	37	0.005186	0.0544201	0	-0.00729055	0.340485	0.196452	6.32193	5.14231e-06	8.50441e-06	1.01651e-05	6.16144e-06	5.10255e-06	3.50448e-06	0.117888	0.0252987	0.391911	6.54532e-06	6.27666e-05	5.39355e-06	7.01481e-06	3.69745e-06	4.4839e-06	10.4256	1.19289	10.4937	6.52736	12780.6	111700	112429	-83.4726	0.0000000E+000	0.0000000E+000	0.0000000E+000	83.4726	0.0000000E+000	0.0000000E+000	0.0000000E+000	-83.4726	0.0000000E+000	0.0000000E+000	0.0000000E+000	-6.52736	0.0000000E+000	0.0000000E+000	0.0000000E+000	6.52736	8.73978	83.4726	-0.000315696
11811.5	0.0967368	0.0119601	0.0974733	-7.04804	23.6465	-0.000116052	-1.05571	1126.62	16.962	1	37	0.00516577	0.0529968	0	-0.00776289	0.348845	0.154563	6.13179	4.38193e-06	1.04421e-05	5.54289e-06	8.8005e-06	4.83016e-06	5.52896e-06	0.10339	0.0457721	0.40811	7.37786e-06	5.33368e-05	2.89595e-06	4.37034e-06	6.06833e-06	4.35598e-06	10.1817	1.25882	10.2592	7.04804	16962	137194	138238	-82.952	0.0000000E+000	0.0000000E+000	0.0000000E+000	82.952	0.0000000E+000	0.0000000E+000	0.0000000E+000	-82.952	0.0000000E+000	0.0000000E+000	0.0000000E+000	-7.04804	0.0000000E+000	0.0000000E+000	0.0000000E+000	7.04804	8.08827	82.952	-0.000472342
9395.12	0.0991074	0.0127708	0.0999269	-7.34256	24.796	-0.000239938	-1.9645	1326.48	21.6656	1	37	0.00525975	0.052636	0	-0.00832884	0.302652	0.137128	6.20689	5.28918e-06	6.99844e-06	4.4477e-06	7.4308e-06	8.7273e-06	2.80082e-06	0.127011	0.0484685	0.413124	1.02943e-05	6.4499e-05	3.73473e-06	1.10453e-05	4.32045e-06	3.1368e-06	9.92526	1.27895	10.0073	7.34256	21665.6	168136	169526	-82.6574	0.0000000E+000	0.0000000E+000	0.0000000E+000	82.6574	0.0000000E+000	0.0000000E+000	0.0000000E+000	-82.6574	0.0000000E+000	0.0000000E+000	0.0000000E+000	-7.34256	0.0000000E+000	0.0000000E+000	0.0000000E+000	7.34256	7.76048	82.6574	-0.00056595
7470.62	0.101563	0.0135865	0.102468	-7.61944	25.9882	-0.000232407	-1.9519	1568.04	27.5674	1	37	0.00519208	0.0506704	0	-0.00903675	0.375549	0.197538	6.26997	6.83162e-06	1.19434e-05	3.95621e-06	6.45136e-06	6.62322e-06	8.18228e-06	0.116048	0.0577931	0.427336	5.29161e-06	5.63365e-05	5.08224e-06	1.21428e-05	5.74295e-06	2.49849e-06	9.673	1.29399	9.75916	7.61944	27567.4	206075	207910	-82.3806	0.0000000E+000	0.0000000E+000	0.0000000E+000	82.3806	0.0000000E+000	0.0000000E+000	0.0000000E+000	-82.3806	0.0000000E+000	0.0000000E+000	0.0000000E+000	-7.61944	0.0000000E+000	0.0000000E+000	0.0000000E+000	7.61944	7.47531	82.3806	-0.000707909
5938.89	0.104104	0.0140177	0.105044	-7.66879	27.2527	-0.000246369	-1.95826	1911.78	34.0449	1	37	0.00517441	0.0492596	0	-0.00967828	0.33413	0.202962	6.33831	5.95218e-06	8.99754e-06	4.95254e-06	6.24944e-06	6.68367e-06	6.91273e-06	0.106602	0.0105912	0.436125	7.37844e-06	5.00539e-05	7.31491e-06	9.88852e-06	4.7676e-06	3.71381e-06	9.4347	1.27039	9.51985	7.66879	34044.9	252838	255120	-82.3312	0.0000000E+000	0.0000000E+000	0.0000000E+000	82.3312	0.0000000E+000	0.0000000E+000	0.0000000E+000	-82.3312	0.0000000E+000	0.0000000E+000	0.0000000E+000	-7.66879	0.0000000E+000	0.0000000E+000	0.0000000E+000	7.66879	7.42663	82.3312	-0.000641532
4721.51	0.106773	0.0142988	0.107726	-7.62752	28.5897	-0.000238391	-1.92374	2357.44	41.5332	1	37	0.00519558	0.0482295	0	-0.0103586	0.332073	0.244197	6.22755	5.06066e-06	9.28398e-06	3.75938e-06	7.93858e-06	6.4412e-06	5.23236e-06	0.0934857	0.102757	0.450756	7.07991e-06	4.21728e-05	8.26508e-06	7.65659e-06	6.29297e-06	5.10518e-06	9.20066	1.23213	9.28279	7.62752	41533.2	310140	312909	-82.3725	0.0000000E+000	0.0000000E+000	0.0000000E+000	82.3725	0.0000000E+000	0.0000000E+000	0.0000000E+000	-82.3725	0.0000000E+000	0.0000000E+000	0.0000000E+000	-7.62752	0.0000000E+000	0.0000000E+000	0.0000000E+000	7.62752	7.46729	82.3725	-0.000680341
3753.8	0.109357	0.0141811	0.110272	-7.38875	29.9178	-0.000238857	-1.90797	2989.78	49.4455	1	37	0.00515744	0.0467701	0	-0.0110455	0.306523	0.132649	6.26064	3.89067e-06	5.62921e-06	5.32126e-06	3.14909e-06	8.01374e-06	9.35039e-06	0.083858	0.0752946	0.468006	5.16487e-06	3.668e-05	4.72502e-06	6.88359e-06	6.8155e-06	5.21211e-06	8.99316	1.16621	9.06846	7.38875	49445.5	381295	384488	-82.6112	0.0000000E+000	0.0000000E+000	0.0000000E+000	82.6112	0.0000000E+000	0.0000000E+000	0.0000000E+000	-82.6112	0.0000000E+000	0.0000000E+000	0.0000000E+000	-7.38875	0.0000000E+000	0.0000000E+000	0.0000000E+000	7.38875	7.71142	82.6112	-0.00068685
2985.95	0.111954	0.0137833	0.1128	-7.01868	31.2467	-0.000234812	-1.92301	3867.07	57.7398	1	37	0.00518136	0.0459342	0	-0.0117629	0.291229	0.131311	6.18501	2.79831e-06	5.71e-06	5.56734e-06	5.28934e-06	7.78341e-06	5.82493e-06	0.0679532	0.0389164	0.47724	5.85766e-06	2.83561e-05	6.37611e-06	6.68339e-06	6.293e-06	1.9596e-06	8.79883	1.08327	8.86526	7.01868	57739.8	468988	472529	-82.9813	0.0000000E+000	0.0000000E+000	0.0000000E+000	82.9813	0.0000000E+000	0.0000000E+000	0.0000000E+000	-82.9813	0.0000000E+000	0.0000000E+000	0.0000000E+000	-7.01868	0.0000000E+000	0.0000000E+000	0.0000000E+000	7.01868	8.12245	82.9813	-0.000717445
2374.24	0.11443	0.0132153	0.115191	-6.58777	32.5758	-0.000235241	-1.9912	5072.46	66.7631	1	37	0.00516142	0.0448075	0	-0.0123698	0.236275	0.173282	6.27677	5.57587e-06	4.96578e-06	3.52043e-06	4.55609e-06	5.55411e-06	3.99315e-06	0.0550127	0.0252146	0.484712	5.09233e-06	2.24767e-05	1.62828e-06	3.7786e-06	5.59445e-06	3.88384e-06	8.62393	0.995957	8.68125	6.58777	66763.1	578097	581939	-83.4122	0.0000000E+000	0.0000000E+000	0.0000000E+000	83.4122	0.0000000E+000	0.0000000E+000	0.0000000E+000	-83.4122	0.0000000E+000	0.0000000E+000	0.0000000E+000	-6.58777	0.0000000E+000	0.0000000E+000	0.0000000E+000	6.58777	8.65893	83.4122	-0.000606869
1888.19	0.116588	0.0124961	0.117255	-6.11773	33.905	-0.000239081	-2.03312	6745.29	76.6098	1	37	0.00512413	0.0437006	0	-0.013087	0.290809	0.198019	6.26512	6.42149e-06	5.70533e-06	4.03525e-06	6.21847e-06	5.28701e-06	7.43163e-06	0.0450285	0.0537962	0.50157	8.26115e-06	1.43696e-05	5.03884e-06	4.61094e-06	5.88545e-06	3.2228e-06	8.47982	0.908885	8.52839	6.11773	76609.8	714763	718857	-83.8823	0.0000000E+000	0.0000000E+000	0.0000000E+000	83.8823	0.0000000E+000	0.0000000E+000	0.0000000E+000	-83.8823	0.0000000E+000	0.0000000E+000	0.0000000E+000	-6.11773	0.0000000E+000	0.0000000E+000	0.0000000E+000	6.11773	9.32991	83.8823	-0.000717194
1501.44	0.11876	0.0115795	0.119323	-5.56894	35.2336	-0.000241839	-2.072	9154.2	86.209	1	37	0.00513429	0.0430284	0	-0.013832	0.308304	0.201704	6.22661	3.50081e-06	5.23841e-06	1.0499e-05	5.52357e-06	6.11352e-06	3.37437e-06	0.0343996	0.0321757	0.509182	6.44209e-06	6.10058e-06	6.50223e-06	7.42235e-06	4.50512e-06	3.26838e-06	8.34103	0.813281	8.38059	5.56894	86208.9	884162	888355	-84.4311	0.0000000E+000	0.0000000E+000	0.0000000E+000	84.4311	0.0000000E+000	0.0000000E+000	0.0000000E+000	-84.4311	0.0000000E+000	0.0000000E+000	0.0000000E+000	-5.56894	0.0000000E+000	0.0000000E+000	0.0000000E+000	5.56894	10.256	84.4311	-0.00074503
1193.85	0.120541	0.0105856	0.121005	-5.01872	36.561	-0.000241504	-2.06969	12593.7	96.3791	1	37	0.0051557	0.0426075	0	-0.0146062	0.317703	0.194812	6.28869	4.47367e-06	5.83257e-06	7.51213e-06	5.64494e-06	6.13342e-06	7.78982e-06	0.0377216	0.0853557	0.51228	6.99267e-06	5.16946e-06	2.93985e-06	1.01725e-05	4.90788e-06	5.71075e-06	8.23247	0.722958	8.26415	5.01872	96379.2	1.09749e+06	1.10171e+06	-84.9813	0.0000000E+000	0.0000000E+000	0.0000000E+000	84.9813	0.0000000E+000	0.0000000E+000	0.0000000E+000	-84.9813	0.0000000E+000	0.0000000E+000	0.0000000E+000	-5.01872	0.0000000E+000	0.0000000E+000	0.0000000E+000	5.01872	11.3872	84.9813	-0.000774152
949.092	0.122306	0.00948908	0.122674	-4.43638	37.8899	-0.000246518	-2.02606	17672.1	105.738	1	37	0.00512943	0.0418136	0	-0.0153807	0.289546	0.228381	6.38253	5.9749e-06	4.71943e-06	6.72739e-06	6.16703e-06	5.05782e-06	2.38256e-06	0.0408954	0.116281	0.52538	8.86168e-06	4.18908e-06	5.20279e-06	1.04143e-05	3.59386e-06	6.01557e-06	8.12727	0.63055	8.1517	4.43638	105738	1.36288e+06	1.36697e+06	-85.5636	0.0000000E+000	0.0000000E+000	0.0000000E+000	85.5636	0.0000000E+000	0.0000000E+000	0.0000000E+000	-85.5636	0.0000000E+000	0.0000000E+000	0.0000000E+000	-4.43638	0.0000000E+000	0.0000000E+000	0.0000000E+000	4.43638	12.8892	85.5636	-0.000774561
754.759	0.123643	0.00841977	0.123929	-3.89568	39.2188	-0.000243927	-2.01942	25044.5	115.602	1	37	0.00509541	0.0411154	0	-0.0160745	0.320041	0.234667	6.45051	4.28431e-06	8.25582e-06	6.13344e-06	6.55879e-06	6.30654e-06	4.97826e-06	0.0517585	0.0379844	0.534439	9.32143e-06	9.75513e-06	6.41771e-06	1.27741e-05	4.79118e-06	5.13052e-06	8.05048	0.548217	8.06912	3.89568	115602	1.69759e+06	1.70152e+06	-86.1043	0.0000000E+000	0.0000000E+000	0.0000000E+000	86.1043	0.0000000E+000	0.0000000E+000	0.0000000E+000	-86.1043	0.0000000E+000	0.0000000E+000	0.0000000E+000	-3.89568	0.0000000E+000	0.0000000E+000	0.0000000E+000	3.89568	14.6848	86.1043	-0.000693749
600.192	0.124825	0.00757309	0.125054	-3.47186	40.5477	-0.000217774	-1.96788	35015.2	128.412	1	37	0.00504627	0.0403526	0	-0.0167916	0.389174	0.154297	6.38902	6.24979e-06	7.62374e-06	5.6844e-06	1.03695e-05	4.74597e-06	1.05471e-05	0.0517936	0.0581257	0.540716	7.22175e-06	1.23761e-05	7.44034e-06	7.18495e-06	4.21113e-06	8.30683e-06	7.98184	0.484256	7.99652	3.47186	128412	2.11657e+06	2.12046e+06	-86.5281	0.0000000E+000	0.0000000E+000	0.0000000E+000	86.5281	0.0000000E+000	0.0000000E+000	0.0000000E+000	-86.5281	0.0000000E+000	0.0000000E+000	0.0000000E+000	-3.47186	0.0000000E+000	0.0000000E+000	0.0000000E+000	3.47186	16.4827	86.5281	-0.000717083
476.984	0.125639	0.00649682	0.125807	-2.96014	41.6519	-0.000207857	-1.96347	51358.8	136.965	1	37	0.00544777	0.0433026	0	-0.0173976	0.308603	0.239741	6.01416	4.999e-06	8.77046e-06	2.50982e-06	7.47119e-06	7.0953e-06	4.27755e-06	0.0516597	0.0782221	0.50923	8.40608e-06	1.61469e-05	1.94337e-06	1.09465e-05	4.5053e-06	3.8105e-06	7.93808	0.41048	7.94869	2.96014	136965	2.64869e+06	2.65223e+06	-87.0399	0.0000000E+000	0.0000000E+000	0.0000000E+000	87.0399	0.0000000E+000	0.0000000E+000	0.0000000E+000	-87.0399	0.0000000E+000	0.0000000E+000	0.0000000E+000	-2.96014	0.0000000E+000	0.0000000E+000	0.0000000E+000	2.96014	19.3385	87.0399	-0.000606066
379.393	0.126143	0.00561399	0.126267	-2.54827	42.9811	-0.000199488	-1.95324	74723.9	147.713	1	37	0.00504407	0.0399475	0	-0.0181456	0.294117	0.158594	6.34484	4.27679e-06	5.74159e-06	5.94367e-06	8.72981e-06	2.31168e-06	6.41142e-06	0.0561773	0.030771	0.560146	7.22138e-06	1.57552e-05	5.8502e-06	9.74664e-06	4.5838e-06	5.06415e-06	7.91187	0.352119	7.9197	2.54827	147713	3.31902e+06	3.3223e+06	-87.4517	0.0000000E+000	0.0000000E+000	0.0000000E+000	87.4517	0.0000000E+000	0.0000000E+000	0.0000000E+000	-87.4517	0.0000000E+000	0.0000000E+000	0.0000000E+000	-2.54827	0.0000000E+000	0.0000000E+000	0.0000000E+000	2.54827	22.4693	87.4517	-0.000747971
301.641	0.126794	0.00474425	0.126883	-2.14284	44.0857	-0.000208062	-1.99446	111215	155.487	1	37	0.00522955	0.0412157	0	-0.0187894	0.314408	0.175851	6.10459	6.04384e-06	8.10409e-06	6.03704e-06	4.61331e-06	6.6387e-06	5.98467e-06	0.0702557	0.053219	0.53567	6.29872e-06	2.27962e-05	1.91266e-06	1.33604e-05	5.0276e-06	6.24604e-06	7.87579	0.294689	7.88131	2.14284	155487	4.1555e+06	4.15841e+06	-87.8572	0.0000000E+000	0.0000000E+000	0.0000000E+000	87.8572	0.0000000E+000	0.0000000E+000	0.0000000E+000	-87.8572	0.0000000E+000	0.0000000E+000	0.0000000E+000	-2.14284	0.0000000E+000	0.0000000E+000	0.0000000E+000	2.14284	26.7258	87.8572	-0.000643798
239.924	0.127251	0.00422971	0.127321	-1.90376	45.1938	-0.00020329	-1.9682	156833	173.084	1	37	0.00535658	0.0420714	0	-0.0193605	0.346208	0.200933	6.06738	6.52788e-06	8.01064e-06	5.54678e-06	6.94973e-06	8.6084e-06	7.10997e-06	0.0706093	0.0418417	0.534876	3.12747e-06	2.4716e-05	3.98081e-06	1.29413e-05	6.70499e-06	4.76161e-06	7.84982	0.260921	7.85416	1.90376	173084	5.20723e+06	5.21011e+06	-88.0962	0.0000000E+000	0.0000000E+000	0.0000000E+000	88.0962	0.0000000E+000	0.0000000E+000	0.0000000E+000	-88.0962	0.0000000E+000	0.0000000E+000	0.0000000E+000	-1.90376	0.0000000E+000	0.0000000E+000	0.0000000E+000	1.90376	30.085	88.0962	-0.000571083
190.672	0.127617	0.00353778	0.127666	-1.58794	46.2991	-0.000200811	-1.96947	235941	181.182	1	37	0.00543802	0.0425956	0	-0.0198881	0.377666	0.219226	6.12462	7.57141e-06	1.20892e-05	7.76907e-06	8.07723e-06	3.8552e-06	5.74792e-06	0.0821733	0.0568264	0.518479	7.46935e-06	2.76762e-05	1.40877e-06	1.71469e-05	6.67921e-06	7.66071e-06	7.82992	0.21706	7.83293	1.58794	181181	6.53569e+06	6.53821e+06	-88.4121	0.0000000E+000	0.0000000E+000	0.0000000E+000	88.4121	0.0000000E+000	0.0000000E+000	0.0000000E+000	-88.4121	0.0000000E+000	0.0000000E+000	0.0000000E+000	-1.58794	0.0000000E+000	0.0000000E+000	0.0000000E+000	1.58794	36.0726	88.4121	-0.00052763
151.699	0.127833	0.00307874	0.12787	-1.37965	47.4005	-0.000192497	-1.94715	340772	197.547	1	37	0.00548931	0.0429287	0	-0.020465	0.348225	0.164602	5.94632	8.09659e-06	7.91883e-06	6.91523e-06	1.01311e-05	2.4112e-06	5.19719e-06	0.0878455	0.0825648	0.498661	5.9555e-06	3.03097e-05	2.43304e-06	2.09548e-05	2.7947e-06	3.27467e-06	7.81816	0.188293	7.82042	1.37965	197547	8.20241e+06	8.20479e+06	-88.6204	0.0000000E+000	0.0000000E+000	0.0000000E+000	88.6204	0.0000000E+000	0.0000000E+000	0.0000000E+000	-88.6204	0.0000000E+000	0.0000000E+000	0.0000000E+000	-1.37965	0.0000000E+000	0.0000000E+000	0.0000000E+000	1.37965	41.5212	88.6204	-0.000576932
120.579	0.128012	0.00275399	0.128041	-1.23245	48.7258	-0.000215836	-1.96085	479277	221.723	1	37	0.00506203	0.0395343	0	-0.0212093	0.344892	0.195109	6.3084	2.95842e-06	6.77459e-06	8.7885e-06	5.56185e-06	7.15482e-06	5.30709e-06	0.0837053	0.0603094	0.558213	5.15592e-06	2.5055e-05	2.76297e-06	1.99233e-05	3.67227e-06	1.97433e-06	7.80817	0.167982	7.80997	1.23245	221723	1.03062e+07	1.03086e+07	-88.7676	0.0000000E+000	0.0000000E+000	0.0000000E+000	88.7676	0.0000000E+000	0.0000000E+000	0.0000000E+000	-88.7676	0.0000000E+000	0.0000000E+000	0.0000000E+000	-1.23245	0.0000000E+000	0.0000000E+000	0.0000000E+000	1.23245	46.4823	88.7676	-0.000744258
95.8897	0.12842	0.00230301	0.128441	-1.0274	49.8289	-0.00021578	-1.92858	720695	231.705	1	37	0.00508378	0.0395806	0	-0.0217637	0.310481	0.111062	6.31019	4.07092e-06	7.42762e-06	4.17668e-06	7.21752e-06	5.17915e-06	7.81154e-06	0.109581	0.0708082	0.560579	3.25047e-06	3.06685e-05	5.18388e-06	2.82339e-05	7.45739e-06	4.90157e-06	7.78442	0.139601	7.78567	1.0274	231706	1.29203e+07	1.29224e+07	-88.9726	0.0000000E+000	0.0000000E+000	0.0000000E+000	88.9726	0.0000000E+000	0.0000000E+000	0.0000000E+000	-88.9726	0.0000000E+000	0.0000000E+000	0.0000000E+000	-1.0274	0.0000000E+000	0.0000000E+000	0.0000000E+000	1.0274	55.762	88.9726	-0.000554385
76.244	0.128647	0.00206296	0.128663	-0.918709	50.9275	-0.000203738	-1.92873	1.01187e+06	260.134	1	37	0.00509266	0.0395813	0	-0.0223477	0.359994	0.216538	6.35492	5.60755e-06	6.55264e-06	6.5238e-06	9.5535e-06	5.06958e-06	8.35581e-06	0.122368	0.0590409	0.56235	2.9834e-05	2.57343e-05	6.31015e-06	2.47629e-05	8.15549e-06	6.79148e-06	7.77123	0.124618	7.77223	0.918709	260134	1.6222e+07	1.62241e+07	-89.0813	0.0000000E+000	0.0000000E+000	0.0000000E+000	89.0813	0.0000000E+000	0.0000000E+000	0.0000000E+000	-89.0813	0.0000000E+000	0.0000000E+000	0.0000000E+000	-0.918709	0.0000000E+000	0.0000000E+000	0.0000000E+000	0.918709	62.3602	89.0813	-0.000584019
60.6403	0.128961	0.00190798	0.128975	-0.84763	52.0296	-0.000207578	-1.89891	1.37557e+06	301.037	1	37	0.00510293	0.0395652	0	-0.0229538	0.345527	0.151421	6.32599	3.77534e-06	1.03602e-05	4.81148e-06	5.27854e-06	8.53348e-06	5.72754e-06	0.110518	0.0493665	0.565502	3.55605e-06	2.87236e-05	7.13965e-06	3.01029e-05	7.98749e-06	4.9236e-06	7.75257	0.114699	7.75342	0.84763	301035	2.03472e+07	2.03494e+07	-89.1524	0.0000000E+000	0.0000000E+000	0.0000000E+000	89.1524	0.0000000E+000	0.0000000E+000	0.0000000E+000	-89.1524	0.0000000E+000	0.0000000E+000	0.0000000E+000	-0.84763	0.0000000E+000	0.0000000E+000	0.0000000E+000	0.84763	67.5904	89.1524	-0.000606134
48.1956	0.129135	0.00165443	0.129146	-0.73401	53.1563	-0.000206198	-1.88279	1.99602e+06	327.567	1	37	0.00510891	0.0395592	0	-0.0235122	0.325779	0.161485	6.33198	6.95506e-06	7.68765e-06	4.52024e-06	5.53964e-06	4.68881e-06	6.95843e-06	0.0989273	0.0625094	0.549715	2.33385e-06	2.46935e-05	4.40614e-06	2.84976e-05	4.23636e-06	5.98345e-06	7.74254	0.0991943	7.74317	0.73401	327566	2.5568e+07	2.55701e+07	-89.266	0.0000000E+000	0.0000000E+000	0.0000000E+000	89.266	0.0000000E+000	0.0000000E+000	0.0000000E+000	-89.266	0.0000000E+000	0.0000000E+000	0.0000000E+000	-0.73401	0.0000000E+000	0.0000000E+000	0.0000000E+000	0.73401	78.0543	89.266	-0.000558329
38.3436	0.129231	0.00153272	0.12924	-0.679515	54.2834	-0.000201948	-1.88244	2.70809e+06	380.886	1	37	0.0051121	0.039555	0	-0.0240827	0.319579	0.146482	6.38027	7.41819e-06	4.90804e-06	4.4381e-06	8.28363e-06	6.35677e-06	6.18196e-06	0.12588	0.0520925	0.560026	7.46983e-06	3.01501e-05	2.00011e-05	3.14384e-05	7.17191e-06	5.80573e-06	7.73698	0.0917631	7.73752	0.679515	380885	3.21143e+07	3.21166e+07	-89.3205	0.0000000E+000	0.0000000E+000	0.0000000E+000	89.3205	0.0000000E+000	0.0000000E+000	0.0000000E+000	-89.3205	0.0000000E+000	0.0000000E+000	0.0000000E+000	-0.679515	0.0000000E+000	0.0000000E+000	0.0000000E+000	0.679515	84.3147	89.3205	-0.000570499
30.4779	0.129319	0.00127727	0.129325	-0.565888	55.3806	-0.000216693	-1.93749	4.08838e+06	398.798	1	37	0.00511267	0.0395334	0	-0.0245808	0.364915	0.199342	6.34425	5.06915e-06	7.25618e-06	4.27665e-06	8.14903e-06	5.80673e-06	1.00651e-05	0.161551	0.0828421	0.551744	1.01736e-05	3.41973e-05	4.24962e-06	5.18338e-05	3.54614e-06	5.71189e-06	7.73206	0.076369	7.73244	0.565888	398798	4.03767e+07	4.03787e+07	-89.4341	0.0000000E+000	0.0000000E+000	0.0000000E+000	89.4341	0.0000000E+000	0.0000000E+000	0.0000000E+000	-89.4341	0.0000000E+000	0.0000000E+000	0.0000000E+000	-0.565888	0.0000000E+000	0.0000000E+000	0.0000000E+000	0.565888	101.246	89.4341	-0.000498185
24.2323	0.129378	0.00127684	0.129384	-0.565439	56.5051	-0.000218315	-1.97834	5.14385e+06	500.957	1	37	0.0051102	0.0394964	0	-0.0251926	0.317121	0.247198	6.27076	5.93119e-06	5.56095e-06	4.40585e-06	6.7962e-06	8.35327e-06	4.8564e-06	0.144792	0.103154	0.545231	3.784e-05	2.82014e-05	4.2204e-06	3.00317e-05	6.51584e-06	4.55571e-06	7.72856	0.0762738	7.72893	0.565439	500955	5.07602e+07	5.07627e+07	-89.4346	0.0000000E+000	0.0000000E+000	0.0000000E+000	89.4346	0.0000000E+000	0.0000000E+000	0.0000000E+000	-89.4346	0.0000000E+000	0.0000000E+000	0.0000000E+000	-0.565439	0.0000000E+000	0.0000000E+000	0.0000000E+000	0.565439	101.326	89.4346	-0.000611805
19.2663	0.129519	0.00127788	0.129525	-0.565282	57.6304	-0.000221857	-1.9384	6.46446e+06	629.222	1	37	0.00510488	0.0394123	0	-0.0256428	0.219527	0.14069	6.38396	3.76942e-06	3.64645e-06	3.51077e-06	4.27607e-06	2.84272e-06	5.87169e-06	0.123262	0.113224	0.54731	1.35174e-05	3.58062e-05	2.74488e-06	2.84886e-05	4.75756e-06	5.61707e-06	7.72014	0.0761697	7.72052	0.565282	629224	6.37745e+07	6.37776e+07	-89.4347	0.0000000E+000	0.0000000E+000	0.0000000E+000	89.4347	0.0000000E+000	0.0000000E+000	0.0000000E+000	-89.4347	0.0000000E+000	0.0000000E+000	0.0000000E+000	-0.565282	0.0000000E+000	0.0000000E+000	0.0000000E+000	0.565282	101.355	89.4347	-0.000450143
15.3186	0.129814	0.00129518	0.12982	-0.571635	58.7246	-0.000210057	-1.92387	8.02177e+06	798.45	1	37	0.00511437	0.0393958	0	-0.026197	0.262773	0.177683	6.33104	5.84416e-06	6.5576e-06	6.01358e-06	3.99864e-06	2.84176e-06	5.00893e-06	0.117207	0.0770776	0.550763	9.87626e-06	3.03448e-05	1.11228e-05	2.70787e-05	4.79619e-06	1.02804e-05	7.70259	0.0768506	7.70297	0.571635	798447	8.00272e+07	8.00311e+07	-89.4284	0.0000000E+000	0.0000000E+000	0.0000000E+000	89.4284	0.0000000E+000	0.0000000E+000	0.0000000E+000	-89.4284	0.0000000E+000	0.0000000E+000	0.0000000E+000	-0.571635	0.0000000E+000	0.0000000E+000	0.0000000E+000	0.571635	100.228	89.4284	-0.000554185
12.188	0.129834	0.00104674	0.129838	-0.461919	59.7468	-0.000218296	-1.89336	1.24752e+07	810.821	1	37	0.00511043	0.03936	0	-0.0269979	0.306534	0.184435	6.34052	6.73293e-06	4.7667e-06	5.17717e-06	4.58402e-06	5.71344e-06	8.49175e-06	0.154196	0.171588	0.532348	8.04088e-06	3.29302e-05	4.10662e-05	2.62578e-05	5.53202e-06	7.09108e-06	7.70165	0.062092	7.7019	0.461919	810826	1.00571e+08	1.00574e+08	-89.5381	0.0000000E+000	0.0000000E+000	0.0000000E+000	89.5381	0.0000000E+000	0.0000000E+000	0.0000000E+000	-89.5381	0.0000000E+000	0.0000000E+000	0.0000000E+000	-0.461919	0.0000000E+000	0.0000000E+000	0.0000000E+000	0.461919	124.036	89.5381	-0.000800904
9.68695	0.130108	0.00111787	0.130113	-0.492268	60.8572	-0.000211697	-1.80805	1.46974e+07	1084.89	1	37	0.00511308	0.0392974	0	-0.0272521	0.292461	0.138074	6.30473	5.59388e-06	3.49874e-06	8.32115e-06	6.17564e-06	3.80957e-06	6.02452e-06	0.172319	0.101664	0.544073	2.6371e-05	2.99858e-05	6.1928e-06	4.43916e-05	1.12247e-05	6.14223e-06	7.68537	0.066032	7.68566	0.492268	1.08489e+06	1.26269e+08	1.26274e+08	-89.5077	0.0000000E+000	0.0000000E+000	0.0000000E+000	89.5077	0.0000000E+000	0.0000000E+000	0.0000000E+000	-89.5077	0.0000000E+000	0.0000000E+000	0.0000000E+000	-0.492268	0.0000000E+000	0.0000000E+000	0.0000000E+000	0.492268	116.389	89.5077	-0.000254173
7.70465	0.130436	0.00102634	0.13044	-0.450824	62.0844	-0.000213459	-1.82207	2.01269e+07	1246.05	1	37	0.00511541	0.0392165	0	-0.028216	0.267892	0.107006	4.55597	3.84129e-06	8.35556e-06	4.75277e-06	4.34572e-06	5.00449e-06	3.56553e-06	0.16969	0.0309623	0.419588	4.74252e-05	3.38843e-05	6.22203e-06	2.69196e-05	7.26159e-06	5.48356e-06	7.66611	0.060321	7.66635	0.450824	1.24604e+06	1.58359e+08	1.58364e+08	-89.5492	0.0000000E+000	0.0000000E+000	0.0000000E+000	89.5492	0.0000000E+000	0.0000000E+000	0.0000000E+000	-89.5492	0.0000000E+000	0.0000000E+000	0.0000000E+000	-0.450824	0.0000000E+000	0.0000000E+000	0.0000000E+000	0.450824	127.089	89.5492	-0.000963932
6.12745	0.130483	0.00120501	0.130489	-0.529109	63.4952	-0.000210162	-1.84847	2.15551e+07	1838.16	1	37	0.00511393	0.0391905	0	-0.0284183	0.218968	0.0911288	3.57874	5.32466e-06	5.56099e-06	3.83292e-06	2.28699e-06	4.07259e-06	4.21966e-06	0.134891	0.0503008	0.377691	1.04405e-05	3.97693e-05	7.33871e-06	2.72712e-05	4.92993e-06	8.61837e-06	7.66316	0.070769	7.66349	0.529109	1.83815e+06	1.99044e+08	1.99052e+08	-89.4709	0.0000000E+000	0.0000000E+000	0.0000000E+000	89.4709	0.0000000E+000	0.0000000E+000	0.0000000E+000	-89.4709	0.0000000E+000	0.0000000E+000	0.0000000E+000	-0.529109	0.0000000E+000	0.0000000E+000	0.0000000E+000	0.529109	108.284	89.4709	-0.000202275
4.87216	0.130514	0.00125949	0.13052	-0.552899	65.1484	-0.000205428	-1.83797	2.59362e+07	2415.12	1	37	0.0051139	0.039181	0	-0.029278	0.202539	0.0783495	3.96796	1.46517e-06	3.68424e-06	5.71872e-06	4.96211e-06	4.05715e-06	2.84393e-06	0.126724	0.051307	0.39937	1.09041e-05	3.72099e-05	9.02761e-06	2.67278e-05	8.16689e-06	6.61847e-06	7.66131	0.0739332	7.66166	0.552899	2.41513e+06	2.50266e+08	2.50278e+08	-89.4471	0.0000000E+000	0.0000000E+000	0.0000000E+000	89.4471	0.0000000E+000	0.0000000E+000	0.0000000E+000	-89.4471	0.0000000E+000	0.0000000E+000	0.0000000E+000	-0.552899	0.0000000E+000	0.0000000E+000	0.0000000E+000	0.552899	103.625	89.4471	-0.000859772
3.8714	0.130732	0.00131275	0.130738	-0.575318	67.1116	-0.000207992	-1.8615	3.13163e+07	3157.38	1	37	0.00511472	0.0391217	0	-0.0303338	0.166933	0.0566105	3.14049	3.89123e-06	3.89371e-06	3.04067e-06	2.70333e-06	2.68716e-06	3.72721e-06	0.143333	0.0489956	0.349227	5.55757e-06	3.45584e-05	3.01708e-05	2.70982e-05	9.04477e-06	7.43747e-06	7.64848	0.0768024	7.64886	0.575318	3.15737e+06	3.14432e+08	3.14448e+08	-89.4247	0.0000000E+000	0.0000000E+000	0.0000000E+000	89.4247	0.0000000E+000	0.0000000E+000	0.0000000E+000	-89.4247	0.0000000E+000	0.0000000E+000	0.0000000E+000	-0.575318	0.0000000E+000	0.0000000E+000	0.0000000E+000	0.575318	99.5865	89.4247	-0.00105578
3.07821	0.130836	0.0014593	0.130844	-0.63903	69.4747	-0.000219393	-1.90322	3.54305e+07	4407.14	1	37	0.00511329	0.0390793	0	-0.0312382	0.171979	0.0907693	2.55088	3.85854e-06	4.87076e-06	3.56954e-06	2.38377e-06	2.24591e-06	3.35477e-06	0.105833	0.0588123	0.32445	5.55283e-06	2.70567e-05	1.12674e-05	2.27506e-05	1.3772e-05	6.57075e-06	7.64221	0.0852385	7.64269	0.63903	4.40714e+06	3.9513e+08	3.95155e+08	-89.361	0.0000000E+000	0.0000000E+000	0.0000000E+000	89.361	0.0000000E+000	0.0000000E+000	0.0000000E+000	-89.361	0.0000000E+000	0.0000000E+000	0.0000000E+000	-0.63903	0.0000000E+000	0.0000000E+000	0.0000000E+000	0.63903	89.6568	89.361	-0.000904391
2.44752	0.13103	0.0016028	0.13104	-0.700821	72.3393	-0.000215889	-1.94046	4.05709e+07	6069.63	1	37	0.00511427	0.0390283	0	-0.0327727	0.114569	0.05161	2.29808	2.79315e-06	1.38202e-06	2.89631e-06	2.11864e-06	2.12629e-06	1.96077e-06	0.149543	0.0534333	0.301228	1.23851e-05	2.78685e-05	1.17315e-05	2.7301e-05	8.60224e-06	3.81136e-05	7.63067	0.0933402	7.63124	0.700821	6.06963e+06	4.96199e+08	4.96236e+08	-89.2992	0.0000000E+000	0.0000000E+000	0.0000000E+000	89.2992	0.0000000E+000	0.0000000E+000	0.0000000E+000	-89.2992	0.0000000E+000	0.0000000E+000	0.0000000E+000	-0.700821	0.0000000E+000	0.0000000E+000	0.0000000E+000	0.700821	81.7511	89.2992	-0.00153454
1.94632	0.131199	0.00178439	0.131212	-0.779209	75.8419	-0.000213982	-1.89457	4.58265e+07	8475.26	1	37	0.00511425	0.0389771	0	-0.0346533	0.147538	0.0776055	2.0895	1.94784e-06	3.59512e-06	2.31803e-06	3.32831e-06	2.56292e-06	1.98806e-06	0.134444	0.0484275	0.29823	5.40654e-06	3.00158e-05	5.24536e-06	3.88614e-05	7.70807e-06	2.94404e-06	7.62057	0.103644	7.62128	0.779209	8.47529e+06	6.23153e+08	6.2321e+08	-89.2208	0.0000000E+000	0.0000000E+000	0.0000000E+000	89.2208	0.0000000E+000	0.0000000E+000	0.0000000E+000	-89.2208	0.0000000E+000	0.0000000E+000	0.0000000E+000	-0.779209	0.0000000E+000	0.0000000E+000	0.0000000E+000	0.779209	73.5261	89.2208	-0.00188051
1.54902	0.131321	0.002158	0.131339	-0.941457	80.1457	-0.000203736	-1.78784	4.76115e+07	12853.7	1	37	0.00511372	0.0389354	0	-0.0387475	0.130182	0.0584759	1.79227	3.29792e-06	3.84713e-06	1.31504e-06	2.98009e-06	1.68246e-06	1.99805e-06	0.13266	0.0696486	0.291922	6.82997e-06	3.23755e-05	1.46656e-05	2.96809e-05	1.86423e-05	7.41777e-06	7.61287	0.125102	7.6139	0.941457	1.28537e+07	7.82188e+08	7.82294e+08	-89.0585	0.0000000E+000	0.0000000E+000	0.0000000E+000	89.0585	0.0000000E+000	0.0000000E+000	0.0000000E+000	-89.0585	0.0000000E+000	0.0000000E+000	0.0000000E+000	-0.941457	0.0000000E+000	0.0000000E+000	0.0000000E+000	0.941457	60.8532	89.0585	-0.00409423
1.23128	0.131568	0.00260291	0.131594	-1.13338	85.4618	-0.000203135	-1.7472	4.96596e+07	19428.9	1	37	0.00511515	0.0388706	0	-0.0391661	0.126012	0.0633026	1.61836	1.71741e-06	3.97519e-06	1.8267e-06	3.00573e-06	2.46714e-06	1.65363e-06	0.113186	0.0548073	0.290482	8.59798e-06	2.89372e-05	2.61275e-06	2.96768e-05	6.69583e-06	7.23507e-06	7.59764	0.15031	7.59913	1.13338	1.9429e+07	9.82066e+08	9.82259e+08	-88.8666	0.0000000E+000	0.0000000E+000	0.0000000E+000	88.8666	0.0000000E+000	0.0000000E+000	0.0000000E+000	-88.8666	0.0000000E+000	0.0000000E+000	0.0000000E+000	-1.13338	0.0000000E+000	0.0000000E+000	0.0000000E+000	1.13338	50.5466	88.8666	-0.000418618
0.978641	0.13236	0.00302132	0.132394	-1.30764	92.0358	-0.000208118	-1.80274	5.3827e+07	28032.1	1	37	0.00511418	0.0386284	0	-0.0451314	0.134914	0.0647067	1.42285	1.3e-06	5.20725e-06	1.36931e-06	2.47471e-06	1.88463e-06	2.14609e-06	0.128854	0.0717807	0.287125	1.01731e-05	3.28424e-05	9.12429e-06	3.01731e-05	7.68699e-06	1.02455e-05	7.55123	0.172369	7.5532	1.30764	2.80321e+07	1.22805e+09	1.22837e+09	-88.6924	0.0000000E+000	0.0000000E+000	0.0000000E+000	88.6924	0.0000000E+000	0.0000000E+000	0.0000000E+000	-88.6924	0.0000000E+000	0.0000000E+000	0.0000000E+000	-1.30764	0.0000000E+000	0.0000000E+000	0.0000000E+000	1.30764	43.8086	88.6924	-0.00596531
0.778176	0.13318	0.00320831	0.133218	-1.37999	100.204	-0.000192943	-1.7699	6.3748e+07	36973.5	1	37	0.0051118	0.0383716	0	-0.0453753	0.132849	0.0733831	1.23874	1.93048e-06	5.19413e-06	2.02724e-06	1.85505e-06	1.6559e-06	1.47408e-06	0.1371	0.0634412	0.293722	1.08735e-05	3.54293e-05	1.27285e-05	3.1278e-05	9.43921e-06	5.26693e-06	7.5043	0.180779	7.50648	1.37999	3.69734e+07	1.5348e+09	1.53525e+09	-88.62	0.0000000E+000	0.0000000E+000	0.0000000E+000	88.62	0.0000000E+000	0.0000000E+000	0.0000000E+000	-88.62	0.0000000E+000	0.0000000E+000	0.0000000E+000	-1.37999	0.0000000E+000	0.0000000E+000	0.0000000E+000	1.37999	41.5109	88.62	-0.000243859
0.618591	0.134097	0.00315753	0.134134	-1.34888	110.395	-0.000181955	-1.7727	8.14833e+07	45153.1	1	37	0.00511501	0.0381336	0	-0.0521636	0.11196	0.0897655	1.11227	2.17975e-06	3.50744e-06	9.68661e-07	2.69764e-06	1.26356e-06	1.51574e-06	0.114425	0.0783121	0.289859	9.92925e-06	2.57688e-05	1.09452e-05	2.92246e-05	8.89571e-06	5.08728e-06	7.45317	0.175497	7.45524	1.34888	4.51531e+07	1.9176e+09	1.91813e+09	-88.6511	0.0000000E+000	0.0000000E+000	0.0000000E+000	88.6511	0.0000000E+000	0.0000000E+000	0.0000000E+000	-88.6511	0.0000000E+000	0.0000000E+000	0.0000000E+000	-1.34888	0.0000000E+000	0.0000000E+000	0.0000000E+000	1.34888	42.4688	88.6511	-0.00678837
0.492188	0.134837	0.00294138	0.134869	-1.24968	123.119	-0.000181515	-1.7482	1.09935e+08	52290	1	37	0.00511169	0.0379013	0	-0.0620808	0.120264	0.0765537	0.98138	1.57416e-06	5.03809e-06	1.34363e-06	1.62317e-06	1.42517e-06	8.88738e-07	0.118207	0.0540232	0.296299	1.54809e-05	2.87006e-05	8.36158e-06	2.65341e-05	6.56741e-06	3.60812e-06	7.41286	0.161707	7.41462	1.24968	5.22901e+07	2.39704e+09	2.39761e+09	-88.7503	0.0000000E+000	0.0000000E+000	0.0000000E+000	88.7503	0.0000000E+000	0.0000000E+000	0.0000000E+000	-88.7503	0.0000000E+000	0.0000000E+000	0.0000000E+000	-1.24968	0.0000000E+000	0.0000000E+000	0.0000000E+000	1.24968	45.8412	88.7503	-0.00991718
0.391114	0.13555	0.0026171	0.135575	-1.10609	139.048	-0.00018188	-1.77206	1.55488e+08	57940	1	37	0.00511197	0.0377059	0	-0.0660927	0.100376	0.0619288	0.878244	1.29874e-06	3.39333e-06	1.31785e-06	2.55352e-06	1.05819e-06	1.09617e-06	0.12605	0.0503289	0.299346	1.14679e-05	2.97195e-05	8.07794e-06	3.07486e-05	1.03141e-05	5.98119e-06	7.37463	0.142384	7.376	1.10609	5.79399e+07	3.00094e+09	3.0015e+09	-88.8939	0.0000000E+000	0.0000000E+000	0.0000000E+000	88.8939	0.0000000E+000	0.0000000E+000	0.0000000E+000	-88.8939	0.0000000E+000	0.0000000E+000	0.0000000E+000	-1.10609	0.0000000E+000	0.0000000E+000	0.0000000E+000	1.10609	51.7939	88.8939	-0.00401187
0.311199	0.136183	0.0022838	0.136203	-0.960761	158.984	-0.000180558	-1.76058	2.23936e+08	62960.6	1	37	0.00511219	0.0375337	0	-0.0709667	0.100091	0.0596333	0.792806	1.6123e-06	3.88806e-06	1.08667e-06	1.97473e-06	1.32542e-06	7.51124e-07	0.118774	0.0569243	0.282772	1.14259e-05	2.57657e-05	6.93677e-06	3.16188e-05	5.76285e-06	5.82401e-06	7.34097	0.123108	7.342	0.960761	6.29607e+07	3.75436e+09	3.75489e+09	-89.0392	0.0000000E+000	0.0000000E+000	0.0000000E+000	89.0392	0.0000000E+000	0.0000000E+000	0.0000000E+000	-89.0392	0.0000000E+000	0.0000000E+000	0.0000000E+000	-0.960761	0.0000000E+000	0.0000000E+000	0.0000000E+000	0.960761	59.6302	89.0392	-0.004874
0.247537	0.136441	0.00193959	0.136455	-0.814435	183.966	-0.00018646	-1.80486	3.31491e+08	66974.5	1	37	0.00511237	0.0374655	0	-0.0852316	0.105615	0.0529553	0.701057	2.01156e-06	3.69352e-06	7.02205e-07	2.44886e-06	1.40501e-06	1.1237e-06	0.126643	0.0658748	0.279615	1.13794e-05	2.8858e-05	9.7738e-06	3.29201e-05	5.60701e-06	6.79477e-06	7.32767	0.104167	7.32841	0.814435	6.69748e+07	4.71136e+09	4.71184e+09	-89.1856	0.0000000E+000	0.0000000E+000	0.0000000E+000	89.1856	0.0000000E+000	0.0000000E+000	0.0000000E+000	-89.1856	0.0000000E+000	0.0000000E+000	0.0000000E+000	-0.814435	0.0000000E+000	0.0000000E+000	0.0000000E+000	0.814435	70.3456	89.1856	-0.0142649
0.196714	0.136776	0.00158069	0.136785	-0.662125	215.32	-0.000195772	-1.75824	5.11846e+08	68352.6	1	37	0.0051121	0.0373733	0	-0.108623	0.11549	0.0750309	0.627144	2.0271e-06	4.57469e-06	8.68084e-07	2.1437e-06	8.86046e-07	7.95987e-07	0.121163	0.0698117	0.253812	9.60182e-06	3.18858e-05	2.63096e-06	2.85106e-05	6.60084e-06	5.23091e-06	7.31027	0.0844832	7.31076	0.662125	6.83525e+07	5.9145e+09	5.9149e+09	-89.3379	0.0000000E+000	0.0000000E+000	0.0000000E+000	89.3379	0.0000000E+000	0.0000000E+000	0.0000000E+000	-89.3379	0.0000000E+000	0.0000000E+000	0.0000000E+000	-0.662125	0.0000000E+000	0.0000000E+000	0.0000000E+000	0.662125	86.5293	89.3379	-0.0233914
0.15652	0.137	0.00134172	0.137006	-0.561113	254.645	-0.000194537	-1.82034	7.57863e+08	72682.9	1	37	0.00511117	0.0373062	0	-0.134799	0.110482	0.0732485	0.557791	1.86646e-06	4.62924e-06	1.08205e-06	1.91277e-06	5.92229e-07	7.95859e-07	0.113176	0.0782455	0.245293	7.38804e-06	2.80293e-05	4.93958e-06	2.87368e-05	6.34554e-06	4.86555e-06	7.29859	0.0714794	7.29894	0.561113	7.26827e+07	7.42148e+09	7.42184e+09	-89.4389	0.0000000E+000	0.0000000E+000	0.0000000E+000	89.4389	0.0000000E+000	0.0000000E+000	0.0000000E+000	-89.4389	0.0000000E+000	0.0000000E+000	0.0000000E+000	-0.561113	0.0000000E+000	0.0000000E+000	0.0000000E+000	0.561113	102.108	89.4389	-0.0261765
0.124396	0.13716	0.0011018	0.137164	-0.460247	304.043	-0.000198738	-1.86047	1.16121e+09	74926.8	1	37	0.00511204	0.0372694	0	-0.157524	0.10414	0.0985985	0.511464	1.31536e-06	3.89095e-06	1.12835e-06	2.56647e-06	7.73764e-07	1.24294e-06	0.121532	0.0833797	0.254228	1.06888e-05	2.84893e-05	5.88802e-06	3.07783e-05	7.01632e-06	6.09633e-06	7.29029	0.0585629	7.29053	0.460247	7.49262e+07	9.32738e+09	9.32769e+09	-89.5398	0.0000000E+000	0.0000000E+000	0.0000000E+000	89.5398	0.0000000E+000	0.0000000E+000	0.0000000E+000	-89.5398	0.0000000E+000	0.0000000E+000	0.0000000E+000	-0.460247	0.0000000E+000	0.0000000E+000	0.0000000E+000	0.460247	124.487	89.5398	-0.0227242
0.0988834	0.137353	0.000881633	0.137355	-0.367763	366.105	-0.000190945	-1.73309	1.82561e+09	75213	1	37	0.00511151	0.0372137	0	-0.175569	0.109942	0.0829526	0.459294	1.61194e-06	4.2092e-06	9.15652e-07	2.91801e-06	8.87886e-07	7.94565e-07	0.114448	0.107358	0.240189	4.68012e-06	2.59499e-05	5.8117e-06	3.13384e-05	7.58519e-06	5.7789e-06	7.28023	0.04673	7.28038	0.367763	7.52124e+07	1.17177e+10	1.17179e+10	-89.6322	0.0000000E+000	0.0000000E+000	0.0000000E+000	89.6322	0.0000000E+000	0.0000000E+000	0.0000000E+000	-89.6322	0.0000000E+000	0.0000000E+000	0.0000000E+000	-0.367763	0.0000000E+000	0.0000000E+000	0.0000000E+000	0.367763	155.793	89.6322	-0.0180456
0.0786856	0.13747	0.000736956	0.137472	-0.307151	444.018	-0.000195039	-1.78888	2.74463e+09	78874.7	1	37	0.00511299	0.0371929	0	-0.199492	0.111855	0.102262	0.419422	9.99162e-07	4.32172e-06	1.5205e-06	2.39684e-06	1.66204e-06	8.06315e-07	0.129734	0.0885383	0.237986	9.16984e-06	2.6581e-05	5.14956e-06	3.5584e-05	1.25137e-05	4.31128e-06	7.2741	0.0389953	7.27421	0.307151	7.88749e+07	1.47131e+10	1.47133e+10	-89.6928	0.0000000E+000	0.0000000E+000	0.0000000E+000	89.6928	0.0000000E+000	0.0000000E+000	0.0000000E+000	-89.6928	0.0000000E+000	0.0000000E+000	0.0000000E+000	-0.307151	0.0000000E+000	0.0000000E+000	0.0000000E+000	0.307151	186.538	89.6928	-0.0239229
0.062544	0.137518	0.0005727	0.137519	-0.238609	541.958	-0.000175522	-1.51691	4.44331e+09	77061	1	37	0.00511495	0.0371944	0	-0.235455	0.0933754	0.151631	0.376038	1.41824e-06	3.45834e-06	1.0201e-06	1.94561e-06	1.25225e-06	1.10486e-06	0.116388	0.143891	0.225074	1.66838e-05	2.10698e-05	4.5308e-06	2.85291e-05	1.14684e-05	6.17384e-06	7.27165	0.0302831	7.27171	0.238609	7.70609e+07	1.85041e+10	1.85042e+10	-89.7614	0.0000000E+000	0.0000000E+000	0.0000000E+000	89.7614	0.0000000E+000	0.0000000E+000	0.0000000E+000	-89.7614	0.0000000E+000	0.0000000E+000	0.0000000E+000	-0.238609	0.0000000E+000	0.0000000E+000	0.0000000E+000	0.238609	240.122	89.7614	-0.0359631
0.0497507	0.137439	0.000452321	0.13744	-0.188564	665.003	-0.000195813	-1.71438	7.07252e+09	76602.8	1	37	0.00511197	0.0371943	0	-0.302776	0.0989969	0.122698	0.34217	1.608e-06	3.83984e-06	1.81879e-06	1.75368e-06	5.05238e-07	8.18463e-07	0.114492	0.148465	0.214699	1.32327e-05	2.70025e-05	6.73027e-06	2.72964e-05	4.47996e-06	6.65442e-06	7.27589	0.0239455	7.27593	0.188564	7.66014e+07	2.32759e+10	2.32761e+10	-89.8114	0.0000000E+000	0.0000000E+000	0.0000000E+000	89.8114	0.0000000E+000	0.0000000E+000	0.0000000E+000	-89.8114	0.0000000E+000	0.0000000E+000	0.0000000E+000	-0.188564	0.0000000E+000	0.0000000E+000	0.0000000E+000	0.188564	303.852	89.8114	-0.0673209
0.0395203	0.137299	0.000445431	0.1373	-0.18588	819.82	-0.000191487	-1.69527	9.04108e+09	95156.8	1	37	0.00511008	0.0372184	0	-0.405407	0.110576	0.13394	0.322637	1.62806e-06	4.27289e-06	1.20309e-06	2.44103e-06	1.16913e-06	6.25029e-07	0.13603	0.153796	0.218571	9.72039e-06	2.88031e-05	6.76784e-06	3.61316e-05	8.06207e-06	6.78208e-06	7.28329	0.0236287	7.28333	0.18588	9.5158e+07	2.93311e+10	2.93312e+10	-89.8141	0.0000000E+000	0.0000000E+000	0.0000000E+000	89.8141	0.0000000E+000	0.0000000E+000	0.0000000E+000	-89.8141	0.0000000E+000	0.0000000E+000	0.0000000E+000	-0.18588	0.0000000E+000	0.0000000E+000	0.0000000E+000	0.18588	308.239	89.8141	-0.102631
0.0314526	0.13723	0.000296896	0.13723	-0.123959	1014.27	-0.000184573	-1.63176	1.70436e+10	79775.3	1	37	0.00511074	0.0372421	0	-0.525893	0.104779	0.161297	0.292047	1.99866e-06	3.60473e-06	9.50497e-07	2.78443e-06	6.29218e-07	5.83951e-07	0.11975	0.160611	0.215159	1.21939e-05	1.76532e-05	6.35243e-06	3.58988e-05	9.52957e-06	7.23436e-06	7.287	0.0157654	7.28702	0.123959	7.97777e+07	3.68734e+10	3.68735e+10	-89.876	0.0000000E+000	0.0000000E+000	0.0000000E+000	89.876	0.0000000E+000	0.0000000E+000	0.0000000E+000	-89.876	0.0000000E+000	0.0000000E+000	0.0000000E+000	-0.123959	0.0000000E+000	0.0000000E+000	0.0000000E+000	0.123959	462.216	89.876	-0.120487
0.0250094	0.13698	0.000297586	0.13698	-0.124474	1258.73	-0.000206019	-1.72346	2.13847e+10	100928	1	37	0.00511338	0.0373293	0	-0.653047	0.116502	0.178392	0.26652	2.43028e-06	4.34706e-06	1.56546e-06	2.1426e-06	8.96726e-07	7.15723e-07	0.129643	0.154528	0.188081	2.17021e-05	2.85029e-05	1.59898e-05	2.5999e-05	5.74234e-06	6.0815e-06	7.3003	0.0158597	7.30032	0.124474	1.00928e+08	4.64576e+10	4.64577e+10	-89.8755	0.0000000E+000	0.0000000E+000	0.0000000E+000	89.8755	0.0000000E+000	0.0000000E+000	0.0000000E+000	-89.8755	0.0000000E+000	0.0000000E+000	0.0000000E+000	-0.124474	0.0000000E+000	0.0000000E+000	0.0000000E+000	0.124474	460.304	89.8755	-0.127154