File: Python/Experiments/IRFB/240415-Felt-0p5M_FeCl2FeCl23-1M_HCl/Data/240416-EIS-0p5M_FeCl2FeCl3-1M_HCl-05mLmin_Dampened-25mHz_10ppd_C15.mpt
EC-Lab ASCII FILE
Nb header lines : 66

Potentio Electrochemical Impedance Spectroscopy

Run on channel : 15 (SN 19485)
User :
Electrode connection : standard
Potential control : Ewe
Ewe ctrl range : min = -1.00 V, max = 1.00 V
Ewe,I filtering : <None>
Safety Limits :
	Do not start on E overload
Channel : Floating
Acquisition started on : 04/16/2024 14:05:59.642
Loaded Setting File :  NONE
Saved on :
	File : 240416-EIS-0p5M_FeCl2FeCl3-1M_HCl-05mLmin_Dampened-25mHz_10ppd_C15.mpr
	Directory : C:\Data\mathias\IRFB\
	Host : 192.168.0.1
Device : VMP-300 (SN 0826)
Address : USB
EC-Lab for windows v11.52 (software)
Internet server v11.52 (firmware)
Command interpretor v11.52 (firmware)
Electrode material :
Initial state :
Electrolyte :
Comments :
Cable : special
Electrode surface area : 0.001 cm²
Characteristic mass : 0.001 g
Equivalent Weight : 0.000 g/eq.
Density : 0.000 g/cm3
Volume (V) : 0.001 cm³
Record EIS quality indicators
Cycle Definition : Charge/Discharge alternance
Mode                Single sine
E (V)               0.0000
vs.                 Eoc
tE (h:m:s)          0:00:0.0000
record              0
dI                  0.000
unit dI             mA
dt (s)              0.000
fi                  920.000
unit fi             kHz
ff                  25.000
unit ff             mHz
Nd                  10
Points              per decade
spacing             Logarithmic
Va (mV)             5.0
pw                  0.10
Na                  3
corr                0
E range min (V)     -1.000
E range max (V)     1.000
I Range             Auto
Bandwidth           8
nc cycles           0
goto Ns'            0
nr cycles           0
inc. cycle          1

freq/Hz	Re(Z)/Ohm	-Im(Z)/Ohm	|Z|/Ohm	Phase(Z)/deg	time/s	<Ewe>/V	<I>/mA	Cs/µF	Cp/µF	cycle number	I Range	|Ewe|/V	|I|/A	Ns	(Q-Qo)/mA.h	THD Ewe/%	NSD Ewe/%	NSR Ewe/%	|Ewe h2|/V	|Ewe h3|/V	|Ewe h4|/V	|Ewe h5|/V	|Ewe h6|/V	|Ewe h7|/V	THD I/%	NSD I/%	NSR I/%	|I h2|/A	|I h3|/A	|I h4|/A	|I h5|/A	|I h6|/A	|I h7|/A	Re(Y)/Ohm-1	Im(Y)/Ohm-1	|Y|/Ohm-1	Phase(Y)/deg	Re(C)/nF	Im(C)/nF	|C|/nF	Phase(C)/deg	Re(M)	Im(M)	|M|	Phase(M)/deg	Re(Permittivity)	Im(Permittivity)	|Permittivity|	Phase(Permittivity)/deg	Re(Resistivity)/Ohm.cm	Im(Resistivity)/Ohm.cm	|Resistivity|/Ohm.cm	Phase(Resistivity)/deg	Re(Conductivity)/mS/cm	Im(Conductivity)/mS/cm	|Conductivity|/mS/cm	Phase(Conductivity)/deg	Tan(Delta)	Loss Angle(Delta)/deg	dq/mA.h
920001	-0.0976231	-0.220254	0.240919	113.904	1.97748	-7.99263e-05	-0.449186	-0.785433	-0.656468	1	37	0.000709598	0.00294538	0	-0.000264527	-1	-1	-1	0	0	0	0	0	0	-1	-1	-1	0	0	0	0	0	0	-1.68194	-3.79473	4.15078	-113.904	-656.468	-290.967	718.061	156.096	0.0000000E+000	0.0000000E+000	0.0000000E+000	-156.096	0.0000000E+000	0.0000000E+000	0.0000000E+000	156.096	0.0000000E+000	0.0000000E+000	0.0000000E+000	113.904	0.0000000E+000	0.0000000E+000	0.0000000E+000	-113.904	0.443231	23.9044	-0.000264527
731536	-0.0255328	-0.120674	0.123346	101.947	3.12649	-9.24715e-05	-0.502154	-1.80289	-1.72564	1	37	0.000590669	0.00478872	0	-0.000418787	-1	-1	-1	0	0	0	0	0	0	-1	-1	-1	0	0	0	0	0	0	-1.67821	-7.93167	8.10727	-101.947	-1725.64	-365.117	1763.84	168.053	0.0000000E+000	0.0000000E+000	0.0000000E+000	-168.053	0.0000000E+000	0.0000000E+000	0.0000000E+000	168.053	0.0000000E+000	0.0000000E+000	0.0000000E+000	101.947	0.0000000E+000	0.0000000E+000	0.0000000E+000	-101.947	0.211584	11.9467	-0.000154261
581679	0.0247085	-0.0726609	0.0767471	71.2193	4.27348	-8.72894e-05	-0.391212	-3.76562	-3.37531	1	37	0.000572169	0.00745525	0	-0.000568889	-1	-1	-1	0	0	0	0	0	0	-1	-1	-1	0	0	0	0	0	0	4.1949	-12.3361	13.0298	-71.2193	-3375.31	1147.78	3565.13	-161.219	0.0000000E+000	0.0000000E+000	0.0000000E+000	161.219	0.0000000E+000	0.0000000E+000	0.0000000E+000	-161.219	0.0000000E+000	0.0000000E+000	0.0000000E+000	71.2193	0.0000000E+000	0.0000000E+000	0.0000000E+000	-71.2193	0.340052	18.7807	-0.000150102
462524	0.0511431	-0.0498912	0.0714475	44.2901	5.42049	-8.66183e-05	-0.437796	-6.89703	-3.36306	1	37	0.000758023	0.0106095	0	-0.000714737	-1	-1	-1	0	0	0	0	0	0	-1	-1	-1	0	0	0	0	0	0	10.0187	-9.77349	13.9963	-44.2901	-3363.06	3447.46	4816.13	-134.29	0.0000000E+000	0.0000000E+000	0.0000000E+000	134.29	0.0000000E+000	0.0000000E+000	0.0000000E+000	-134.29	0.0000000E+000	0.0000000E+000	0.0000000E+000	44.2901	0.0000000E+000	0.0000000E+000	0.0000000E+000	-44.2901	1.02509	45.7099	-0.000145849
367781	0.0652692	-0.0373404	0.0751956	29.7738	6.56848	-9.52676e-05	-0.440643	-11.5891	-2.85776	1	37	0.00115766	0.0153954	0	-0.000851254	-1	-1	-1	0	0	0	0	0	0	-1	-1	-1	0	0	0	0	0	0	11.5431	-6.60382	13.2987	-29.7738	-2857.76	4995.21	5754.91	-119.774	0.0000000E+000	0.0000000E+000	0.0000000E+000	119.774	0.0000000E+000	0.0000000E+000	0.0000000E+000	-119.774	0.0000000E+000	0.0000000E+000	0.0000000E+000	29.7738	0.0000000E+000	0.0000000E+000	0.0000000E+000	-29.7738	1.74795	60.2262	-0.000136517
292440	0.0733754	-0.0280547	0.0785558	20.9241	7.71548	-7.87146e-05	-0.359368	-19.399	-2.47418	1	37	0.00176519	0.0224706	0	-0.000968819	-1	-1	-1	0	0	0	0	0	0	-1	-1	-1	0	0	0	0	0	0	11.8903	-4.5462	12.7298	-20.9241	-2474.18	6471.09	6927.96	-110.924	0.0000000E+000	0.0000000E+000	0.0000000E+000	110.924	0.0000000E+000	0.0000000E+000	0.0000000E+000	-110.924	0.0000000E+000	0.0000000E+000	0.0000000E+000	20.9241	0.0000000E+000	0.0000000E+000	0.0000000E+000	-20.9241	2.61545	69.0759	-0.000117565
232529	0.0779137	-0.0215213	0.0808314	15.4412	8.86448	-9.5193e-05	-0.423632	-31.8035	-2.25451	1	37	0.00262071	0.032422	0	-0.00111605	-1	-1	-1	0	0	0	0	0	0	-1	-1	-1	0	0	0	0	0	0	11.9249	-3.29389	12.3714	-15.4412	-2254.51	8162.02	8467.67	-105.441	0.0000000E+000	0.0000000E+000	0.0000000E+000	105.441	0.0000000E+000	0.0000000E+000	0.0000000E+000	-105.441	0.0000000E+000	0.0000000E+000	0.0000000E+000	15.4412	0.0000000E+000	0.0000000E+000	0.0000000E+000	-15.4412	3.6203	74.5588	-0.000147234
184902	0.080595	-0.0158761	0.0821438	11.1438	10.0115	-9.45592e-05	-0.394952	-54.217	-2.02522	1	37	0.00378401	0.0460658	0	-0.00132081	-1	-1	-1	0	0	0	0	0	0	-1	-1	-1	0	0	0	0	0	0	11.9442	-2.35285	12.1738	-11.1438	-2025.22	10281	10478.6	-101.144	0.0000000E+000	0.0000000E+000	0.0000000E+000	101.144	0.0000000E+000	0.0000000E+000	0.0000000E+000	-101.144	0.0000000E+000	0.0000000E+000	0.0000000E+000	11.1438	0.0000000E+000	0.0000000E+000	0.0000000E+000	-11.1438	5.07651	78.8562	-0.000204756
147018	0.0824059	-0.011273	0.0831733	7.78964	11.0245	-8.85754e-05	-0.393537	-96.0307	-1.76409	1	37	0.00533199	0.064107	0	-0.00146069	-1	-1	-1	0	0	0	0	0	0	-1	-1	-1	0	0	0	0	0	0	11.9121	-1.62956	12.0231	-7.78964	-1764.09	12895.5	13015.6	-97.7896	0.0000000E+000	0.0000000E+000	0.0000000E+000	97.7896	0.0000000E+000	0.0000000E+000	0.0000000E+000	-97.7896	0.0000000E+000	0.0000000E+000	0.0000000E+000	7.78964	0.0000000E+000	0.0000000E+000	0.0000000E+000	-7.78964	7.31001	82.2104	-0.000139879
116909	0.0837087	-0.00724227	0.0840214	4.94478	12.1725	-8.65436e-05	-0.377736	-187.974	-1.39658	1	37	0.00526381	0.0626485	0	-0.0016706	-1	-1	-1	0	0	0	0	0	0	-1	-1	-1	0	0	0	0	0	0	11.8574	-1.02588	11.9017	-4.94478	-1396.58	16142.2	16202.5	-94.9448	0.0000000E+000	0.0000000E+000	0.0000000E+000	94.9448	0.0000000E+000	0.0000000E+000	0.0000000E+000	-94.9448	0.0000000E+000	0.0000000E+000	0.0000000E+000	4.94478	0.0000000E+000	0.0000000E+000	0.0000000E+000	-4.94478	11.5583	85.0552	-0.000209911
92961.3	0.0850272	-0.00419561	0.0851306	2.82493	13.3205	-0.000100058	-0.433849	-408.059	-0.991153	1	37	0.00523911	0.061542	0	-0.0017471	0.292118	0.162924	6.16767	8.1189e-06	5.77556e-06	3.74872e-06	2.00634e-06	8.6544e-06	3.57187e-06	0.0978659	0.0144215	0.35321	1.0281e-05	5.88035e-05	5.19599e-06	3.29104e-06	2.17065e-06	2.36627e-06	11.7324	-0.578926	11.7467	-2.82493	-991.153	20086.5	20110.9	-92.8249	0.0000000E+000	0.0000000E+000	0.0000000E+000	92.8249	0.0000000E+000	0.0000000E+000	0.0000000E+000	-92.8249	0.0000000E+000	0.0000000E+000	0.0000000E+000	2.82493	0.0000000E+000	0.0000000E+000	0.0000000E+000	-2.82493	20.2658	87.1751	-7.64954e-05
73912.6	0.0860332	-0.00146347	0.0860456	0.974537	14.4685	-0.000106918	-0.451455	-1471.36	-0.425626	1	37	0.00522195	0.0606882	0	-0.00198602	0.28046	0.187187	6.15832	4.22264e-06	7.31217e-06	6.07751e-06	5.35024e-06	6.23613e-06	4.09304e-06	0.104848	0.021994	0.356989	1.17169e-05	6.15426e-05	3.5393e-06	7.15234e-06	4.5585e-06	3.08646e-06	11.6201	-0.197663	11.6217	-0.974537	-425.627	25021.3	25024.9	-90.9745	0.0000000E+000	0.0000000E+000	0.0000000E+000	90.9745	0.0000000E+000	0.0000000E+000	0.0000000E+000	-90.9745	0.0000000E+000	0.0000000E+000	0.0000000E+000	0.974537	0.0000000E+000	0.0000000E+000	0.0000000E+000	-0.974537	58.7871	89.0255	-0.000238921
58770	0.0870233	0.000857512	0.0870275	-0.564564	15.6175	-9.54166e-05	-0.418123	3158.08	0.306614	1	37	0.00521813	0.0599596	0	-0.002008	0.320339	0.21862	6.19857	4.23286e-06	9.08322e-06	3.32876e-06	4.77169e-06	7.84082e-06	6.57556e-06	0.104339	0.0513928	0.364272	8.78833e-06	6.11177e-05	6.04949e-06	3.14476e-06	5.00732e-06	3.25556e-06	11.4901	0.113221	11.4906	0.564564	306.615	31116.2	31117.7	-89.4354	0.0000000E+000	0.0000000E+000	0.0000000E+000	89.4354	0.0000000E+000	0.0000000E+000	0.0000000E+000	-89.4354	0.0000000E+000	0.0000000E+000	0.0000000E+000	-0.564564	0.0000000E+000	0.0000000E+000	0.0000000E+000	0.564564	101.483	89.4354	-2.19811e-05
46735.8	0.0883301	0.00311543	0.088385	-2.02	16.7655	-0.000102668	-0.454042	1093.08	1.3581	1	37	0.00520752	0.0589186	0	-0.0022905	0.378866	0.247943	6.17805	7.94908e-06	1.09163e-05	8.75285e-06	4.40131e-06	6.40737e-06	6.44437e-06	0.12459	0.0163083	0.366521	3.32154e-06	7.28614e-05	3.15101e-06	5.42884e-06	2.65465e-06	3.41932e-06	11.3071	0.398805	11.3141	2.02	1358.1	38505.4	38529.3	-87.98	0.0000000E+000	0.0000000E+000	0.0000000E+000	87.98	0.0000000E+000	0.0000000E+000	0.0000000E+000	-87.98	0.0000000E+000	0.0000000E+000	0.0000000E+000	-2.02	0.0000000E+000	0.0000000E+000	0.0000000E+000	2.02	28.3525	87.98	-0.000282503
37160.4	0.0895614	0.00508564	0.0897057	-3.24999	17.9135	-9.27323e-05	-0.435022	842.158	2.70674	1	37	0.00520071	0.0579752	0	-0.00242568	0.366876	0.170921	6.22571	5.19549e-06	1.14292e-05	7.42662e-06	7.07054e-06	5.08906e-06	5.23447e-06	0.130338	0.0468093	0.376332	9.23058e-06	7.4182e-05	4.15567e-06	7.84224e-06	3.73414e-06	3.03167e-06	11.1296	0.631984	11.1476	3.24999	2706.73	47667.3	47744.1	-86.75	0.0000000E+000	0.0000000E+000	0.0000000E+000	86.75	0.0000000E+000	0.0000000E+000	0.0000000E+000	-86.75	0.0000000E+000	0.0000000E+000	0.0000000E+000	-3.24999	0.0000000E+000	0.0000000E+000	0.0000000E+000	3.24999	17.6106	86.75	-0.000135182
29552	0.0911182	0.0067192	0.0913656	-4.21745	19.0615	-9.8921e-05	-0.416913	801.522	4.33496	1	37	0.00518896	0.0567934	0	-0.00261133	0.377298	0.1735	6.1865	9.92994e-06	7.87655e-06	5.37701e-06	6.69229e-06	2.98691e-06	9.16681e-06	0.129183	0.0183928	0.383984	1.36699e-05	7.10362e-05	4.58776e-06	9.88926e-06	3.03771e-06	4.08474e-06	10.9154	0.804919	10.945	4.21745	4334.96	58785.8	58945.4	-85.7826	0.0000000E+000	0.0000000E+000	0.0000000E+000	85.7826	0.0000000E+000	0.0000000E+000	0.0000000E+000	-85.7826	0.0000000E+000	0.0000000E+000	0.0000000E+000	-4.21745	0.0000000E+000	0.0000000E+000	0.0000000E+000	4.21745	13.5609	85.7826	-0.000185644
23493.2	0.0928093	0.0081216	0.0931639	-5.00113	20.2095	-9.23595e-05	-0.403401	834.137	6.33905	1	37	0.00518311	0.0556342	0	-0.00272488	0.280035	0.111531	6.12973	6.4889e-06	8.30933e-06	4.7122e-06	5.8089e-06	3.70138e-06	2.80991e-06	0.122826	0.00917837	0.387636	3.03193e-06	6.71601e-05	3.90252e-06	9.74256e-06	3.37529e-06	3.54152e-06	10.6929	0.93572	10.7338	5.00113	6339.06	72439.3	72716.1	-84.9989	0.0000000E+000	0.0000000E+000	0.0000000E+000	84.9989	0.0000000E+000	0.0000000E+000	0.0000000E+000	-84.9989	0.0000000E+000	0.0000000E+000	0.0000000E+000	-5.00113	0.0000000E+000	0.0000000E+000	0.0000000E+000	5.00113	11.4275	84.9989	-0.000113559
18677.6	0.0948694	0.00934214	0.0953282	-5.624	21.3575	-0.000103208	-0.412837	912.12	8.75995	1	37	0.00518563	0.0543977	0	-0.00294154	0.373668	0.194661	6.31745	6.43645e-06	8.90079e-06	7.56483e-06	5.17865e-06	4.11088e-06	1.12726e-05	0.117214	0.0313824	0.400608	4.54285e-06	6.25851e-05	2.22184e-06	8.66869e-06	3.95795e-06	4.59452e-06	10.4396	1.02802	10.4901	5.624	8759.96	88957.2	89387.5	-84.376	0.0000000E+000	0.0000000E+000	0.0000000E+000	84.376	0.0000000E+000	0.0000000E+000	0.0000000E+000	-84.376	0.0000000E+000	0.0000000E+000	0.0000000E+000	-5.624	0.0000000E+000	0.0000000E+000	0.0000000E+000	5.624	10.155	84.376	-0.000216657
14854.9	0.0968503	0.0103698	0.0974039	-6.1114	22.5055	-9.24341e-05	-0.38948	1033.19	11.7103	1	37	0.00517301	0.0531089	0	-0.00311003	0.293945	0.157747	6.18231	7.13449e-06	6.33914e-06	5.47587e-06	4.82469e-06	5.30435e-06	5.68478e-06	0.106547	0.0223466	0.406852	4.93375e-06	5.53606e-05	3.14298e-06	6.10114e-06	5.8449e-06	2.96047e-06	10.2082	1.09299	10.2665	6.1114	11710.3	109370	109995	-83.8886	0.0000000E+000	0.0000000E+000	0.0000000E+000	83.8886	0.0000000E+000	0.0000000E+000	0.0000000E+000	-83.8886	0.0000000E+000	0.0000000E+000	0.0000000E+000	-6.1114	0.0000000E+000	0.0000000E+000	0.0000000E+000	6.1114	9.33965	83.8886	-0.000168484
11811.5	0.0989197	0.011003	0.0995297	-6.347	23.6535	-0.000106526	-0.392718	1224.63	14.9664	1	37	0.00515364	0.0517799	0	-0.00331847	0.317476	0.135617	6.17071	3.55398e-06	6.99275e-06	6.28263e-06	9.76808e-06	2.25668e-06	6.19668e-06	0.0933236	0.053316	0.424567	5.74005e-06	4.67606e-05	4.55293e-06	5.78303e-06	4.10426e-06	5.18589e-06	9.98567	1.11072	10.0472	6.347	14966.4	134552	135382	-83.653	0.0000000E+000	0.0000000E+000	0.0000000E+000	83.653	0.0000000E+000	0.0000000E+000	0.0000000E+000	-83.653	0.0000000E+000	0.0000000E+000	0.0000000E+000	-6.347	0.0000000E+000	0.0000000E+000	0.0000000E+000	6.347	8.99026	83.653	-0.000208448
9395.12	0.101182	0.0114859	0.101832	-6.47631	24.803	-0.000213058	-1.18331	1474.87	18.7634	1	37	0.00525467	0.0516013	0	-0.0035905	0.305678	0.166513	6.12696	1.63844e-06	6.76211e-06	9.33347e-06	8.14213e-06	4.62972e-06	4.59623e-06	0.121465	0.0512318	0.422271	6.47547e-06	6.07119e-05	7.13329e-06	9.48194e-06	4.76777e-06	4.4792e-06	9.75741	1.10763	9.82007	6.47631	18763.4	165292	166354	-83.5237	0.0000000E+000	0.0000000E+000	0.0000000E+000	83.5237	0.0000000E+000	0.0000000E+000	0.0000000E+000	-83.5237	0.0000000E+000	0.0000000E+000	0.0000000E+000	-6.47631	0.0000000E+000	0.0000000E+000	0.0000000E+000	6.47631	8.80927	83.5237	-0.000272026
7470.62	0.103546	0.0118175	0.104218	-6.51088	25.9972	-0.000211138	-1.10203	1802.76	23.1793	1	37	0.00520569	0.0499498	0	-0.00387386	0.280659	0.191167	6.33392	8.23969e-06	3.48963e-06	8.25631e-06	2.65619e-06	3.8713e-06	4.40026e-06	0.109776	0.0616458	0.444967	5.61264e-06	5.24806e-05	2.17365e-06	1.03879e-05	7.50116e-06	5.3577e-06	9.53335	1.08802	9.59523	6.51088	23179.3	203100	204418	-83.4891	0.0000000E+000	0.0000000E+000	0.0000000E+000	83.4891	0.0000000E+000	0.0000000E+000	0.0000000E+000	-83.4891	0.0000000E+000	0.0000000E+000	0.0000000E+000	-6.51088	0.0000000E+000	0.0000000E+000	0.0000000E+000	6.51088	8.7621	83.4891	-0.000283363
5938.89	0.105735	0.0116424	0.106374	-6.28343	27.2617	-0.000214643	-1.0786	2301.84	27.5728	1	37	0.00517482	0.0486472	0	-0.00425878	0.348697	0.141504	6.21188	8.60253e-06	6.29867e-06	8.29139e-06	8.16855e-06	5.00832e-06	4.65474e-06	0.100234	0.0157031	0.443115	4.02993e-06	4.69399e-05	4.93354e-06	8.48324e-06	4.79261e-06	4.32612e-06	9.34428	1.02888	9.40075	6.28343	27572.8	250415	251929	-83.7166	0.0000000E+000	0.0000000E+000	0.0000000E+000	83.7166	0.0000000E+000	0.0000000E+000	0.0000000E+000	-83.7166	0.0000000E+000	0.0000000E+000	0.0000000E+000	-6.28343	0.0000000E+000	0.0000000E+000	0.0000000E+000	6.28343	9.08196	83.7166	-0.000384913
4721.51	0.107882	0.0112709	0.108469	-5.96429	28.5987	-0.000222416	-1.05213	2990.77	32.2913	1	37	0.00518708	0.0478209	0	-0.00460984	0.339691	0.212143	6.35867	4.7714e-06	8.19707e-06	8.72257e-06	3.62317e-06	2.45648e-06	1.00809e-05	0.084518	0.0979857	0.464482	4.3078e-06	3.92643e-05	1.73875e-06	5.03496e-06	4.3991e-06	3.10972e-06	9.16932	0.957957	9.21923	5.96429	32291.3	309084	310766	-84.0357	0.0000000E+000	0.0000000E+000	0.0000000E+000	84.0357	0.0000000E+000	0.0000000E+000	0.0000000E+000	-84.0357	0.0000000E+000	0.0000000E+000	0.0000000E+000	-5.96429	0.0000000E+000	0.0000000E+000	0.0000000E+000	5.96429	9.57175	84.0357	-0.000351059
3753.8	0.109784	0.0108758	0.110321	-5.65758	29.9268	-0.000215966	-0.962856	3898.41	37.8871	1	37	0.00518132	0.0469657	0	-0.00487151	0.280428	0.157812	6.15198	2.00187e-06	8.54166e-06	8.28772e-06	3.70647e-06	4.25405e-06	3.22947e-06	0.0760304	0.0738933	0.476459	3.85016e-06	3.35037e-05	5.04956e-06	6.55519e-06	7.17934e-06	2.33268e-06	9.02027	0.893598	9.06442	5.65758	37887.1	382445	384317	-84.3424	0.0000000E+000	0.0000000E+000	0.0000000E+000	84.3424	0.0000000E+000	0.0000000E+000	0.0000000E+000	-84.3424	0.0000000E+000	0.0000000E+000	0.0000000E+000	-5.65758	0.0000000E+000	0.0000000E+000	0.0000000E+000	5.65758	10.0943	84.3424	-0.000261672
2985.95	0.111635	0.0101027	0.112091	-5.17105	31.2557	-0.000212741	-1.02974	5275.94	42.858	1	37	0.00514383	0.0458897	0	-0.00525934	0.302018	0.197031	6.33229	7.53409e-06	4.85011e-06	4.42218e-06	3.66502e-06	6.96896e-06	7.06118e-06	0.0710909	0.033968	0.484892	5.555e-06	2.81584e-05	3.58641e-06	5.7819e-06	6.62885e-06	1.02958e-05	8.88501	0.804072	8.92132	5.17105	42858	473582	475517	-84.829	0.0000000E+000	0.0000000E+000	0.0000000E+000	84.829	0.0000000E+000	0.0000000E+000	0.0000000E+000	-84.829	0.0000000E+000	0.0000000E+000	0.0000000E+000	-5.17105	0.0000000E+000	0.0000000E+000	0.0000000E+000	5.17105	11.05	84.829	-0.000387837
2374.24	0.11325	0.00933753	0.113634	-4.71342	32.5838	-0.000209106	-0.956398	7178.99	48.4743	1	37	0.00517324	0.0455254	0	-0.00560788	0.309	0.155882	6.31811	4.03591e-06	5.34831e-06	9.01524e-06	4.49878e-06	7.02334e-06	6.07464e-06	0.0638647	0.0326883	0.477708	4.34171e-06	2.70559e-05	1.9402e-06	6.61467e-06	4.06979e-06	3.55363e-06	8.77042	0.723129	8.80018	4.71342	48474.3	587917	589912	-85.2866	0.0000000E+000	0.0000000E+000	0.0000000E+000	85.2866	0.0000000E+000	0.0000000E+000	0.0000000E+000	-85.2866	0.0000000E+000	0.0000000E+000	0.0000000E+000	-4.71342	0.0000000E+000	0.0000000E+000	0.0000000E+000	4.71342	12.1284	85.2866	-0.000348533
1888.19	0.114614	0.00839464	0.114921	-4.18903	33.9129	-0.000220123	-0.970896	10040.9	53.5774	1	37	0.00513313	0.0446668	0	-0.00598289	0.3243	0.145652	6.3159	3.21535e-06	8.63009e-06	7.65066e-06	4.40502e-06	3.78427e-06	6.41598e-06	0.0455095	0.0470263	0.484356	5.1939e-06	1.71228e-05	4.51198e-06	4.81789e-06	5.25312e-06	2.83041e-06	8.67841	0.635633	8.70166	4.18903	53577.4	731502	733462	-85.811	0.0000000E+000	0.0000000E+000	0.0000000E+000	85.811	0.0000000E+000	0.0000000E+000	0.0000000E+000	-85.811	0.0000000E+000	0.0000000E+000	0.0000000E+000	-4.18903	0.0000000E+000	0.0000000E+000	0.0000000E+000	4.18903	13.6532	85.811	-0.000375012
1501.44	0.115759	0.00760142	0.116009	-3.75697	35.2416	-0.000222267	-1.00194	13945	59.8722	1	37	0.00514288	0.0443318	0	-0.00632994	0.317629	0.17891	6.29955	6.03719e-06	7.17951e-06	2.99752e-06	6.09113e-06	7.86208e-06	7.4721e-06	0.0364687	0.0122484	0.490293	5.0176e-06	1.07146e-05	3.02799e-06	6.05174e-06	6.52752e-06	4.06414e-06	8.60151	0.564824	8.62004	3.75697	59872.2	911773	913737	-86.243	0.0000000E+000	0.0000000E+000	0.0000000E+000	86.243	0.0000000E+000	0.0000000E+000	0.0000000E+000	-86.243	0.0000000E+000	0.0000000E+000	0.0000000E+000	-3.75697	0.0000000E+000	0.0000000E+000	0.0000000E+000	3.75697	15.2287	86.243	-0.000347052
1193.85	0.116869	0.00677586	0.117065	-3.31819	36.569	-0.000213692	-0.949512	19674.6	65.9139	1	37	0.00511727	0.0437129	0	-0.006778	0.381473	0.214481	6.41958	7.51166e-06	7.95782e-06	4.19171e-06	9.93454e-06	7.45322e-06	6.66598e-06	0.035862	0.0712716	0.514752	4.81565e-06	5.75956e-06	3.45544e-06	1.09278e-05	4.48168e-06	5.24516e-06	8.52791	0.494433	8.54223	3.31819	65913.9	1.13687e+06	1.13878e+06	-86.6818	0.0000000E+000	0.0000000E+000	0.0000000E+000	86.6818	0.0000000E+000	0.0000000E+000	0.0000000E+000	-86.6818	0.0000000E+000	0.0000000E+000	0.0000000E+000	-3.31819	0.0000000E+000	0.0000000E+000	0.0000000E+000	3.31819	17.2479	86.6818	-0.000448056
949.092	0.117691	0.00586323	0.117837	-2.85205	37.898	-0.000227449	-0.99913	28600.6	70.8083	1	37	0.00511207	0.0433825	0	-0.00705309	0.306264	0.14619	6.30721	7.41366e-06	4.48845e-06	6.68905e-06	5.01988e-06	4.92201e-06	6.26445e-06	0.035916	0.0938668	0.516418	5.6199e-06	3.56336e-06	3.79705e-06	1.11953e-05	4.61762e-06	4.14884e-06	8.47578	0.422253	8.48629	2.85205	70808.2	1.42132e+06	1.42308e+06	-87.148	0.0000000E+000	0.0000000E+000	0.0000000E+000	87.148	0.0000000E+000	0.0000000E+000	0.0000000E+000	-87.148	0.0000000E+000	0.0000000E+000	0.0000000E+000	-2.85205	0.0000000E+000	0.0000000E+000	0.0000000E+000	2.85205	20.0728	87.148	-0.000275098
754.759	0.118294	0.00511383	0.118404	-2.47534	39.2268	-0.000224839	-0.96468	41235	76.9169	1	37	0.00512181	0.0432569	0	-0.0074045	0.280429	0.216849	6.21453	5.54684e-06	6.27698e-06	2.11729e-06	6.87139e-06	2.99206e-06	6.26186e-06	0.0435812	0.0166194	0.512816	5.6269e-06	7.97514e-06	5.29573e-06	1.35135e-05	4.04627e-06	3.25738e-06	8.43775	0.364762	8.44563	2.47534	76916.8	1.77926e+06	1.78092e+06	-87.5247	0.0000000E+000	0.0000000E+000	0.0000000E+000	87.5247	0.0000000E+000	0.0000000E+000	0.0000000E+000	-87.5247	0.0000000E+000	0.0000000E+000	0.0000000E+000	-2.47534	0.0000000E+000	0.0000000E+000	0.0000000E+000	2.47534	23.1322	87.5247	-0.000351402
600.192	0.118967	0.00440399	0.119048	-2.12005	40.5557	-0.000189403	-0.974693	60212.1	82.4007	1	37	0.00500937	0.0420786	0	-0.00780252	0.332791	0.208608	6.48262	4.32791e-06	8.66382e-06	5.37647e-06	7.04701e-06	3.08453e-06	8.25515e-06	0.047036	0.0182083	0.534127	6.6465e-06	1.31333e-05	3.99543e-06	1.06e-05	3.15829e-06	4.65844e-06	8.39421	0.310743	8.39996	2.12005	82400.8	2.22592e+06	2.22745e+06	-87.88	0.0000000E+000	0.0000000E+000	0.0000000E+000	87.88	0.0000000E+000	0.0000000E+000	0.0000000E+000	-87.88	0.0000000E+000	0.0000000E+000	0.0000000E+000	-2.12005	0.0000000E+000	0.0000000E+000	0.0000000E+000	2.12005	27.0134	87.88	-0.000398019
476.984	0.119399	0.00400723	0.119466	-1.92222	41.6599	-0.000193634	-0.953439	83266.9	93.6847	1	37	0.00544707	0.0455949	0	-0.0081261	0.306561	0.151035	5.76947	6.30417e-06	4.05493e-06	6.29783e-06	3.76028e-06	8.85932e-06	7.46088e-06	0.051993	0.0165683	0.4852	9.89191e-06	1.62127e-05	4.61172e-06	1.16252e-05	4.62078e-06	3.65788e-06	8.36584	0.280771	8.37055	1.92222	93684.8	2.79143e+06	2.793e+06	-88.0778	0.0000000E+000	0.0000000E+000	0.0000000E+000	88.0778	0.0000000E+000	0.0000000E+000	0.0000000E+000	-88.0778	0.0000000E+000	0.0000000E+000	0.0000000E+000	-1.92222	0.0000000E+000	0.0000000E+000	0.0000000E+000	1.92222	29.796	88.0778	-0.000323585
379.393	0.119806	0.00325988	0.119851	-1.55861	42.9901	-0.000201482	-0.992913	128685	95.2034	1	37	0.00509642	0.0425232	0	-0.00844431	0.325963	0.234872	6.38706	7.60935e-06	4.92702e-06	8.4991e-06	6.69202e-06	3.28291e-06	5.3566e-06	0.0562542	0.0152773	0.519513	6.31535e-06	1.88215e-05	5.75713e-06	9.15297e-06	5.17045e-06	3.87562e-06	8.34064	0.226946	8.34373	1.55861	95203.2	3.49889e+06	3.50018e+06	-88.4414	0.0000000E+000	0.0000000E+000	0.0000000E+000	88.4414	0.0000000E+000	0.0000000E+000	0.0000000E+000	-88.4414	0.0000000E+000	0.0000000E+000	0.0000000E+000	-1.55861	0.0000000E+000	0.0000000E+000	0.0000000E+000	1.55861	36.7517	88.4414	-0.000318211
301.641	0.120022	0.00303117	0.120061	-1.4467	44.0947	-0.000186961	-0.959115	174068	110.953	1	37	0.00530916	0.0442207	0	-0.0087201	0.254169	0.18194	6.07953	5.22403e-06	7.86695e-06	4.1647e-06	2.47621e-06	5.79125e-06	3.41407e-06	0.063738	0.0166717	0.497951	3.14192e-06	2.21154e-05	3.34043e-06	1.49099e-05	5.47743e-06	3.92673e-06	8.32647	0.210286	8.32913	1.4467	110953	4.3933e+06	4.3947e+06	-88.5533	0.0000000E+000	0.0000000E+000	0.0000000E+000	88.5533	0.0000000E+000	0.0000000E+000	0.0000000E+000	-88.5533	0.0000000E+000	0.0000000E+000	0.0000000E+000	-1.4467	0.0000000E+000	0.0000000E+000	0.0000000E+000	1.4467	39.596	88.5533	-0.000275792
239.924	0.120371	0.00263704	0.1204	-1.25502	45.2028	-0.000207242	-0.999893	251553	120.674	1	37	0.00546016	0.0453503	0	-0.00905414	0.268223	0.134106	5.93899	4.0105e-06	8.90865e-06	5.51428e-06	5.05715e-06	2.685e-06	6.87277e-06	0.0722971	0.010729	0.490626	6.69317e-06	2.49561e-05	3.95153e-06	1.87389e-05	4.98557e-06	1.89158e-06	8.30368	0.181914	8.30567	1.25502	120674	5.5083e+06	5.50962e+06	-88.745	0.0000000E+000	0.0000000E+000	0.0000000E+000	88.745	0.0000000E+000	0.0000000E+000	0.0000000E+000	-88.745	0.0000000E+000	0.0000000E+000	0.0000000E+000	-1.25502	0.0000000E+000	0.0000000E+000	0.0000000E+000	1.25502	45.6461	88.745	-0.000334036
190.672	0.120595	0.00228962	0.120617	-1.08769	46.5291	-0.000192143	-0.939238	364562	131.366	1	37	0.0051111	0.0423748	0	-0.00943652	0.310811	0.189579	6.35279	6.42096e-06	9.25259e-06	5.78356e-06	4.42435e-06	4.96846e-06	4.8716e-06	0.0764049	0.0160501	0.521185	2.9992e-06	2.57309e-05	4.92459e-06	1.71764e-05	4.86742e-06	4.051e-06	8.28924	0.15738	8.29074	1.08769	131367	6.91909e+06	6.92034e+06	-88.9123	0.0000000E+000	0.0000000E+000	0.0000000E+000	88.9123	0.0000000E+000	0.0000000E+000	0.0000000E+000	-88.9123	0.0000000E+000	0.0000000E+000	0.0000000E+000	-1.08769	0.0000000E+000	0.0000000E+000	0.0000000E+000	1.08769	52.6703	88.9123	-0.000382384
151.699	0.120919	0.0020315	0.120936	-0.962509	47.6305	-0.000189347	-0.967304	516440	145.728	1	37	0.00517467	0.0427885	0	-0.00969394	0.315556	0.166841	6.13799	7.84778e-06	3.97371e-06	5.35625e-06	5.22133e-06	9.08044e-06	4.91649e-06	0.0874486	0.0664091	0.510295	3.58143e-06	2.95425e-05	2.96149e-06	1.8909e-05	8.44143e-06	7.37048e-06	8.26767	0.138901	8.26884	0.962509	145728	8.67402e+06	8.67525e+06	-89.0375	0.0000000E+000	0.0000000E+000	0.0000000E+000	89.0375	0.0000000E+000	0.0000000E+000	0.0000000E+000	-89.0375	0.0000000E+000	0.0000000E+000	0.0000000E+000	-0.962509	0.0000000E+000	0.0000000E+000	0.0000000E+000	0.962509	59.5219	89.0375	-0.000257418
120.579	0.120886	0.0018567	0.1209	-0.879942	48.7358	-0.000179691	-0.921316	710898	167.663	1	37	0.00520694	0.043068	0	-0.0100338	0.342397	0.155526	6.18023	6.61406e-06	8.21249e-06	5.99459e-06	1.03448e-05	2.16513e-06	4.87092e-06	0.0862226	0.0180101	0.52386	5.08536e-06	2.80366e-05	4.83668e-06	2.11233e-05	5.72302e-06	6.57858e-06	8.27029	0.127024	8.27127	0.879942	167663	1.09162e+07	1.09175e+07	-89.1201	0.0000000E+000	0.0000000E+000	0.0000000E+000	89.1201	0.0000000E+000	0.0000000E+000	0.0000000E+000	-89.1201	0.0000000E+000	0.0000000E+000	0.0000000E+000	-0.879942	0.0000000E+000	0.0000000E+000	0.0000000E+000	0.879942	65.108	89.1201	-0.000339887
95.8897	0.121121	0.00166924	0.121133	-0.789575	49.8389	-0.000192553	-0.977019	994328	188.818	1	37	0.00523317	0.0432019	0	-0.0103124	0.303729	0.153554	6.14958	5.40003e-06	6.86602e-06	5.61763e-06	4.89999e-06	8.31635e-06	5.9275e-06	0.0991995	0.0159035	0.523222	4.83189e-06	3.27495e-05	3.7781e-06	2.52877e-05	7.10525e-06	4.23907e-06	8.25462	0.113762	8.25541	0.789575	188818	1.37008e+07	1.37021e+07	-89.2104	0.0000000E+000	0.0000000E+000	0.0000000E+000	89.2104	0.0000000E+000	0.0000000E+000	0.0000000E+000	-89.2104	0.0000000E+000	0.0000000E+000	0.0000000E+000	-0.789575	0.0000000E+000	0.0000000E+000	0.0000000E+000	0.789575	72.5608	89.2104	-0.000278593
76.244	0.121234	0.0016361	0.121245	-0.773182	50.9375	-0.000193895	-0.990643	1.27586e+06	232.324	1	37	0.00524797	0.0432839	0	-0.0106288	0.333822	0.176182	6.28146	5.02382e-06	6.64378e-06	6.12741e-06	6.46775e-06	7.67815e-06	7.40873e-06	0.131924	0.0253734	0.500605	3.45744e-05	3.5978e-05	5.60093e-06	2.59661e-05	5.86397e-06	4.02639e-06	8.24699	0.111296	8.24774	0.773182	232323	1.72151e+07	1.72167e+07	-89.2268	0.0000000E+000	0.0000000E+000	0.0000000E+000	89.2268	0.0000000E+000	0.0000000E+000	0.0000000E+000	-89.2268	0.0000000E+000	0.0000000E+000	0.0000000E+000	-0.773182	0.0000000E+000	0.0000000E+000	0.0000000E+000	0.773182	74.0994	89.2268	-0.000316385
60.6403	0.121365	0.00158184	0.121375	-0.746738	52.0397	-0.000187986	-0.924368	1.65919e+06	281.813	1	37	0.00525787	0.0433191	0	-0.0109686	0.325673	0.176379	6.14596	6.80045e-06	7.44936e-06	6.46958e-06	8.25525e-06	3.75322e-06	7.15484e-06	0.101217	0.0225565	0.512542	5.47955e-06	3.28062e-05	6.75321e-06	2.61271e-05	7.04039e-06	4.22214e-06	8.23821	0.107375	8.23891	0.746738	281812	2.16218e+07	2.16236e+07	-89.2533	0.0000000E+000	0.0000000E+000	0.0000000E+000	89.2533	0.0000000E+000	0.0000000E+000	0.0000000E+000	-89.2533	0.0000000E+000	0.0000000E+000	0.0000000E+000	-0.746738	0.0000000E+000	0.0000000E+000	0.0000000E+000	0.746738	76.7237	89.2533	-0.000339786
48.1956	0.121577	0.00147698	0.121586	-0.696022	53.1662	-0.000189869	-0.979495	2.23583e+06	329.928	1	37	0.00526435	0.0432973	0	-0.0112303	0.335099	0.13553	6.14242	4.21233e-06	1.41457e-05	4.40342e-06	3.75357e-06	3.25072e-06	4.61857e-06	0.11705	0.0657569	0.498385	5.49925e-06	3.99189e-05	3.58059e-06	2.88722e-05	5.73454e-06	5.71944e-06	8.22402	0.0999093	8.22463	0.696022	329928	2.7158e+07	2.716e+07	-89.304	0.0000000E+000	0.0000000E+000	0.0000000E+000	89.304	0.0000000E+000	0.0000000E+000	0.0000000E+000	-89.304	0.0000000E+000	0.0000000E+000	0.0000000E+000	-0.696022	0.0000000E+000	0.0000000E+000	0.0000000E+000	0.696022	82.3149	89.304	-0.000261751
38.3436	0.121791	0.00156172	0.121801	-0.734659	54.2934	-0.000183848	-0.944617	2.65781e+06	436.945	1	37	0.00527294	0.0432913	0	-0.0115047	0.347796	0.205394	6.05721	5.84734e-06	6.54339e-06	7.48516e-06	6.57415e-06	8.4759e-06	6.45484e-06	0.120031	0.0461501	0.510337	4.5868e-06	3.73962e-05	1.91766e-05	2.78023e-05	7.55247e-06	6.16221e-06	8.20942	0.105269	8.2101	0.734659	436944	3.40753e+07	3.40781e+07	-89.2653	0.0000000E+000	0.0000000E+000	0.0000000E+000	89.2653	0.0000000E+000	0.0000000E+000	0.0000000E+000	-89.2653	0.0000000E+000	0.0000000E+000	0.0000000E+000	-0.734659	0.0000000E+000	0.0000000E+000	0.0000000E+000	0.734659	77.9854	89.2653	-0.000274334
30.4779	0.121978	0.00161231	0.121989	-0.757292	55.3896	-0.00017477	-0.951559	3.23882e+06	565.775	1	37	0.00527304	0.0432256	0	-0.0117028	0.338836	0.240877	6.06144	6.23672e-06	1.26316e-05	4.32188e-06	6.04847e-06	2.50829e-06	5.83227e-06	0.163209	0.0296109	0.50725	9.03598e-06	3.77613e-05	4.65239e-06	5.61469e-05	5.25128e-06	5.74192e-06	8.19676	0.108345	8.19748	0.757292	565776	4.28034e+07	4.28071e+07	-89.2427	0.0000000E+000	0.0000000E+000	0.0000000E+000	89.2427	0.0000000E+000	0.0000000E+000	0.0000000E+000	-89.2427	0.0000000E+000	0.0000000E+000	0.0000000E+000	-0.757292	0.0000000E+000	0.0000000E+000	0.0000000E+000	0.757292	75.6543	89.2427	-0.000198145
24.2323	0.121983	0.00162377	0.121994	-0.762643	56.5151	-0.000176038	-0.945752	4.04483e+06	716.593	1	37	0.00527079	0.0432054	0	-0.0119842	0.306524	0.148852	6.17469	6.22399e-06	7.57291e-06	5.27078e-06	5.35421e-06	3.42558e-06	5.11181e-06	0.145701	0.0704695	0.49379	4.00624e-05	3.67765e-05	4.19492e-06	3.05481e-05	5.60396e-06	2.87781e-06	8.1964	0.109106	8.19713	0.762643	716592	5.38329e+07	5.38377e+07	-89.2374	0.0000000E+000	0.0000000E+000	0.0000000E+000	89.2374	0.0000000E+000	0.0000000E+000	0.0000000E+000	-89.2374	0.0000000E+000	0.0000000E+000	0.0000000E+000	-0.762643	0.0000000E+000	0.0000000E+000	0.0000000E+000	0.762643	75.1234	89.2374	-0.000281412
19.2663	0.122303	0.00166382	0.122315	-0.779407	57.6404	-0.000188266	-1.06282	4.96495e+06	918.695	1	37	0.00526871	0.0430751	0	-0.0121465	0.313965	0.145803	6.13809	4.97157e-06	1.122e-05	6.46953e-06	3.30047e-06	7.08417e-06	3.14744e-06	0.101544	0.0907272	0.501932	7.96073e-06	2.58912e-05	7.52062e-06	3.04015e-05	6.66321e-06	7.05685e-06	8.17488	0.111211	8.17563	0.779407	918691	6.7531e+07	6.75372e+07	-89.2206	0.0000000E+000	0.0000000E+000	0.0000000E+000	89.2206	0.0000000E+000	0.0000000E+000	0.0000000E+000	-89.2206	0.0000000E+000	0.0000000E+000	0.0000000E+000	-0.779407	0.0000000E+000	0.0000000E+000	0.0000000E+000	0.779407	73.5075	89.2206	-0.000162232
15.3186	0.122301	0.0018889	0.122316	-0.884843	58.7336	-0.000182133	-0.97955	5.50038e+06	1311.73	1	37	0.00527021	0.043087	0	-0.0124834	0.311527	0.0959986	6.19196	4.92696e-06	6.47528e-06	6.65661e-06	5.32464e-06	5.51324e-06	8.13072e-06	0.11682	0.0664489	0.506638	9.56587e-06	3.21659e-05	6.52248e-06	3.23557e-05	9.97385e-06	7.98222e-06	8.1746	0.126254	8.17557	0.884843	1.31173e+06	8.49311e+07	8.49413e+07	-89.1152	0.0000000E+000	0.0000000E+000	0.0000000E+000	89.1152	0.0000000E+000	0.0000000E+000	0.0000000E+000	-89.1152	0.0000000E+000	0.0000000E+000	0.0000000E+000	-0.884843	0.0000000E+000	0.0000000E+000	0.0000000E+000	0.884843	64.7474	89.1152	-0.000336908
12.188	0.122772	0.00198189	0.122788	-0.924833	59.7568	-0.000176858	-0.994849	6.58886e+06	1716.54	1	37	0.00527528	0.0429624	0	-0.0130243	0.325456	0.230821	6.19882	3.57309e-06	8.47346e-06	6.22227e-06	8.59374e-06	6.26498e-06	4.98261e-06	0.160063	0.133157	0.486458	1.50493e-05	4.0838e-05	4.19641e-05	3.00841e-05	6.74686e-06	8.10615e-06	8.14303	0.131451	8.14409	0.924833	1.71654e+06	1.06335e+08	1.06349e+08	-89.0752	0.0000000E+000	0.0000000E+000	0.0000000E+000	89.0752	0.0000000E+000	0.0000000E+000	0.0000000E+000	-89.0752	0.0000000E+000	0.0000000E+000	0.0000000E+000	-0.924833	0.0000000E+000	0.0000000E+000	0.0000000E+000	0.924833	61.9472	89.0752	-0.000540925
9.68695	0.123027	0.0019633	0.123043	-0.914264	60.8672	-0.000174267	-0.935944	8.36849e+06	2130.63	1	37	0.00527696	0.0428873	0	-0.012933	0.35504	0.172524	6.17393	6.84819e-06	7.27558e-06	6.66698e-06	7.23818e-06	5.38009e-06	5.96693e-06	0.154492	0.0884366	0.498707	2.6854e-05	3.74327e-05	1.15219e-05	3.64923e-05	9.95505e-06	6.96869e-06	8.12623	0.129681	8.12726	0.914264	2.13062e+06	1.33513e+08	1.3353e+08	-89.0857	0.0000000E+000	0.0000000E+000	0.0000000E+000	89.0857	0.0000000E+000	0.0000000E+000	0.0000000E+000	-89.0857	0.0000000E+000	0.0000000E+000	0.0000000E+000	-0.914264	0.0000000E+000	0.0000000E+000	0.0000000E+000	0.914264	62.6634	89.0857	9.12623e-05
7.70465	0.123258	0.00218987	0.123277	-1.01784	62.0954	-0.000170082	-0.934176	9.43297e+06	2976.59	1	37	0.00527536	0.0427926	0	-0.0136433	0.192064	0.116551	4.36055	2.56717e-06	3.5507e-06	3.66355e-06	5.26018e-06	3.73128e-06	4.07118e-06	0.146983	0.0993526	0.394697	4.22665e-05	3.46247e-05	7.78069e-06	2.84566e-05	2.37987e-06	5.97627e-06	8.11051	0.144096	8.11179	1.01784	2.9766e+06	1.67539e+08	1.67565e+08	-88.9822	0.0000000E+000	0.0000000E+000	0.0000000E+000	88.9822	0.0000000E+000	0.0000000E+000	0.0000000E+000	-88.9822	0.0000000E+000	0.0000000E+000	0.0000000E+000	-1.01784	0.0000000E+000	0.0000000E+000	0.0000000E+000	1.01784	56.2854	88.9822	-0.000710264
6.12745	0.123495	0.00235047	0.123518	-1.09037	63.5062	-0.000174602	-0.950243	1.10506e+07	4001.63	1	37	0.00527325	0.0426923	0	-0.0133905	0.224429	0.157406	3.4882	4.20649e-06	3.9561e-06	5.71535e-06	4.54949e-06	3.61098e-06	4.08666e-06	0.15567	0.0774751	0.347309	2.12675e-05	5.47672e-05	9.46775e-06	2.73132e-05	7.67797e-06	5.85696e-06	8.09453	0.154062	8.096	1.09037	4.00162e+06	2.10248e+08	2.10286e+08	-88.9096	0.0000000E+000	0.0000000E+000	0.0000000E+000	88.9096	0.0000000E+000	0.0000000E+000	0.0000000E+000	-88.9096	0.0000000E+000	0.0000000E+000	0.0000000E+000	-1.09037	0.0000000E+000	0.0000000E+000	0.0000000E+000	1.09037	52.5406	88.9096	0.000252783
4.87216	0.123839	0.0023787	0.123862	-1.1004	65.1583	-0.000164225	-0.936818	1.37328e+07	5064.78	1	37	0.00527353	0.0425758	0	-0.0138115	0.25559	0.163122	3.81606	2.36717e-06	9.22637e-06	4.20622e-06	4.11227e-06	5.96843e-06	2.71028e-06	0.127907	0.0674021	0.378702	7.20914e-06	4.14222e-05	4.65599e-06	3.24439e-05	6.90328e-06	7.13831e-06	8.072	0.155046	8.07349	1.1004	5.06477e+06	2.63682e+08	2.6373e+08	-88.8996	0.0000000E+000	0.0000000E+000	0.0000000E+000	88.8996	0.0000000E+000	0.0000000E+000	0.0000000E+000	-88.8996	0.0000000E+000	0.0000000E+000	0.0000000E+000	-1.1004	0.0000000E+000	0.0000000E+000	0.0000000E+000	1.1004	52.0618	88.8996	-0.000420991
3.8714	0.124085	0.00273509	0.124116	-1.26271	67.1226	-0.000167519	-0.889388	1.50308e+07	7299.1	1	37	0.00527243	0.04248	0	-0.0147123	0.175796	0.0762045	3.06962	4.73934e-06	3.77699e-06	3.20507e-06	3.1999e-06	2.85063e-06	3.64052e-06	0.125955	0.0997571	0.339138	1.75809e-05	3.02001e-05	2.37169e-05	2.77149e-05	1.1011e-05	6.10738e-06	8.05505	0.177549	8.057	1.26271	7.29909e+06	3.31146e+08	3.31227e+08	-88.7373	0.0000000E+000	0.0000000E+000	0.0000000E+000	88.7373	0.0000000E+000	0.0000000E+000	0.0000000E+000	-88.7373	0.0000000E+000	0.0000000E+000	0.0000000E+000	-1.26271	0.0000000E+000	0.0000000E+000	0.0000000E+000	1.26271	45.3681	88.7373	-0.00090075
3.07821	0.124327	0.0028979	0.124361	-1.33524	69.4848	-0.000171185	-0.933592	1.78418e+07	9688.04	1	37	0.00527059	0.0423814	0	-0.0146943	0.19842	0.129081	2.42977	3.29291e-06	5.89789e-06	2.23632e-06	4.41026e-06	3.12766e-06	3.17674e-06	0.125428	0.123692	0.303602	1.42077e-05	3.36405e-05	1.14107e-05	3.38926e-05	8.14461e-06	1.00478e-05	8.03892	0.187376	8.04111	1.33524	9.68803e+06	4.15642e+08	4.15755e+08	-88.6648	0.0000000E+000	0.0000000E+000	0.0000000E+000	88.6648	0.0000000E+000	0.0000000E+000	0.0000000E+000	-88.6648	0.0000000E+000	0.0000000E+000	0.0000000E+000	-1.33524	0.0000000E+000	0.0000000E+000	0.0000000E+000	1.33524	42.9026	88.6648	1.79323e-05
2.44752	0.124692	0.00316365	0.124732	-1.45338	72.3512	-0.000172096	-0.916936	2.05544e+07	13222.8	1	37	0.00527469	0.0422881	0	-0.0154035	0.132187	0.121875	2.19293	2.37866e-06	3.37799e-06	2.88249e-06	3.31697e-06	2.70502e-06	1.59472e-06	0.157242	0.142339	0.282476	2.22527e-05	2.87128e-05	4.92374e-06	3.21812e-05	1.22017e-05	4.11001e-05	8.0146	0.203344	8.01718	1.45338	1.32228e+07	5.21165e+08	5.21333e+08	-88.5466	0.0000000E+000	0.0000000E+000	0.0000000E+000	88.5466	0.0000000E+000	0.0000000E+000	0.0000000E+000	-88.5466	0.0000000E+000	0.0000000E+000	0.0000000E+000	-1.45338	0.0000000E+000	0.0000000E+000	0.0000000E+000	1.45338	39.414	88.5466	-0.000709123
1.94632	0.124965	0.00360612	0.125017	-1.65293	75.8539	-0.000172777	-0.990507	2.2676e+07	18867.2	1	37	0.00527151	0.0421663	0	-0.016735	0.165796	0.105762	2.04639	2.64366e-06	5.65253e-06	2.62464e-06	2.95548e-06	3.39958e-06	2.21188e-06	0.132253	0.202806	0.294737	1.46656e-05	4.09216e-05	1.27764e-05	2.71965e-05	1.02756e-05	8.89383e-06	7.99557	0.230728	7.9989	1.65293	1.88672e+07	6.53817e+08	6.54089e+08	-88.3471	0.0000000E+000	0.0000000E+000	0.0000000E+000	88.3471	0.0000000E+000	0.0000000E+000	0.0000000E+000	-88.3471	0.0000000E+000	0.0000000E+000	0.0000000E+000	-1.65293	0.0000000E+000	0.0000000E+000	0.0000000E+000	1.65293	34.6536	88.3471	-0.00133157
1.54902	0.125276	0.00384972	0.125335	-1.76014	80.1567	-0.000170876	-0.977351	2.66891e+07	25179.4	1	37	0.00527362	0.0420761	0	-0.0197923	0.138895	0.0831052	1.74358	1.39735e-06	5.71457e-06	9.18366e-07	3.24084e-06	1.10776e-06	1.19475e-06	0.127755	0.177718	0.294339	1.72672e-05	3.79237e-05	3.40517e-06	3.01986e-05	1.02065e-05	5.03884e-06	7.97484	0.245066	7.9786	1.76014	2.51794e+07	8.19379e+08	8.19766e+08	-88.2399	0.0000000E+000	0.0000000E+000	0.0000000E+000	88.2399	0.0000000E+000	0.0000000E+000	0.0000000E+000	-88.2399	0.0000000E+000	0.0000000E+000	0.0000000E+000	-1.76014	0.0000000E+000	0.0000000E+000	0.0000000E+000	1.76014	32.5416	88.2399	-0.00305727
1.23128	0.125694	0.00444267	0.125773	-2.02428	85.4728	-0.000175346	-1.08237	2.9095e+07	36302.2	1	37	0.00527241	0.0419201	0	-0.0185796	0.13102	0.0703779	1.56598	3.00732e-06	3.72511e-06	1.674e-06	3.63588e-06	1.84608e-06	1.03738e-06	0.173833	0.375795	0.29052	4.80155e-05	3.86318e-05	8.36599e-06	3.20404e-05	9.37417e-06	6.02369e-06	7.94588	0.280848	7.95085	2.02428	3.63022e+07	1.02708e+09	1.02772e+09	-87.9757	0.0000000E+000	0.0000000E+000	0.0000000E+000	87.9757	0.0000000E+000	0.0000000E+000	0.0000000E+000	-87.9757	0.0000000E+000	0.0000000E+000	0.0000000E+000	-2.02428	0.0000000E+000	0.0000000E+000	0.0000000E+000	2.02428	28.2925	87.9757	0.0012127
0.978641	0.125917	0.0050235	0.126017	-2.28462	92.0466	-0.000173458	-1.02034	3.23735e+07	51445.1	1	37	0.00527287	0.0418425	0	-0.0237995	0.102751	0.0650737	1.37886	1.8404e-06	3.99634e-06	1.66059e-06	1.5353e-06	1.4414e-06	8.51435e-07	0.179509	0.314886	0.29687	5.19583e-05	4.01209e-05	1.4371e-05	2.54389e-05	1.00967e-05	9.0937e-06	7.92912	0.316335	7.93543	2.28462	5.14451e+07	1.2895e+09	1.29053e+09	-87.7154	0.0000000E+000	0.0000000E+000	0.0000000E+000	87.7154	0.0000000E+000	0.0000000E+000	0.0000000E+000	-87.7154	0.0000000E+000	0.0000000E+000	0.0000000E+000	-2.28462	0.0000000E+000	0.0000000E+000	0.0000000E+000	2.28462	25.0656	87.7154	-0.00521986
0.778176	0.12636	0.00586731	0.126496	-2.65852	100.215	-0.000170297	-1.11924	3.48581e+07	74994	1	37	0.00527197	0.0416769	0	-0.022746	0.115313	0.069179	1.19797	1.54453e-06	3.6238e-06	1.68164e-06	3.16883e-06	1.49172e-06	2.15077e-06	0.176562	0.47282	0.275197	5.22242e-05	3.90397e-05	1.29536e-05	2.65703e-05	9.15593e-06	1.02232e-05	7.89687	0.366678	7.90538	2.65852	7.49941e+07	1.61509e+09	1.61683e+09	-87.3415	0.0000000E+000	0.0000000E+000	0.0000000E+000	87.3415	0.0000000E+000	0.0000000E+000	0.0000000E+000	-87.3415	0.0000000E+000	0.0000000E+000	0.0000000E+000	-2.65852	0.0000000E+000	0.0000000E+000	0.0000000E+000	2.65852	21.5363	87.3415	0.00105343
0.618591	0.126904	0.00685834	0.127089	-3.09345	110.406	-0.000176893	-1.03507	3.75144e+07	109249	1	37	0.00526938	0.0414621	0	-0.0257993	0.138807	0.0742593	1.0792	1.44525e-06	5.91641e-06	1.46873e-06	3.08097e-06	1.46275e-06	1.13505e-06	0.197954	0.547464	0.299805	4.85651e-05	4.67812e-05	1.17825e-05	2.68372e-05	9.20991e-06	6.43948e-06	7.85702	0.424621	7.86849	3.09345	1.09249e+08	2.0215e+09	2.02445e+09	-86.9065	0.0000000E+000	0.0000000E+000	0.0000000E+000	86.9065	0.0000000E+000	0.0000000E+000	0.0000000E+000	-86.9065	0.0000000E+000	0.0000000E+000	0.0000000E+000	-3.09345	0.0000000E+000	0.0000000E+000	0.0000000E+000	3.09345	18.5036	86.9065	-0.00305329
0.492188	0.12724	0.00796113	0.127488	-3.58022	123.129	-0.000179772	-1.0958	4.06176e+07	158388	1	37	0.00527073	0.0413428	0	-0.0342854	0.108677	0.0661232	0.950171	2.20657e-06	3.24179e-06	1.75885e-06	3.13712e-06	1.03003e-06	1.014e-06	0.236646	0.264567	0.33035	7.64905e-05	3.84343e-05	1.83465e-05	3.4612e-05	1.35271e-05	6.79157e-06	7.82854	0.489816	7.84385	3.58022	1.58388e+08	2.53145e+09	2.5364e+09	-86.4198	0.0000000E+000	0.0000000E+000	0.0000000E+000	86.4198	0.0000000E+000	0.0000000E+000	0.0000000E+000	-86.4198	0.0000000E+000	0.0000000E+000	0.0000000E+000	-3.58022	0.0000000E+000	0.0000000E+000	0.0000000E+000	3.58022	15.9826	86.4198	-0.00848607
0.391114	0.127727	0.00954358	0.128083	-4.27312	139.058	-0.000165619	-1.20602	4.26389e+07	236726	1	37	0.00527207	0.0411614	0	-0.0374021	0.0992343	0.065564	0.846659	1.96465e-06	3.98951e-06	1.27693e-06	1.96683e-06	7.85198e-07	7.48426e-07	0.363136	0.121795	0.27081	9.80858e-05	9.93923e-05	2.96309e-05	3.09024e-05	7.9098e-06	5.93589e-06	7.78574	0.58174	7.80744	4.27312	2.36726e+08	3.16823e+09	3.17706e+09	-85.7269	0.0000000E+000	0.0000000E+000	0.0000000E+000	85.7269	0.0000000E+000	0.0000000E+000	0.0000000E+000	-85.7269	0.0000000E+000	0.0000000E+000	0.0000000E+000	-4.27312	0.0000000E+000	0.0000000E+000	0.0000000E+000	4.27312	13.3835	85.7269	-0.00311673
0.311199	0.12863	0.0112168	0.129118	-4.98371	158.994	-0.000152089	-0.748276	4.55947e+07	344095	1	37	0.00526931	0.0408101	0	-0.0358742	0.109261	0.0726938	0.755768	1.41634e-06	4.53583e-06	1.38251e-06	2.05179e-06	1.51372e-06	9.51118e-07	0.250057	0.611674	0.431055	2.70048e-05	7.72445e-05	3.51873e-05	2.22645e-05	1.83343e-05	1.54602e-05	7.71559	0.672816	7.74487	4.98371	3.44095e+08	3.94595e+09	3.96092e+09	-85.0163	0.0000000E+000	0.0000000E+000	0.0000000E+000	85.0163	0.0000000E+000	0.0000000E+000	0.0000000E+000	-85.0163	0.0000000E+000	0.0000000E+000	0.0000000E+000	-4.98371	0.0000000E+000	0.0000000E+000	0.0000000E+000	4.98371	11.4676	85.0163	0.0015279
0.247537	0.129672	0.0133224	0.130355	-5.86593	183.975	-0.000149627	-0.885476	4.82613e+07	504092	1	37	0.00526682	0.0404038	0	-0.0414005	0.108033	0.0789873	0.684752	1.48912e-06	3.74698e-06	1.3433e-06	3.22452e-06	1.22523e-06	8.77188e-07	0.324492	0.644023	0.427801	8.99766e-05	4.51987e-05	5.54264e-05	3.58019e-05	2.38157e-05	8.37901e-06	7.63121	0.784023	7.67138	5.86593	5.04092e+08	4.90653e+09	4.93235e+09	-84.1341	0.0000000E+000	0.0000000E+000	0.0000000E+000	84.1341	0.0000000E+000	0.0000000E+000	0.0000000E+000	-84.1341	0.0000000E+000	0.0000000E+000	0.0000000E+000	-5.86593	0.0000000E+000	0.0000000E+000	0.0000000E+000	5.86593	9.7334	84.1341	-0.00552631
0.196714	0.130468	0.0165673	0.131516	-7.2369	215.328	-0.000149255	-0.874907	4.88352e+07	774965	1	37	0.00526927	0.0400658	0	-0.0567742	0.117448	0.0739641	0.607612	1.4581e-06	5.31236e-06	7.83931e-07	2.09907e-06	9.55073e-07	1.06859e-06	0.423091	0.213589	0.294077	4.05763e-05	0.0001389	1.83389e-05	6.75805e-05	1.47754e-05	2.87917e-05	7.54309	0.957849	7.60366	7.2369	7.74965e+08	6.10287e+09	6.15188e+09	-82.7631	0.0000000E+000	0.0000000E+000	0.0000000E+000	82.7631	0.0000000E+000	0.0000000E+000	0.0000000E+000	-82.7631	0.0000000E+000	0.0000000E+000	0.0000000E+000	-7.2369	0.0000000E+000	0.0000000E+000	0.0000000E+000	7.2369	7.87503	82.7631	-0.0153736
0.15652	0.133011	0.0187743	0.134329	-8.03416	254.653	-0.000166917	-1.00234	5.41612e+07	1.05798e+06	1	37	0.00526587	0.0392013	0	-0.0758087	0.105443	0.103825	0.538942	1.76548e-06	4.24204e-06	1.10695e-06	2.2729e-06	7.08519e-07	1.13992e-06	0.39299	0.748144	0.414896	7.62775e-05	4.16847e-05	0.000104795	3.24101e-05	4.61821e-05	3.26338e-05	7.37134	1.04046	7.44441	8.03416	1.05798e+09	7.49546e+09	7.56975e+09	-81.9658	0.0000000E+000	0.0000000E+000	0.0000000E+000	81.9658	0.0000000E+000	0.0000000E+000	0.0000000E+000	-81.9658	0.0000000E+000	0.0000000E+000	0.0000000E+000	-8.03416	0.0000000E+000	0.0000000E+000	0.0000000E+000	8.03416	7.08472	81.9658	-0.0190345
0.124396	0.135519	0.0222105	0.137327	-9.3076	304.052	-0.000164587	-0.903862	5.76046e+07	1.50683e+06	1	37	0.00526681	0.0383525	0	-0.0893525	0.121277	0.0593745	0.494829	2.09424e-06	5.47807e-06	9.90309e-07	1.31525e-06	1.40205e-06	1.04937e-06	0.562122	0.271465	0.738167	0.000177077	7.22531e-05	8.16689e-05	4.15944e-05	1.49917e-05	8.04101e-06	7.18604	1.17774	7.28191	9.3076	1.50683e+09	9.194e+09	9.31666e+09	-80.6924	0.0000000E+000	0.0000000E+000	0.0000000E+000	80.6924	0.0000000E+000	0.0000000E+000	0.0000000E+000	-80.6924	0.0000000E+000	0.0000000E+000	0.0000000E+000	-9.3076	0.0000000E+000	0.0000000E+000	0.0000000E+000	9.3076	6.10156	80.6924	-0.0135439
0.0988834	0.138525	0.026017	0.140947	-10.6371	366.115	-0.000168253	-1.01069	6.18641e+07	2.10787e+06	1	37	0.00526494	0.0373541	0	-0.0954709	0.105039	0.0647811	0.449611	1.9939e-06	4.02706e-06	6.36871e-07	2.27375e-06	1.47346e-06	6.00439e-07	0.812927	0.0746015	0.473967	4.01096e-05	0.000269679	3.5018e-05	9.06909e-05	2.31497e-05	8.2345e-05	6.97296	1.30963	7.09488	10.6371	2.10787e+09	1.12231e+10	1.14194e+10	-79.3629	0.0000000E+000	0.0000000E+000	0.0000000E+000	79.3629	0.0000000E+000	0.0000000E+000	0.0000000E+000	-79.3629	0.0000000E+000	0.0000000E+000	0.0000000E+000	-10.6371	0.0000000E+000	0.0000000E+000	0.0000000E+000	10.6371	5.32439	79.3629	-0.00611835
0.0786856	0.142825	0.0299251	0.145927	-11.8335	444.028	-0.000171579	-0.920068	6.75912e+07	2.84243e+06	1	37	0.00526251	0.0360627	0	-0.0997064	0.107827	0.137177	0.401597	2.11015e-06	3.47248e-06	1.11275e-06	3.09766e-06	7.79222e-07	6.26991e-07	0.746915	0.247158	0.665842	2.58919e-05	3.05777e-05	0.000248905	7.34597e-05	3.31276e-05	3.38269e-05	6.70711	1.40529	6.85275	11.8335	2.84243e+09	1.35663e+10	1.38609e+10	-78.1665	0.0000000E+000	0.0000000E+000	0.0000000E+000	78.1665	0.0000000E+000	0.0000000E+000	0.0000000E+000	-78.1665	0.0000000E+000	0.0000000E+000	0.0000000E+000	-11.8335	0.0000000E+000	0.0000000E+000	0.0000000E+000	11.8335	4.77277	78.1665	-0.00423553
0.062544	0.148733	0.0336194	0.152485	-12.737	541.969	-0.000157222	-0.921563	7.56911e+07	3.67933e+06	1	37	0.00526066	0.0344995	0	-0.115362	0.118513	0.0839425	0.363558	1.59389e-06	5.19038e-06	8.8606e-07	2.43075e-06	1.35803e-06	6.95112e-07	0.192232	0.233368	1.04773	2.98852e-05	4.49812e-05	1.67205e-05	2.73765e-05	1.12168e-05	9.85261e-06	6.39664	1.44589	6.55802	12.737	3.67933e+09	1.62774e+10	1.66881e+10	-77.263	0.0000000E+000	0.0000000E+000	0.0000000E+000	77.263	0.0000000E+000	0.0000000E+000	0.0000000E+000	-77.263	0.0000000E+000	0.0000000E+000	0.0000000E+000	-12.737	0.0000000E+000	0.0000000E+000	0.0000000E+000	12.737	4.42402	77.263	-0.0156558
0.0497507	0.155624	0.0365774	0.159865	-13.2266	665.014	-0.000145282	-0.845695	8.74597e+07	4.57856e+06	1	37	0.00525791	0.0328897	0	-0.152328	0.109763	0.147412	0.349132	1.3939e-06	4.43845e-06	1.39194e-06	2.53139e-06	1.03413e-06	9.71586e-07	0.785086	0.111725	0.788158	1.7835e-05	2.93829e-05	1.55958e-05	3.54788e-05	3.3761e-05	0.000249578	6.08935	1.43122	6.25528	13.2266	4.57856e+09	1.94801e+10	2.0011e+10	-76.7734	0.0000000E+000	0.0000000E+000	0.0000000E+000	76.7734	0.0000000E+000	0.0000000E+000	0.0000000E+000	-76.7734	0.0000000E+000	0.0000000E+000	0.0000000E+000	-13.2266	0.0000000E+000	0.0000000E+000	0.0000000E+000	13.2266	4.25465	76.7734	-0.0369658
0.0395203	0.163771	0.0379342	0.168107	-13.0414	819.831	-0.000156745	-0.907888	1.06162e+08	5.4058e+06	1	37	0.00525457	0.0312573	0	-0.214771	0.130403	0.0902347	0.311869	1.80212e-06	5.60343e-06	1.38422e-06	1.99462e-06	1.18532e-06	1.42552e-06	0.213577	0.146813	1.18482	1.99476e-05	4.7543e-05	1.31046e-05	2.57617e-05	1.32859e-05	2.49021e-05	5.79516	1.34233	5.94859	13.0414	5.4058e+09	2.33381e+10	2.3956e+10	-76.9586	0.0000000E+000	0.0000000E+000	0.0000000E+000	76.9586	0.0000000E+000	0.0000000E+000	0.0000000E+000	-76.9586	0.0000000E+000	0.0000000E+000	0.0000000E+000	-13.0414	0.0000000E+000	0.0000000E+000	0.0000000E+000	13.0414	4.31724	76.9586	-0.0624431
0.0314526	0.172169	0.0374543	0.176196	-12.2731	1014.28	-0.000142092	-0.918557	1.35102e+08	6.10484e+06	1	37	0.00525337	0.0298155	0	-0.293941	0.113333	0.107977	0.295224	1.44481e-06	4.58626e-06	1.75197e-06	2.48366e-06	6.65571e-07	1.03888e-06	0.188231	0.124477	1.26809	2.39177e-05	2.67076e-05	1.28987e-05	3.4331e-05	9.17932e-06	1.09505e-05	5.54579	1.20645	5.6755	12.2731	6.10484e+09	2.80626e+10	2.8719e+10	-77.7269	0.0000000E+000	0.0000000E+000	0.0000000E+000	77.7269	0.0000000E+000	0.0000000E+000	0.0000000E+000	-77.7269	0.0000000E+000	0.0000000E+000	0.0000000E+000	-12.2731	0.0000000E+000	0.0000000E+000	0.0000000E+000	12.2731	4.59678	77.7269	-0.0791696
0.0250094	0.179831	0.0350745	0.183219	-11.0365	1258.74	-0.000150128	-0.939746	1.81436e+08	6.64914e+06	1	37	0.00524997	0.028654	0	-0.376016	0.127788	0.181501	0.267076	2.55333e-06	5.46887e-06	9.86011e-07	2.0229e-06	1.06116e-06	1.17321e-06	0.201935	0.179138	1.35574	2.40482e-05	4.14319e-05	1.09495e-05	2.70301e-05	1.09129e-05	5.42188e-06	5.357	1.04484	5.45794	11.0365	6.64914e+09	3.40908e+10	3.47332e+10	-78.9635	0.0000000E+000	0.0000000E+000	0.0000000E+000	78.9635	0.0000000E+000	0.0000000E+000	0.0000000E+000	-78.9635	0.0000000E+000	0.0000000E+000	0.0000000E+000	-11.0365	0.0000000E+000	0.0000000E+000	0.0000000E+000	11.0365	5.1271	78.9635	-0.0820749