File: Python/Experiments/IRFB/240415-Felt-0p5M_FeCl2FeCl23-1M_HCl/Data/240416-EIS-0p5M_FeCl2FeCl3-1M_HCl-10mLmin_Dampened-25mHz_10ppd_C15.mpt
EC-Lab ASCII FILE
Nb header lines : 66

Potentio Electrochemical Impedance Spectroscopy

Run on channel : 15 (SN 19485)
User :
Electrode connection : standard
Potential control : Ewe
Ewe ctrl range : min = -1.00 V, max = 1.00 V
Ewe,I filtering : <None>
Safety Limits :
	Do not start on E overload
Channel : Floating
Acquisition started on : 04/16/2024 14:28:58.615
Loaded Setting File :  NONE
Saved on :
	File : 240416-EIS-0p5M_FeCl2FeCl3-1M_HCl-10mLmin_Dampened-25mHz_10ppd_C15.mpr
	Directory : C:\Data\mathias\IRFB\
	Host : 192.168.0.1
Device : VMP-300 (SN 0826)
Address : USB
EC-Lab for windows v11.52 (software)
Internet server v11.52 (firmware)
Command interpretor v11.52 (firmware)
Electrode material :
Initial state :
Electrolyte :
Comments :
Cable : special
Electrode surface area : 0.001 cm²
Characteristic mass : 0.001 g
Equivalent Weight : 0.000 g/eq.
Density : 0.000 g/cm3
Volume (V) : 0.001 cm³
Record EIS quality indicators
Cycle Definition : Charge/Discharge alternance
Mode                Single sine
E (V)               0.0000
vs.                 Eoc
tE (h:m:s)          0:00:0.0000
record              0
dI                  0.000
unit dI             mA
dt (s)              0.000
fi                  920.000
unit fi             kHz
ff                  25.000
unit ff             mHz
Nd                  10
Points              per decade
spacing             Logarithmic
Va (mV)             5.0
pw                  0.10
Na                  3
corr                0
E range min (V)     -1.000
E range max (V)     1.000
I Range             Auto
Bandwidth           8
nc cycles           0
goto Ns'            0
nr cycles           0
inc. cycle          1

freq/Hz	Re(Z)/Ohm	-Im(Z)/Ohm	|Z|/Ohm	Phase(Z)/deg	time/s	<Ewe>/V	<I>/mA	Cs/µF	Cp/µF	cycle number	I Range	|Ewe|/V	|I|/A	Ns	(Q-Qo)/mA.h	THD Ewe/%	NSD Ewe/%	NSR Ewe/%	|Ewe h2|/V	|Ewe h3|/V	|Ewe h4|/V	|Ewe h5|/V	|Ewe h6|/V	|Ewe h7|/V	THD I/%	NSD I/%	NSR I/%	|I h2|/A	|I h3|/A	|I h4|/A	|I h5|/A	|I h6|/A	|I h7|/A	Re(Y)/Ohm-1	Im(Y)/Ohm-1	|Y|/Ohm-1	Phase(Y)/deg	Re(C)/nF	Im(C)/nF	|C|/nF	Phase(C)/deg	Re(M)	Im(M)	|M|	Phase(M)/deg	Re(Permittivity)	Im(Permittivity)	|Permittivity|	Phase(Permittivity)/deg	Re(Resistivity)/Ohm.cm	Im(Resistivity)/Ohm.cm	|Resistivity|/Ohm.cm	Phase(Resistivity)/deg	Re(Conductivity)/mS/cm	Im(Conductivity)/mS/cm	|Conductivity|/mS/cm	Phase(Conductivity)/deg	Tan(Delta)	Loss Angle(Delta)/deg	dq/mA.h
920001	-0.0964315	-0.222553	0.242546	113.427	1.97648	-5.15178e-05	-0.50502	-0.777319	-0.654448	1	37	0.000714448	0.00294561	0	-0.00028426	-1	-1	-1	0	0	0	0	0	0	-1	-1	-1	0	0	0	0	0	0	-1.63919	-3.78306	4.12292	-113.427	-654.448	-283.571	713.243	156.573	0.0000000E+000	0.0000000E+000	0.0000000E+000	-156.573	0.0000000E+000	0.0000000E+000	0.0000000E+000	156.573	0.0000000E+000	0.0000000E+000	0.0000000E+000	113.427	0.0000000E+000	0.0000000E+000	0.0000000E+000	-113.427	0.433297	23.427	-0.00028426
731536	-0.0244391	-0.120735	0.123184	101.443	3.12349	-5.7632e-05	-0.548589	-1.80198	-1.73106	1	37	0.000589768	0.00478771	0	-0.000438782	-1	-1	-1	0	0	0	0	0	0	-1	-1	-1	0	0	0	0	0	0	-1.61057	-7.95659	8.11795	-101.443	-1731.06	-350.4	1766.16	168.557	0.0000000E+000	0.0000000E+000	0.0000000E+000	-168.557	0.0000000E+000	0.0000000E+000	0.0000000E+000	168.557	0.0000000E+000	0.0000000E+000	0.0000000E+000	101.443	0.0000000E+000	0.0000000E+000	0.0000000E+000	-101.443	0.202419	11.4432	-0.000154523
581679	0.0244469	-0.0729637	0.0769504	71.4763	4.2705	-5.34378e-05	-0.465713	-3.74999	-3.3715	1	37	0.000573989	0.00745922	0	-0.000589962	-1	-1	-1	0	0	0	0	0	0	-1	-1	-1	0	0	0	0	0	0	4.1286	-12.3221	12.9954	-71.4763	-3371.5	1129.64	3555.71	-161.476	0.0000000E+000	0.0000000E+000	0.0000000E+000	161.476	0.0000000E+000	0.0000000E+000	0.0000000E+000	-161.476	0.0000000E+000	0.0000000E+000	0.0000000E+000	71.4763	0.0000000E+000	0.0000000E+000	0.0000000E+000	-71.4763	0.335055	18.5237	-0.00015118
462524	0.0513912	-0.0498749	0.071614	44.1422	5.41948	-6.19753e-05	-0.549333	-6.89928	-3.34636	1	37	0.000760091	0.0106137	0	-0.000769911	-1	-1	-1	0	0	0	0	0	0	-1	-1	-1	0	0	0	0	0	0	10.0206	-9.72494	13.9638	-44.1422	-3346.36	3448.09	4804.94	-134.142	0.0000000E+000	0.0000000E+000	0.0000000E+000	134.142	0.0000000E+000	0.0000000E+000	0.0000000E+000	-134.142	0.0000000E+000	0.0000000E+000	0.0000000E+000	44.1422	0.0000000E+000	0.0000000E+000	0.0000000E+000	-44.1422	1.0304	45.8578	-0.000179949
367781	0.0652422	-0.0376038	0.0753033	29.958	6.56849	-4.00724e-05	-0.410642	-11.508	-2.86968	1	37	0.00115995	0.0154038	0	-0.000905728	-1	-1	-1	0	0	0	0	0	0	-1	-1	-1	0	0	0	0	0	0	11.5054	-6.63138	13.2796	-29.958	-2869.68	4978.87	5746.67	-119.958	0.0000000E+000	0.0000000E+000	0.0000000E+000	119.958	0.0000000E+000	0.0000000E+000	0.0000000E+000	-119.958	0.0000000E+000	0.0000000E+000	0.0000000E+000	29.958	0.0000000E+000	0.0000000E+000	0.0000000E+000	-29.958	1.73499	60.042	-0.000135818
292440	0.0733761	-0.0283891	0.0786765	21.1514	7.71748	-5.04367e-05	-0.442486	-19.1704	-2.496	1	37	0.0017687	0.0224806	0	-0.00103345	-1	-1	-1	0	0	0	0	0	0	-1	-1	-1	0	0	0	0	0	0	11.854	-4.58629	12.7103	-21.1514	-2496	6451.31	6917.33	-111.151	0.0000000E+000	0.0000000E+000	0.0000000E+000	111.151	0.0000000E+000	0.0000000E+000	0.0000000E+000	-111.151	0.0000000E+000	0.0000000E+000	0.0000000E+000	21.1514	0.0000000E+000	0.0000000E+000	0.0000000E+000	-21.1514	2.58466	68.8486	-0.000127717
232529	0.0777968	-0.0217757	0.0807869	15.6372	8.8645	-4.1806e-05	-0.396943	-31.432	-2.28367	1	37	0.00262075	0.0324403	0	-0.00118686	-1	-1	-1	0	0	0	0	0	0	-1	-1	-1	0	0	0	0	0	0	11.9201	-3.33649	12.3782	-15.6372	-2283.67	8158.75	8472.33	-105.637	0.0000000E+000	0.0000000E+000	0.0000000E+000	105.637	0.0000000E+000	0.0000000E+000	0.0000000E+000	-105.637	0.0000000E+000	0.0000000E+000	0.0000000E+000	15.6372	0.0000000E+000	0.0000000E+000	0.0000000E+000	-15.6372	3.57265	74.3628	-0.000153419
184902	0.0803822	-0.0161319	0.0819849	11.3479	10.0135	-5.06416e-05	-0.461152	-53.3573	-2.06583	1	37	0.00377837	0.0460861	0	-0.00137208	-1	-1	-1	0	0	0	0	0	0	-1	-1	-1	0	0	0	0	0	0	11.9589	-2.40003	12.1974	-11.3479	-2065.83	10293.7	10498.9	-101.348	0.0000000E+000	0.0000000E+000	0.0000000E+000	101.348	0.0000000E+000	0.0000000E+000	0.0000000E+000	-101.348	0.0000000E+000	0.0000000E+000	0.0000000E+000	11.3479	0.0000000E+000	0.0000000E+000	0.0000000E+000	-11.3479	4.98282	78.6521	-0.000185214
147018	0.0822558	-0.0114672	0.0830513	7.93636	11.0265	-5.35682e-05	-0.466828	-94.4049	-1.79975	1	37	0.00532623	0.0641318	0	-0.0014966	-1	-1	-1	0	0	0	0	0	0	-1	-1	-1	0	0	0	0	0	0	11.9254	-1.6625	12.0408	-7.93636	-1799.75	12909.9	13034.8	-97.9364	0.0000000E+000	0.0000000E+000	0.0000000E+000	97.9364	0.0000000E+000	0.0000000E+000	0.0000000E+000	-97.9364	0.0000000E+000	0.0000000E+000	0.0000000E+000	7.93636	0.0000000E+000	0.0000000E+000	0.0000000E+000	-7.93636	7.17317	82.0636	-0.000124518
116909	0.0834964	-0.00761674	0.0838431	5.21224	12.1755	-5.43325e-05	-0.417099	-178.732	-1.47505	1	37	0.00526747	0.0628253	0	-0.00155812	-1	-1	-1	0	0	0	0	0	0	-1	-1	-1	0	0	0	0	0	0	11.8777	-1.08352	11.927	-5.21224	-1475.05	16169.8	16237	-95.2122	0.0000000E+000	0.0000000E+000	0.0000000E+000	95.2122	0.0000000E+000	0.0000000E+000	0.0000000E+000	-95.2122	0.0000000E+000	0.0000000E+000	0.0000000E+000	5.21224	0.0000000E+000	0.0000000E+000	0.0000000E+000	-5.21224	10.9622	84.7878	-6.15269e-05
92961.3	0.0847712	-0.00438171	0.0848843	2.95891	13.3235	-5.7986e-05	-0.505391	-390.727	-1.04113	1	37	0.00524412	0.0617797	0	-0.0017983	0.343651	0.151602	6.14836	1.00115e-05	5.46432e-06	7.51802e-06	7.77002e-06	6.25403e-06	3.11948e-06	0.0954915	0.0184378	0.35619	1.20415e-05	5.70768e-05	4.0479e-06	3.00201e-06	3.65875e-06	3.00084e-06	11.765	-0.608119	11.7807	-2.95891	-1041.14	20142.4	20169.3	-92.9589	0.0000000E+000	0.0000000E+000	0.0000000E+000	92.9589	0.0000000E+000	0.0000000E+000	0.0000000E+000	-92.9589	0.0000000E+000	0.0000000E+000	0.0000000E+000	2.95891	0.0000000E+000	0.0000000E+000	0.0000000E+000	-2.95891	19.3466	87.0411	-0.000240173
73912.6	0.085704	-0.00165242	0.0857199	1.10456	14.4715	-6.23852e-05	-0.490539	-1303.11	-0.484239	1	37	0.00522395	0.060942	0	-0.00185388	0.278556	0.140283	6.0323	5.93785e-06	7.13808e-06	3.95069e-06	5.6775e-06	6.35223e-06	3.38109e-06	0.103397	0.0232763	0.363247	9.98022e-06	6.17446e-05	3.86776e-06	3.55049e-06	2.66979e-06	3.34805e-06	11.6637	-0.224884	11.6659	-1.10456	-484.239	25115.4	25120	-91.1046	0.0000000E+000	0.0000000E+000	0.0000000E+000	91.1046	0.0000000E+000	0.0000000E+000	0.0000000E+000	-91.1046	0.0000000E+000	0.0000000E+000	0.0000000E+000	1.10456	0.0000000E+000	0.0000000E+000	0.0000000E+000	-1.10456	51.8657	88.8954	-5.55822e-05
58770	0.0867665	0.000604347	0.0867686	-0.399071	15.6195	-4.79573e-05	-0.43143	4481.03	0.217383	1	37	0.0052256	0.0602246	0	-0.0019183	0.335606	0.149801	6.16338	5.3599e-06	8.99199e-06	4.02802e-06	4.54354e-06	7.72068e-06	8.32556e-06	0.1067	0.052094	0.363991	6.22826e-06	6.32946e-05	4.82424e-06	3.32701e-06	3.68378e-06	4.80794e-06	11.5246	0.0802715	11.5249	0.399071	217.383	31209.8	31210.6	-89.6009	0.0000000E+000	0.0000000E+000	0.0000000E+000	89.6009	0.0000000E+000	0.0000000E+000	0.0000000E+000	-89.6009	0.0000000E+000	0.0000000E+000	0.0000000E+000	-0.399071	0.0000000E+000	0.0000000E+000	0.0000000E+000	0.399071	143.571	89.6009	-6.44225e-05
46735.8	0.0878701	0.00280904	0.087915	-1.83102	16.7675	-6.03348e-05	-0.492549	1212.3	1.23766	1	37	0.00518984	0.0590325	0	-0.00210717	0.301761	0.232804	6.25898	5.70431e-06	3.18075e-06	6.96817e-06	7.96384e-06	6.03276e-06	4.14948e-06	0.122785	0.0214038	0.374553	3.34328e-06	7.1811e-05	2.59439e-06	6.26343e-06	3.23013e-06	4.20724e-06	11.3688	0.36344	11.3746	1.83102	1237.66	38715.6	38735.3	-88.169	0.0000000E+000	0.0000000E+000	0.0000000E+000	88.169	0.0000000E+000	0.0000000E+000	0.0000000E+000	-88.169	0.0000000E+000	0.0000000E+000	0.0000000E+000	-1.83102	0.0000000E+000	0.0000000E+000	0.0000000E+000	1.83102	31.2812	88.169	-0.000188871
37160.4	0.0892502	0.00468258	0.089373	-3.00331	17.9155	-4.41546e-05	-0.395026	914.65	2.5108	1	37	0.00520132	0.0581979	0	-0.00220929	0.310258	0.137513	6.18079	6.58754e-06	4.16684e-06	7.97921e-06	6.56944e-06	5.97962e-06	5.21264e-06	0.125282	0.0437496	0.370573	2.56174e-06	7.2258e-05	2.65113e-06	7.95024e-06	2.58096e-06	2.04632e-06	11.1737	0.586236	11.1891	3.00331	2510.8	47856	47921.8	-86.9967	0.0000000E+000	0.0000000E+000	0.0000000E+000	86.9967	0.0000000E+000	0.0000000E+000	0.0000000E+000	-86.9967	0.0000000E+000	0.0000000E+000	0.0000000E+000	-3.00331	0.0000000E+000	0.0000000E+000	0.0000000E+000	3.00331	19.0601	86.9967	-0.00010212
29552	0.0906848	0.00642571	0.0909121	-4.05307	19.0635	-4.10976e-05	-0.415926	838.13	4.18707	1	37	0.00519319	0.0571232	0	-0.00234873	0.366415	0.143311	6.33034	8.1991e-06	1.09492e-05	5.15647e-06	6.19955e-06	6.57711e-06	6.09428e-06	0.127834	0.0199463	0.384609	8.86197e-06	7.16351e-05	1.5186e-06	9.76105e-06	3.50318e-06	2.21667e-06	10.9721	0.777459	10.9996	4.05307	4187.07	59091.3	59239.4	-85.9469	0.0000000E+000	0.0000000E+000	0.0000000E+000	85.9469	0.0000000E+000	0.0000000E+000	0.0000000E+000	-85.9469	0.0000000E+000	0.0000000E+000	0.0000000E+000	-4.05307	0.0000000E+000	0.0000000E+000	0.0000000E+000	4.05307	14.1128	85.9469	-0.000139439
23493.2	0.0924724	0.00788499	0.092808	-4.87374	20.2125	-5.90858e-05	-0.45756	859.167	6.20167	1	37	0.00519128	0.0559357	0	-0.00253994	0.443966	0.20365	6.21933	8.19251e-06	8.38049e-06	6.9811e-06	9.38542e-06	1.06521e-05	6.43196e-06	0.126766	0.012482	0.390584	3.37381e-06	6.96056e-05	3.64968e-06	1.07059e-05	4.52255e-06	3.45792e-06	10.736	0.915441	10.7749	4.87374	6201.67	72731.1	72995	-85.1263	0.0000000E+000	0.0000000E+000	0.0000000E+000	85.1263	0.0000000E+000	0.0000000E+000	0.0000000E+000	-85.1263	0.0000000E+000	0.0000000E+000	0.0000000E+000	-4.87374	0.0000000E+000	0.0000000E+000	0.0000000E+000	4.87374	11.7277	85.1263	-0.000191207
18677.6	0.0941471	0.0090657	0.0945825	-5.50022	21.3605	-4.93181e-05	-0.505484	939.934	8.63531	1	37	0.00517587	0.0547233	0	-0.00272179	0.357255	0.235379	6.28271	7.22701e-06	9.95549e-06	6.34817e-06	6.17392e-06	4.25385e-06	8.52558e-06	0.117771	0.0320944	0.399852	7.68098e-06	6.31038e-05	4.46431e-06	8.04539e-06	2.75616e-06	3.20946e-06	10.5241	1.0134	10.5728	5.50022	8635.31	89677.5	90092.2	-84.4998	0.0000000E+000	0.0000000E+000	0.0000000E+000	84.4998	0.0000000E+000	0.0000000E+000	0.0000000E+000	-84.4998	0.0000000E+000	0.0000000E+000	0.0000000E+000	-5.50022	0.0000000E+000	0.0000000E+000	0.0000000E+000	5.50022	10.385	84.4998	-0.000181855
14854.9	0.0961278	0.0100447	0.0966512	-5.96535	22.5095	-5.30463e-05	-0.451418	1066.63	11.5205	1	37	0.00516627	0.0534527	0	-0.00299692	0.336462	0.17307	6.26127	6.7517e-06	6.478e-06	5.82987e-06	4.00135e-06	5.57184e-06	8.96269e-06	0.108619	0.0213385	0.415285	7.04444e-06	5.63432e-05	2.79158e-06	9.21288e-06	5.20605e-06	2.711e-06	10.2905	1.07528	10.3465	5.96535	11520.5	110252	110852	-84.0347	0.0000000E+000	0.0000000E+000	0.0000000E+000	84.0347	0.0000000E+000	0.0000000E+000	0.0000000E+000	-84.0347	0.0000000E+000	0.0000000E+000	0.0000000E+000	-5.96535	0.0000000E+000	0.0000000E+000	0.0000000E+000	5.96535	9.57004	84.0347	-0.00027513
11811.5	0.0982921	0.0107827	0.0988818	-6.26037	23.6575	-4.66525e-05	-0.472226	1249.64	14.8597	1	37	0.00516151	0.0521988	0	-0.00317887	0.267021	0.175161	6.36933	6.03247e-06	7.08829e-06	5.46983e-06	2.47339e-06	4.58e-06	3.46643e-06	0.0954519	0.0506575	0.417097	5.16368e-06	4.83184e-05	6.2278e-06	5.50568e-06	5.80324e-06	1.75833e-06	10.0528	1.1028	10.1131	6.26037	14859.7	135457	136269	-83.7396	0.0000000E+000	0.0000000E+000	0.0000000E+000	83.7396	0.0000000E+000	0.0000000E+000	0.0000000E+000	-83.7396	0.0000000E+000	0.0000000E+000	0.0000000E+000	-6.26037	0.0000000E+000	0.0000000E+000	0.0000000E+000	6.26037	9.11569	83.7396	-0.00018195
9395.12	0.100484	0.0112216	0.101109	-6.37213	24.807	-0.000170166	-1.27009	1509.6	18.5949	1	37	0.00524744	0.0518989	0	-0.00357454	0.310126	0.179333	6.15536	3.31614e-06	7.29744e-06	5.92407e-06	4.64045e-06	7.60075e-06	7.27341e-06	0.121779	0.0517099	0.42773	1.07592e-05	6.08396e-05	6.19048e-06	9.2139e-06	3.57037e-06	3.23404e-06	9.82922	1.09768	9.89033	6.37213	18594.9	166509	167544	-83.6279	0.0000000E+000	0.0000000E+000	0.0000000E+000	83.6279	0.0000000E+000	0.0000000E+000	0.0000000E+000	-83.6279	0.0000000E+000	0.0000000E+000	0.0000000E+000	-6.37213	0.0000000E+000	0.0000000E+000	0.0000000E+000	6.37213	8.95452	83.6279	-0.000395664
7470.62	0.10264	0.0114829	0.103281	-6.3834	26.0012	-0.000171377	-1.20127	1855.3	22.9337	1	37	0.00519684	0.0503176	0	-0.00394912	0.355385	0.206855	6.30093	5.90197e-06	9.45344e-06	2.86623e-06	8.54026e-06	6.77404e-06	6.46517e-06	0.114607	0.0631945	0.443669	7.85543e-06	5.51699e-05	4.03448e-06	1.17473e-05	4.88503e-06	4.20691e-06	9.62231	1.07649	9.68234	6.3834	22933.8	204995	206274	-83.6166	0.0000000E+000	0.0000000E+000	0.0000000E+000	83.6166	0.0000000E+000	0.0000000E+000	0.0000000E+000	-83.6166	0.0000000E+000	0.0000000E+000	0.0000000E+000	-6.3834	0.0000000E+000	0.0000000E+000	0.0000000E+000	6.3834	8.93857	83.6166	-0.000374578
5938.89	0.104834	0.0114734	0.10546	-6.2458	27.2647	-0.000178424	-1.2222	2335.72	27.6459	1	37	0.00517868	0.0491055	0	-0.00429493	0.367857	0.187129	6.20818	6.98123e-06	8.32782e-06	5.16288e-06	6.04279e-06	1.13486e-05	4.23855e-06	0.103503	0.0144335	0.450248	6.96367e-06	4.8681e-05	4.33315e-06	1.01432e-05	4.99774e-06	2.5264e-06	9.42596	1.03161	9.48224	6.2458	27645.9	252604	254113	-83.7542	0.0000000E+000	0.0000000E+000	0.0000000E+000	83.7542	0.0000000E+000	0.0000000E+000	0.0000000E+000	-83.7542	0.0000000E+000	0.0000000E+000	0.0000000E+000	-6.2458	0.0000000E+000	0.0000000E+000	0.0000000E+000	6.2458	9.13713	83.7542	-0.00034581
4721.51	0.106887	0.0110942	0.107462	-5.92572	28.6017	-0.000177678	-1.17623	3038.38	32.384	1	37	0.00516099	0.0480263	0	-0.00467545	0.32099	0.191894	6.24073	5.21103e-06	8.65614e-06	4.81251e-06	5.21074e-06	8.13287e-06	5.16987e-06	0.0857379	0.0961291	0.458884	2.8693e-06	4.0257e-05	2.82303e-06	6.20477e-06	2.63578e-06	2.49277e-06	9.25593	0.960707	9.30565	5.92572	32384	312004	313680	-84.0743	0.0000000E+000	0.0000000E+000	0.0000000E+000	84.0743	0.0000000E+000	0.0000000E+000	0.0000000E+000	-84.0743	0.0000000E+000	0.0000000E+000	0.0000000E+000	-5.92572	0.0000000E+000	0.0000000E+000	0.0000000E+000	5.92572	9.6345	84.0743	-0.000380527
3753.8	0.108891	0.0106092	0.109407	-5.56476	29.9298	-0.000174248	-1.14512	3996.36	37.5792	1	37	0.00516586	0.047217	0	-0.0050415	0.280012	0.250781	6.15937	7.69459e-06	7.15857e-06	3.99609e-06	2.45493e-06	3.29346e-06	6.41572e-06	0.0849465	0.0760559	0.474716	5.30771e-06	3.84309e-05	3.40475e-06	7.18475e-06	3.11786e-06	3.98446e-06	9.09714	0.886335	9.14022	5.56476	37579.2	385704	387531	-84.4352	0.0000000E+000	0.0000000E+000	0.0000000E+000	84.4352	0.0000000E+000	0.0000000E+000	0.0000000E+000	-84.4352	0.0000000E+000	0.0000000E+000	0.0000000E+000	-5.56476	0.0000000E+000	0.0000000E+000	0.0000000E+000	5.56476	10.2638	84.4352	-0.00036605
2985.95	0.110682	0.0100201	0.111134	-5.17294	31.2587	-0.000180623	-1.19099	5319.42	43.2428	1	37	0.00516836	0.0465056	0	-0.00550166	0.319544	0.169183	6.32259	4.7652e-06	5.43937e-06	8.34649e-06	5.17099e-06	6.70049e-06	7.10379e-06	0.06775	0.0382491	0.485221	8.8374e-06	2.76784e-05	3.69633e-06	8.24444e-06	4.26787e-06	4.77822e-06	8.96148	0.811291	8.99813	5.17294	43242.8	477658	479611	-84.8271	0.0000000E+000	0.0000000E+000	0.0000000E+000	84.8271	0.0000000E+000	0.0000000E+000	0.0000000E+000	-84.8271	0.0000000E+000	0.0000000E+000	0.0000000E+000	-5.17294	0.0000000E+000	0.0000000E+000	0.0000000E+000	5.17294	11.0459	84.8271	-0.000460159
2374.24	0.112299	0.00919084	0.112675	-4.67879	32.5868	-0.000179934	-1.19566	7293.58	48.5285	1	37	0.0051751	0.0459295	0	-0.00591083	0.333734	0.136497	6.29531	1.01107e-05	5.51103e-06	6.69584e-06	4.97548e-06	4.44605e-06	7.29426e-06	0.0603757	0.0275063	0.479205	3.01753e-06	2.52663e-05	4.46693e-06	4.99297e-06	6.69292e-06	3.77765e-06	8.84552	0.723937	8.87509	4.67879	48528.4	592951	594934	-85.3212	0.0000000E+000	0.0000000E+000	0.0000000E+000	85.3212	0.0000000E+000	0.0000000E+000	0.0000000E+000	-85.3212	0.0000000E+000	0.0000000E+000	0.0000000E+000	-4.67879	0.0000000E+000	0.0000000E+000	0.0000000E+000	4.67879	12.2186	85.3212	-0.000409164
1888.19	0.11376	0.00849475	0.114077	-4.27049	33.916	-0.000170949	-1.15502	9922.58	55.0212	1	37	0.00515293	0.0451706	0	-0.00631605	0.311209	0.175644	6.27684	3.71055e-06	6.75638e-06	6.05688e-06	5.51604e-06	7.31453e-06	7.51005e-06	0.0438925	0.0414576	0.492388	4.11129e-06	1.65053e-05	4.19353e-06	5.21684e-06	4.31974e-06	4.14549e-06	8.74167	0.652761	8.76601	4.27049	55021.2	736834	738886	-85.7295	0.0000000E+000	0.0000000E+000	0.0000000E+000	85.7295	0.0000000E+000	0.0000000E+000	0.0000000E+000	-85.7295	0.0000000E+000	0.0000000E+000	0.0000000E+000	-4.27049	0.0000000E+000	0.0000000E+000	0.0000000E+000	4.27049	13.3918	85.7295	-0.000405226
1501.44	0.114901	0.00745998	0.115143	-3.71474	35.2446	-0.000167165	-1.13879	14209.3	59.6455	1	37	0.00511243	0.0444008	0	-0.0067579	0.26228	0.147735	6.31559	4.73726e-06	3.54073e-06	5.54306e-06	3.86475e-06	7.60288e-06	4.24401e-06	0.0342595	0.0157592	0.496243	5.6389e-06	8.2273e-06	4.70714e-06	8.31298e-06	3.25915e-06	4.26894e-06	8.66664	0.562686	8.68489	3.71474	59645.5	918676	920611	-86.2853	0.0000000E+000	0.0000000E+000	0.0000000E+000	86.2853	0.0000000E+000	0.0000000E+000	0.0000000E+000	-86.2853	0.0000000E+000	0.0000000E+000	0.0000000E+000	-3.71474	0.0000000E+000	0.0000000E+000	0.0000000E+000	3.71474	15.4023	86.2853	-0.000441851
1193.85	0.115933	0.00660299	0.116121	-3.25978	36.5719	-0.000177249	-1.17229	20189.7	65.2818	1	37	0.00508686	0.0438067	0	-0.00723671	0.340561	0.153874	6.31396	5.7249e-06	9.42954e-06	5.9969e-06	7.6057e-06	2.99774e-06	6.73828e-06	0.0386826	0.0733278	0.510719	3.41423e-06	5.57143e-06	3.5332e-06	1.29322e-05	6.82009e-06	2.36093e-06	8.5978	0.489691	8.61174	3.25978	65281.8	1.14619e+06	1.14805e+06	-86.7402	0.0000000E+000	0.0000000E+000	0.0000000E+000	86.7402	0.0000000E+000	0.0000000E+000	0.0000000E+000	-86.7402	0.0000000E+000	0.0000000E+000	0.0000000E+000	-3.25978	0.0000000E+000	0.0000000E+000	0.0000000E+000	3.25978	17.5576	86.7402	-0.000478808
949.092	0.116733	0.00587438	0.116881	-2.88088	37.9009	-0.000177361	-1.17307	28546.3	72.1089	1	37	0.00508591	0.0435137	0	-0.00766135	0.340607	0.14715	6.40831	8.12762e-06	5.08124e-06	4.44694e-06	8.03068e-06	4.94106e-06	7.8329e-06	0.0438469	0.0951753	0.523088	7.25282e-06	7.75344e-06	4.09747e-06	1.32072e-05	5.66709e-06	3.18806e-06	8.54492	0.430008	8.55574	2.88088	72108.9	1.43291e+06	1.43473e+06	-87.1191	0.0000000E+000	0.0000000E+000	0.0000000E+000	87.1191	0.0000000E+000	0.0000000E+000	0.0000000E+000	-87.1191	0.0000000E+000	0.0000000E+000	0.0000000E+000	-2.88088	0.0000000E+000	0.0000000E+000	0.0000000E+000	2.88088	19.8715	87.1191	-0.000424643
754.759	0.117479	0.00509324	0.117589	-2.48248	39.2298	-0.000178014	-1.18018	41401.6	77.6731	1	37	0.00510512	0.0434148	0	-0.00804482	0.301879	0.17719	6.32619	6.73332e-06	2.60597e-06	7.18497e-06	7.88459e-06	2.26081e-06	5.0958e-06	0.0452014	0.0186597	0.512964	4.45527e-06	9.4313e-06	5.44985e-06	1.321e-05	5.91609e-06	4.88735e-06	8.49619	0.368348	8.50417	2.48248	77673.1	1.79158e+06	1.79326e+06	-87.5175	0.0000000E+000	0.0000000E+000	0.0000000E+000	87.5175	0.0000000E+000	0.0000000E+000	0.0000000E+000	-87.5175	0.0000000E+000	0.0000000E+000	0.0000000E+000	-2.48248	0.0000000E+000	0.0000000E+000	0.0000000E+000	2.48248	23.0656	87.5175	-0.000383462
600.192	0.117919	0.0044824	0.118005	-2.1769	40.5587	-0.00014584	-1.13246	59158.8	85.3576	1	37	0.00510919	0.0432965	0	-0.00853451	0.271235	0.193749	6.33671	5.98304e-06	4.63792e-06	6.56748e-06	4.55502e-06	5.59827e-06	5.53057e-06	0.0531427	0.011462	0.505374	5.41556e-06	1.40848e-05	3.92199e-06	1.534e-05	4.37262e-06	4.2759e-06	8.46813	0.321894	8.47424	2.1769	85357.7	2.24552e+06	2.24714e+06	-87.8231	0.0000000E+000	0.0000000E+000	0.0000000E+000	87.8231	0.0000000E+000	0.0000000E+000	0.0000000E+000	-87.8231	0.0000000E+000	0.0000000E+000	0.0000000E+000	-2.1769	0.0000000E+000	0.0000000E+000	0.0000000E+000	2.1769	26.3072	87.8231	-0.000489693
476.984	0.118469	0.00383404	0.118531	-1.85363	41.8829	-0.000162765	-1.18744	87028.2	91.0563	1	37	0.00504742	0.0425832	0	-0.0089562	0.326964	0.103323	6.41692	7.49495e-06	6.23937e-06	7.75589e-06	7.02624e-06	5.40124e-06	5.08911e-06	0.0443337	0.0164365	0.534346	5.32905e-06	1.34281e-05	5.01328e-06	8.662e-06	4.75169e-06	3.88803e-06	8.43221	0.272894	8.43662	1.85363	91056.2	2.81357e+06	2.81504e+06	-88.1464	0.0000000E+000	0.0000000E+000	0.0000000E+000	88.1464	0.0000000E+000	0.0000000E+000	0.0000000E+000	-88.1464	0.0000000E+000	0.0000000E+000	0.0000000E+000	-1.85363	0.0000000E+000	0.0000000E+000	0.0000000E+000	1.85363	30.8992	88.1464	-0.000421691
379.393	0.118785	0.00327956	0.11883	-1.58149	42.9911	-0.000173838	-1.32176	127913	97.4304	1	37	0.00535983	0.0451051	0	-0.00934611	0.340418	0.148216	6.021	8.23946e-06	1.07295e-05	9.08285e-06	4.45382e-06	2.99529e-06	4.68809e-06	0.0565657	0.0190567	0.499281	1.00001e-05	1.48626e-05	2.49841e-06	1.65254e-05	3.64681e-06	3.83133e-06	8.41219	0.232254	8.41539	1.58149	97430.7	3.5289e+06	3.53025e+06	-88.4185	0.0000000E+000	0.0000000E+000	0.0000000E+000	88.4185	0.0000000E+000	0.0000000E+000	0.0000000E+000	-88.4185	0.0000000E+000	0.0000000E+000	0.0000000E+000	-1.58149	0.0000000E+000	0.0000000E+000	0.0000000E+000	1.58149	36.2197	88.4185	-0.000389914
301.641	0.119142	0.00290579	0.119177	-1.39713	44.3157	-0.000153259	-1.25167	181579	107.946	1	37	0.00501848	0.0421094	0	-0.00976094	0.424049	0.124169	6.46592	4.60188e-06	8.12872e-06	4.10196e-06	7.24395e-06	1.01663e-05	1.1967e-05	0.0761619	0.0296064	0.524109	7.6526e-06	2.42818e-05	7.15113e-06	1.26999e-05	7.50506e-06	4.0701e-06	8.38838	0.204587	8.39087	1.39713	107946	4.42596e+06	4.42728e+06	-88.6029	0.0000000E+000	0.0000000E+000	0.0000000E+000	88.6029	0.0000000E+000	0.0000000E+000	0.0000000E+000	-88.6029	0.0000000E+000	0.0000000E+000	0.0000000E+000	-1.39713	0.0000000E+000	0.0000000E+000	0.0000000E+000	1.39713	41.0015	88.6029	-0.000414824
239.924	0.11945	0.00258449	0.119478	-1.23949	45.4238	-0.000163847	-1.28844	256668	120.101	1	37	0.00516386	0.0432202	0	-0.0101407	0.32244	0.174695	6.25852	7.70067e-06	6.87248e-06	7.2472e-06	3.53708e-06	6.09756e-06	6.20022e-06	0.0787977	0.0243168	0.511766	4.82965e-06	2.92677e-05	3.54084e-06	1.46431e-05	4.19672e-06	3.04547e-06	8.36779	0.181051	8.36975	1.23949	120101	5.55083e+06	5.55213e+06	-88.7605	0.0000000E+000	0.0000000E+000	0.0000000E+000	88.7605	0.0000000E+000	0.0000000E+000	0.0000000E+000	-88.7605	0.0000000E+000	0.0000000E+000	0.0000000E+000	-1.23949	0.0000000E+000	0.0000000E+000	0.0000000E+000	1.23949	46.2179	88.7605	-0.000379755
190.672	0.119606	0.00226553	0.119628	-1.08514	46.5291	-0.000157173	-1.18413	368438	132.141	1	37	0.00525801	0.0439531	0	-0.0104486	0.317085	0.14106	6.15834	4.34495e-06	5.076e-06	7.30493e-06	8.44054e-06	4.05065e-06	7.32785e-06	0.0814456	0.0197943	0.511459	6.92808e-06	2.70993e-05	7.25198e-06	1.78103e-05	9.63068e-06	3.70933e-06	8.35776	0.158309	8.35926	1.08514	132141	6.97628e+06	6.97754e+06	-88.9149	0.0000000E+000	0.0000000E+000	0.0000000E+000	88.9149	0.0000000E+000	0.0000000E+000	0.0000000E+000	-88.9149	0.0000000E+000	0.0000000E+000	0.0000000E+000	-1.08514	0.0000000E+000	0.0000000E+000	0.0000000E+000	1.08514	52.7941	88.9149	-0.000307948
151.699	0.119965	0.00210487	0.119983	-1.0052	47.6305	-0.000160547	-1.17169	498439	153.399	1	37	0.00532662	0.0443947	0	-0.0107542	0.303439	0.194061	6.17179	4.61053e-06	7.60521e-06	8.23951e-06	3.39587e-06	7.34993e-06	4.21118e-06	0.0817406	0.0517461	0.487411	4.78991e-06	2.85932e-05	5.62473e-06	1.90146e-05	5.95717e-06	5.32573e-06	8.33323	0.146213	8.33451	1.0052	153399	8.7428e+06	8.74414e+06	-88.9948	0.0000000E+000	0.0000000E+000	0.0000000E+000	88.9948	0.0000000E+000	0.0000000E+000	0.0000000E+000	-88.9948	0.0000000E+000	0.0000000E+000	0.0000000E+000	-1.0052	0.0000000E+000	0.0000000E+000	0.0000000E+000	1.0052	56.9938	88.9948	-0.000305573
120.579	0.119958	0.00182783	0.119972	-0.872957	48.7358	-0.000149381	-1.23588	722129	167.619	1	37	0.00535955	0.0446732	0	-0.0111352	0.326502	0.144779	5.9651	8.74139e-06	6.21853e-06	6.86913e-06	4.43431e-06	5.91483e-06	5.81283e-06	0.0968765	0.0199734	0.506138	5.29441e-06	3.24568e-05	3.35447e-06	2.66844e-05	6.31004e-06	3.90664e-06	8.33429	0.126991	8.33526	0.872957	167618	1.10006e+07	1.10019e+07	-89.127	0.0000000E+000	0.0000000E+000	0.0000000E+000	89.127	0.0000000E+000	0.0000000E+000	0.0000000E+000	-89.127	0.0000000E+000	0.0000000E+000	0.0000000E+000	-0.872957	0.0000000E+000	0.0000000E+000	0.0000000E+000	0.872957	65.629	89.127	-0.000381013
95.8897	0.120182	0.00167303	0.120194	-0.797552	49.8379	-0.000163772	-1.22848	992075	192.216	1	37	0.00538881	0.0448344	0	-0.0115433	0.318538	0.191666	6.00376	8.70548e-06	9.06258e-06	6.62462e-06	3.8838e-06	6.21567e-06	4.48305e-06	0.104915	0.0245732	0.498626	8.95551e-06	3.58994e-05	4.56301e-06	2.68563e-05	7.41912e-06	4.81306e-06	8.3191	0.115809	8.31991	0.797552	192216	1.38078e+07	1.38091e+07	-89.2024	0.0000000E+000	0.0000000E+000	0.0000000E+000	89.2024	0.0000000E+000	0.0000000E+000	0.0000000E+000	-89.2024	0.0000000E+000	0.0000000E+000	0.0000000E+000	-0.797552	0.0000000E+000	0.0000000E+000	0.0000000E+000	0.797552	71.8349	89.2024	-0.000408111
76.244	0.120321	0.0016279	0.120332	-0.775147	50.9365	-0.000168041	-1.24807	1.28229e+06	234.684	1	37	0.00540436	0.0449123	0	-0.0119437	0.317743	0.11543	6.06658	7.67146e-06	7.53755e-06	8.349e-06	5.66342e-06	2.3812e-06	6.62022e-06	0.122788	0.0226552	0.492247	3.29932e-05	3.43396e-05	2.34298e-06	2.6146e-05	5.43408e-06	3.32125e-06	8.30961	0.112426	8.31037	0.775147	234684	1.73458e+07	1.73474e+07	-89.2249	0.0000000E+000	0.0000000E+000	0.0000000E+000	89.2249	0.0000000E+000	0.0000000E+000	0.0000000E+000	-89.2249	0.0000000E+000	0.0000000E+000	0.0000000E+000	-0.775147	0.0000000E+000	0.0000000E+000	0.0000000E+000	0.775147	73.9115	89.2249	-0.000400314
60.6403	0.120501	0.00163734	0.120513	-0.778473	52.0386	-0.00015132	-1.17586	1.60295e+06	295.892	1	37	0.00541613	0.0449425	0	-0.0123277	0.340407	0.170886	5.91058	7.52431e-06	1.12425e-05	2.46693e-06	4.51175e-06	8.03655e-06	5.3428e-06	0.0974016	0.0312507	0.489389	5.26862e-06	3.1208e-05	3.86409e-06	2.89177e-05	5.86519e-06	4.12515e-06	8.29712	0.112739	8.29789	0.778473	295892	2.17764e+07	2.17784e+07	-89.2215	0.0000000E+000	0.0000000E+000	0.0000000E+000	89.2215	0.0000000E+000	0.0000000E+000	0.0000000E+000	-89.2215	0.0000000E+000	0.0000000E+000	0.0000000E+000	-0.778473	0.0000000E+000	0.0000000E+000	0.0000000E+000	0.778473	73.5957	89.2215	-0.000384092
48.1956	0.120612	0.00151192	0.120621	-0.718189	53.1653	-0.000153632	-1.19419	2.18416e+06	343.158	1	37	0.00542029	0.0449364	0	-0.0127221	0.330359	0.174667	5.83555	7.51017e-06	1.07973e-05	3.17801e-06	4.35433e-06	6.02455e-06	7.12447e-06	0.111137	0.0518187	0.479929	5.77849e-06	3.94085e-05	5.1723e-06	2.84802e-05	5.95562e-06	3.40407e-06	8.28977	0.103916	8.29042	0.718189	343160	2.73751e+07	2.73772e+07	-89.2818	0.0000000E+000	0.0000000E+000	0.0000000E+000	89.2818	0.0000000E+000	0.0000000E+000	0.0000000E+000	-89.2818	0.0000000E+000	0.0000000E+000	0.0000000E+000	-0.718189	0.0000000E+000	0.0000000E+000	0.0000000E+000	0.718189	79.7739	89.2818	-0.000394365
38.3436	0.120743	0.00144836	0.120752	-0.687254	54.2924	-0.000153501	-1.1968	2.86583e+06	412.304	1	37	0.00542293	0.0449097	0	-0.0131134	0.301647	0.259499	6.01396	6.03534e-06	5.65988e-06	7.88696e-06	6.1897e-06	6.28524e-06	4.54323e-06	0.120269	0.0424673	0.495407	4.91184e-06	3.49296e-05	2.06731e-05	3.30247e-05	7.84012e-06	5.35955e-06	8.28085	0.0993323	8.28145	0.687254	412306	3.43718e+07	3.43743e+07	-89.3127	0.0000000E+000	0.0000000E+000	0.0000000E+000	89.3127	0.0000000E+000	0.0000000E+000	0.0000000E+000	-89.3127	0.0000000E+000	0.0000000E+000	0.0000000E+000	-0.687254	0.0000000E+000	0.0000000E+000	0.0000000E+000	0.687254	83.3652	89.3127	-0.000391254
30.4779	0.121053	0.00159507	0.121063	-0.754921	55.3896	-0.000159969	-1.20611	3.27383e+06	568.315	1	37	0.00543116	0.0448621	0	-0.013537	0.3271	0.284877	5.93872	5.61527e-06	8.17873e-06	7.54121e-06	4.03122e-06	6.42091e-06	7.52344e-06	0.163209	0.03302	0.487804	7.07853e-06	3.51606e-05	3.02571e-06	6.32735e-05	4.59912e-06	3.3534e-06	8.25942	0.108831	8.26014	0.754921	568315	4.31306e+07	4.31343e+07	-89.2451	0.0000000E+000	0.0000000E+000	0.0000000E+000	89.2451	0.0000000E+000	0.0000000E+000	0.0000000E+000	-89.2451	0.0000000E+000	0.0000000E+000	0.0000000E+000	-0.754921	0.0000000E+000	0.0000000E+000	0.0000000E+000	0.754921	75.892	89.2451	-0.000423651
24.2323	0.121006	0.00156748	0.121016	-0.742154	56.5141	-0.000152662	-1.19928	4.19009e+06	702.979	1	37	0.00542239	0.0448074	0	-0.0138819	0.290298	0.147651	5.90315	7.47219e-06	5.99279e-06	3.49043e-06	5.71673e-06	8.43881e-06	4.87888e-06	0.148556	0.0855138	0.479498	4.17493e-05	3.92796e-05	4.30481e-06	3.08658e-05	9.61084e-06	4.95996e-06	8.2627	0.107033	8.26339	0.742154	702982	5.42684e+07	5.42729e+07	-89.2578	0.0000000E+000	0.0000000E+000	0.0000000E+000	89.2578	0.0000000E+000	0.0000000E+000	0.0000000E+000	-89.2578	0.0000000E+000	0.0000000E+000	0.0000000E+000	-0.742154	0.0000000E+000	0.0000000E+000	0.0000000E+000	0.742154	77.1976	89.2578	-0.000344861
19.2663	0.121374	0.00171287	0.121386	-0.80852	57.6394	-0.000155943	-1.17037	4.82279e+06	960.298	1	37	0.005431	0.0447415	0	-0.0144046	0.322365	0.161019	5.95984	5.11764e-06	4.04725e-06	6.68649e-06	7.92898e-06	7.09291e-06	6.74392e-06	0.119723	0.0898968	0.483238	8.29365e-06	3.87247e-05	4.44454e-06	3.33816e-05	9.78108e-06	6.02777e-06	8.23735	0.116248	8.23817	0.80852	960295	6.8047e+07	6.80538e+07	-89.1915	0.0000000E+000	0.0000000E+000	0.0000000E+000	89.1915	0.0000000E+000	0.0000000E+000	0.0000000E+000	-89.1915	0.0000000E+000	0.0000000E+000	0.0000000E+000	-0.80852	0.0000000E+000	0.0000000E+000	0.0000000E+000	0.80852	70.8603	89.1915	-0.000522699
15.3186	0.121534	0.00170052	0.121546	-0.801639	58.7326	-0.000160063	-1.21269	6.10969e+06	1195.92	1	37	0.00543096	0.0446825	0	-0.0149014	0.291215	0.14662	5.84298	3.63214e-06	5.87883e-06	5.8435e-06	6.20142e-06	8.21415e-06	5.19898e-06	0.11829	0.0609966	0.485788	7.09855e-06	3.82402e-05	9.13643e-06	3.26109e-05	7.96142e-06	4.91784e-06	8.22656	0.115107	8.22736	0.801639	1.19592e+06	8.5471e+07	8.54793e+07	-89.1984	0.0000000E+000	0.0000000E+000	0.0000000E+000	89.1984	0.0000000E+000	0.0000000E+000	0.0000000E+000	-89.1984	0.0000000E+000	0.0000000E+000	0.0000000E+000	-0.801639	0.0000000E+000	0.0000000E+000	0.0000000E+000	0.801639	71.4686	89.1984	-0.000496862
12.188	0.121697	0.00179341	0.12171	-0.844287	59.7558	-0.000151898	-1.18232	7.28132e+06	1580.93	1	37	0.00542746	0.0445933	0	-0.0150075	0.30811	0.182247	5.88823	6.87636e-06	5.48732e-06	6.02046e-06	6.94268e-06	5.05834e-06	6.835e-06	0.147204	0.0892241	0.471351	9.33839e-06	3.85329e-05	4.01034e-05	2.94581e-05	1.17264e-05	7.29847e-06	8.21534	0.121067	8.21623	0.844287	1.58093e+06	1.07279e+08	1.07291e+08	-89.1557	0.0000000E+000	0.0000000E+000	0.0000000E+000	89.1557	0.0000000E+000	0.0000000E+000	0.0000000E+000	-89.1557	0.0000000E+000	0.0000000E+000	0.0000000E+000	-0.844287	0.0000000E+000	0.0000000E+000	0.0000000E+000	0.844287	67.858	89.1557	-0.000106103
9.68695	0.12203	0.00180476	0.122043	-0.847314	60.8662	-0.000162299	-1.21841	9.10363e+06	1990.79	1	37	0.005432	0.0445089	0	-0.0155304	0.342766	0.167891	5.90708	3.72384e-06	8.44061e-06	7.19809e-06	7.87348e-06	4.81661e-06	6.48188e-06	0.148881	0.110871	0.472205	2.26992e-05	4.02734e-05	6.26717e-06	4.0761e-05	1.32064e-05	7.93161e-06	8.19294	0.121169	8.19383	0.847314	1.99079e+06	1.34609e+08	1.34623e+08	-89.1527	0.0000000E+000	0.0000000E+000	0.0000000E+000	89.1527	0.0000000E+000	0.0000000E+000	0.0000000E+000	-89.1527	0.0000000E+000	0.0000000E+000	0.0000000E+000	-0.847314	0.0000000E+000	0.0000000E+000	0.0000000E+000	0.847314	67.6156	89.1527	-0.00052284
7.70465	0.122239	0.00192136	0.122254	-0.900507	62.0944	-0.0001516	-1.20667	1.07512e+07	2655.53	1	37	0.00543031	0.0444183	0	-0.0156866	0.223912	0.0908166	4.33851	3.78515e-06	7.22432e-06	2.77882e-06	4.1776e-06	3.51627e-06	5.04038e-06	0.153839	0.0660116	0.380363	4.26532e-05	4.03288e-05	6.20456e-06	3.30254e-05	7.16085e-06	4.28476e-06	8.17868	0.128553	8.17969	0.900507	2.65552e+06	1.68947e+08	1.68968e+08	-89.0995	0.0000000E+000	0.0000000E+000	0.0000000E+000	89.0995	0.0000000E+000	0.0000000E+000	0.0000000E+000	-89.0995	0.0000000E+000	0.0000000E+000	0.0000000E+000	-0.900507	0.0000000E+000	0.0000000E+000	0.0000000E+000	0.900507	63.6209	89.0995	-0.000156201
6.12745	0.122479	0.00204147	0.122496	-0.954913	63.5052	-0.000160124	-1.24361	1.27232e+07	3533.79	1	37	0.00542872	0.0443177	0	-0.0164745	0.198222	0.134728	3.33479	4.11544e-06	5.03879e-06	4.32582e-06	4.27963e-06	3.78692e-06	3.26221e-06	0.117843	0.0793495	0.337361	1.38496e-05	3.69109e-05	7.8918e-06	2.9701e-05	6.75013e-06	6.93523e-06	8.16242	0.136051	8.16355	0.954913	3.53378e+06	2.12011e+08	2.12041e+08	-89.0451	0.0000000E+000	0.0000000E+000	0.0000000E+000	89.0451	0.0000000E+000	0.0000000E+000	0.0000000E+000	-89.0451	0.0000000E+000	0.0000000E+000	0.0000000E+000	-0.954913	0.0000000E+000	0.0000000E+000	0.0000000E+000	0.954913	59.9955	89.0451	-0.00078797
4.87216	0.122644	0.00209379	0.122662	-0.978065	65.1574	-0.000150562	-1.17528	1.56015e+07	4545.84	1	37	0.00542737	0.0442467	0	-0.0169986	0.198192	0.0793411	3.71874	4.21833e-06	4.72468e-06	3.84312e-06	3.7302e-06	3.24684e-06	4.47758e-06	0.10865	0.101036	0.366329	1.49852e-05	3.08828e-05	6.25774e-06	3.06495e-05	9.92602e-06	3.44724e-06	8.15133	0.13916	8.15252	0.978065	4.54585e+06	2.66273e+08	2.66312e+08	-89.0219	0.0000000E+000	0.0000000E+000	0.0000000E+000	89.0219	0.0000000E+000	0.0000000E+000	0.0000000E+000	-89.0219	0.0000000E+000	0.0000000E+000	0.0000000E+000	-0.978065	0.0000000E+000	0.0000000E+000	0.0000000E+000	0.978065	58.5751	89.0219	-0.000524064
3.8714	0.122934	0.00222792	0.122954	-1.03826	67.1216	-0.000150626	-1.11404	1.84523e+07	6058.54	1	37	0.00542912	0.0441557	0	-0.0180913	0.167176	0.113701	2.94874	4.24178e-06	4.39715e-06	3.48036e-06	4.00338e-06	2.04898e-06	2.30894e-06	0.160124	0.10979	0.325637	2.79942e-05	4.7996e-05	2.01747e-05	3.58564e-05	5.92742e-06	5.29123e-06	8.1318	0.147372	8.13313	1.03826	6.05852e+06	3.34302e+08	3.34356e+08	-88.9617	0.0000000E+000	0.0000000E+000	0.0000000E+000	88.9617	0.0000000E+000	0.0000000E+000	0.0000000E+000	-88.9617	0.0000000E+000	0.0000000E+000	0.0000000E+000	-1.03826	0.0000000E+000	0.0000000E+000	0.0000000E+000	1.03826	55.1786	88.9617	-0.00109266
3.07821	0.123174	0.00252251	0.1232	-1.17321	69.4838	-0.000172462	-1.27578	2.04969e+07	8592.78	1	37	0.00543132	0.0440855	0	-0.0187802	0.131348	0.0964583	2.3523	1.15462e-06	4.52723e-06	3.45163e-06	1.52663e-06	2.24489e-06	8.99438e-07	0.136742	0.159726	0.298755	9.25905e-06	3.93024e-05	6.01565e-06	4.20685e-05	1.02945e-05	5.03352e-06	8.1152	0.166193	8.1169	1.17321	8.59279e+06	4.19585e+08	4.19673e+08	-88.8268	0.0000000E+000	0.0000000E+000	0.0000000E+000	88.8268	0.0000000E+000	0.0000000E+000	0.0000000E+000	-88.8268	0.0000000E+000	0.0000000E+000	0.0000000E+000	-1.17321	0.0000000E+000	0.0000000E+000	0.0000000E+000	1.17321	48.83	88.8268	-0.000688926
2.44752	0.123371	0.00269502	0.123401	-1.25142	72.3492	-0.000165476	-1.24454	2.41285e+07	11508.5	1	37	0.00542975	0.044001	0	-0.0197794	0.155393	0.0795927	2.12658	3.19242e-06	4.46648e-06	3.7601e-06	3.73918e-06	1.69729e-06	2.1331e-06	0.172063	0.153314	0.275691	2.45644e-05	4.21549e-05	6.61647e-06	3.13857e-05	9.67479e-06	4.29354e-05	8.10175	0.176981	8.10368	1.25142	1.15086e+07	5.26832e+08	5.26958e+08	-88.7486	0.0000000E+000	0.0000000E+000	0.0000000E+000	88.7486	0.0000000E+000	0.0000000E+000	0.0000000E+000	-88.7486	0.0000000E+000	0.0000000E+000	0.0000000E+000	-1.25142	0.0000000E+000	0.0000000E+000	0.0000000E+000	1.25142	45.7775	88.7486	-0.000999218
1.94632	0.123674	0.00305794	0.123712	-1.41639	75.8519	-0.000162805	-1.28575	2.6741e+07	16338.4	1	37	0.00543009	0.0438929	0	-0.0215949	0.174419	0.0710692	1.93394	4.10059e-06	6.13331e-06	2.09076e-06	3.35447e-06	8.8017e-07	2.7443e-06	0.149295	0.23442	0.278225	2.17458e-05	4.80007e-05	1.08307e-05	3.08944e-05	5.73494e-06	9.43943e-06	8.0808	0.199804	8.08327	1.41639	1.63384e+07	6.60787e+08	6.60989e+08	-88.5836	0.0000000E+000	0.0000000E+000	0.0000000E+000	88.5836	0.0000000E+000	0.0000000E+000	0.0000000E+000	-88.5836	0.0000000E+000	0.0000000E+000	0.0000000E+000	-1.41639	0.0000000E+000	0.0000000E+000	0.0000000E+000	1.41639	40.4437	88.5836	-0.00181545
1.54902	0.123923	0.00334939	0.123968	-1.54822	80.1547	-0.00016467	-1.31825	3.06759e+07	22392.8	1	37	0.00543075	0.0438077	0	-0.0213171	0.140598	0.0939292	1.68962	2.33937e-06	5.13578e-06	2.12173e-06	3.26086e-06	1.68188e-06	1.66823e-06	0.137908	0.242673	0.274107	3.0052e-05	3.54366e-05	1.5698e-05	3.28696e-05	6.35177e-06	6.02427e-06	8.06365	0.217945	8.06659	1.54822	2.23929e+07	8.28504e+08	8.28807e+08	-88.4518	0.0000000E+000	0.0000000E+000	0.0000000E+000	88.4518	0.0000000E+000	0.0000000E+000	0.0000000E+000	-88.4518	0.0000000E+000	0.0000000E+000	0.0000000E+000	-1.54822	0.0000000E+000	0.0000000E+000	0.0000000E+000	1.54822	36.9986	88.4518	0.000277778
1.23128	0.124077	0.00390342	0.124139	-1.8019	85.472	-0.000158331	-1.17928	3.31144e+07	32741	1	37	0.00542713	0.0437182	0	-0.0240373	0.129136	0.0856556	1.51114	1.81989e-06	4.94864e-06	2.9499e-06	2.38158e-06	1.50383e-06	1.60924e-06	0.185444	0.249445	0.283172	4.0698e-05	5.77648e-05	1.56284e-05	3.10991e-05	1.00519e-05	5.94625e-06	8.05151	0.253297	8.0555	1.8019	3.2741e+07	1.04073e+09	1.04125e+09	-88.1981	0.0000000E+000	0.0000000E+000	0.0000000E+000	88.1981	0.0000000E+000	0.0000000E+000	0.0000000E+000	-88.1981	0.0000000E+000	0.0000000E+000	0.0000000E+000	-1.8019	0.0000000E+000	0.0000000E+000	0.0000000E+000	1.8019	31.7869	88.1981	-0.00272023
0.978641	0.124429	0.00442472	0.124508	-2.03659	92.0456	-0.000156172	-1.1532	3.67546e+07	46418.3	1	37	0.00542657	0.0435842	0	-0.0246202	0.13973	0.0582902	1.35324	1.60375e-06	6.13961e-06	2.42096e-06	2.14877e-06	1.35361e-06	9.0278e-07	0.171192	0.149662	0.296462	5.0209e-05	4.44063e-05	1.32467e-05	2.41534e-05	1.36128e-05	7.38298e-06	8.02656	0.285426	8.03163	2.03659	4.64184e+07	1.30535e+09	1.30617e+09	-87.9634	0.0000000E+000	0.0000000E+000	0.0000000E+000	87.9634	0.0000000E+000	0.0000000E+000	0.0000000E+000	-87.9634	0.0000000E+000	0.0000000E+000	0.0000000E+000	-2.03659	0.0000000E+000	0.0000000E+000	0.0000000E+000	2.03659	28.1214	87.9634	-0.000582917
0.778176	0.124796	0.00516007	0.124903	-2.36771	100.214	-0.000144968	-1.18999	3.96358e+07	67647.5	1	37	0.00542756	0.0434542	0	-0.0308629	0.132314	0.0842808	1.17203	2.32573e-06	5.57526e-06	1.93305e-06	2.07808e-06	1.5341e-06	9.01532e-07	0.18975	0.0961295	0.273416	6.32062e-05	3.31144e-05	1.28625e-05	3.09153e-05	9.34249e-06	7.12677e-06	7.99937	0.330757	8.00621	2.36771	6.76474e+07	1.63606e+09	1.63745e+09	-87.6323	0.0000000E+000	0.0000000E+000	0.0000000E+000	87.6323	0.0000000E+000	0.0000000E+000	0.0000000E+000	-87.6323	0.0000000E+000	0.0000000E+000	0.0000000E+000	-2.36771	0.0000000E+000	0.0000000E+000	0.0000000E+000	2.36771	24.185	87.6323	-0.00624266
0.618591	0.125214	0.00618242	0.125367	-2.82667	110.406	-0.000147693	-1.01272	4.16157e+07	101207	1	37	0.00543032	0.0433155	0	-0.0300071	0.123955	0.0977934	1.04807	1.2588e-06	5.20186e-06	8.1743e-07	2.13515e-06	2.20868e-06	1.84498e-06	0.220569	0.442506	0.32066	5.2109e-05	5.43909e-05	2.38671e-05	3.12445e-05	2.09139e-05	2.08475e-05	7.9669	0.393364	7.9766	2.82667	1.01207e+08	2.04977e+09	2.05227e+09	-87.1733	0.0000000E+000	0.0000000E+000	0.0000000E+000	87.1733	0.0000000E+000	0.0000000E+000	0.0000000E+000	-87.1733	0.0000000E+000	0.0000000E+000	0.0000000E+000	-2.82667	0.0000000E+000	0.0000000E+000	0.0000000E+000	2.82667	20.2532	87.1733	0.000855775
0.492188	0.125654	0.00726929	0.125864	-3.31096	123.129	-0.000164	-1.16025	4.44833e+07	148380	1	37	0.00542804	0.0431262	0	-0.0326222	0.0985795	0.150465	0.930994	2.02396e-06	3.7534e-06	8.3718e-07	2.06107e-06	7.89205e-07	1.58365e-06	0.19869	0.389672	0.344819	4.91678e-05	4.05175e-05	3.57453e-05	2.86496e-05	1.28901e-05	7.52185e-06	7.93181	0.458867	7.94507	3.31096	1.4838e+08	2.56484e+09	2.56913e+09	-86.689	0.0000000E+000	0.0000000E+000	0.0000000E+000	86.689	0.0000000E+000	0.0000000E+000	0.0000000E+000	-86.689	0.0000000E+000	0.0000000E+000	0.0000000E+000	-3.31096	0.0000000E+000	0.0000000E+000	0.0000000E+000	3.31096	17.2856	86.689	-0.00261508
0.391114	0.126099	0.00899888	0.12642	-4.0819	139.057	-0.000160727	-1.08327	4.52198e+07	229126	1	37	0.00542749	0.0429322	0	-0.0436081	0.115686	0.0424096	0.821011	2.07989e-06	4.48917e-06	1.26249e-06	2.72723e-06	1.3304e-06	1.68252e-06	0.261318	0.10047	0.291494	1.49523e-05	9.39573e-05	1.41233e-05	4.08868e-05	1.62003e-05	1.22762e-05	7.89007	0.563062	7.91014	4.0819	2.29126e+08	3.21069e+09	3.21885e+09	-85.9181	0.0000000E+000	0.0000000E+000	0.0000000E+000	85.9181	0.0000000E+000	0.0000000E+000	0.0000000E+000	-85.9181	0.0000000E+000	0.0000000E+000	0.0000000E+000	-4.0819	0.0000000E+000	0.0000000E+000	0.0000000E+000	4.0819	14.0128	85.9181	-0.0109859
0.311199	0.127281	0.0103578	0.127702	-4.65235	158.993	-0.000151979	-1.08019	4.93757e+07	324831	1	37	0.0054255	0.0424857	0	-0.052211	0.12431	0.0808892	0.7428	1.52682e-06	5.23997e-06	1.92216e-06	2.71054e-06	1.01556e-06	1.45505e-06	0.21448	0.466499	0.329799	3.31842e-05	3.95824e-05	3.94579e-05	4.08172e-05	3.80352e-05	1.95715e-05	7.80495	0.635149	7.83075	4.65235	3.24831e+08	3.99165e+09	4.00484e+09	-85.3476	0.0000000E+000	0.0000000E+000	0.0000000E+000	85.3476	0.0000000E+000	0.0000000E+000	0.0000000E+000	-85.3476	0.0000000E+000	0.0000000E+000	0.0000000E+000	-4.65235	0.0000000E+000	0.0000000E+000	0.0000000E+000	4.65235	12.2884	85.3476	-0.00860298
0.247537	0.128455	0.0123885	0.129051	-5.5087	183.974	-0.000146663	-1.10122	5.18992e+07	478272	1	37	0.00542598	0.0420451	0	-0.0538659	0.122798	0.0858488	0.671328	1.79022e-06	5.41679e-06	1.17665e-06	2.66519e-06	1.10888e-06	1.11813e-06	0.313886	0.179628	0.453088	0.000103362	4.43434e-05	4.54668e-05	4.25014e-05	1.90117e-05	9.43879e-06	7.71306	0.743866	7.74885	5.5087	4.78272e+08	4.95915e+09	4.98216e+09	-84.4913	0.0000000E+000	0.0000000E+000	0.0000000E+000	84.4913	0.0000000E+000	0.0000000E+000	0.0000000E+000	-84.4913	0.0000000E+000	0.0000000E+000	0.0000000E+000	-5.5087	0.0000000E+000	0.0000000E+000	0.0000000E+000	5.5087	10.3689	84.4913	-0.00165483
0.196714	0.130058	0.0147359	0.13089	-6.46419	215.329	-0.000148475	-1.02007	5.49046e+07	695903	1	37	0.0054232	0.0414333	0	-0.0548233	0.118749	0.0751475	0.591604	1.08216e-06	5.31829e-06	2.13986e-06	2.26302e-06	5.78898e-07	8.60452e-07	0.446104	0.158833	0.356266	2.4286e-05	0.000160136	3.68731e-05	6.03746e-05	1.83191e-05	4.3938e-05	7.59144	0.860129	7.64001	6.46419	6.95902e+08	6.14199e+09	6.18128e+09	-83.5358	0.0000000E+000	0.0000000E+000	0.0000000E+000	83.5358	0.0000000E+000	0.0000000E+000	0.0000000E+000	-83.5358	0.0000000E+000	0.0000000E+000	0.0000000E+000	-6.46419	0.0000000E+000	0.0000000E+000	0.0000000E+000	6.46419	8.82593	83.5358	-0.000957421
0.15652	0.132592	0.0174602	0.133737	-7.50174	254.654	-0.000158947	-1.09935	5.82375e+07	992657	1	37	0.00542116	0.0405361	0	-0.0659195	0.117561	0.0832151	0.536109	1.88946e-06	4.60419e-06	1.62942e-06	2.52451e-06	8.76456e-07	1.32285e-06	0.439061	0.221238	0.445758	2.96993e-05	5.75958e-05	0.00014739	4.6402e-05	4.64386e-05	1.39088e-05	7.41338	0.97622	7.47738	7.50174	9.92656e+08	7.5382e+09	7.60328e+09	-82.4983	0.0000000E+000	0.0000000E+000	0.0000000E+000	82.4983	0.0000000E+000	0.0000000E+000	0.0000000E+000	-82.4983	0.0000000E+000	0.0000000E+000	0.0000000E+000	-7.50174	0.0000000E+000	0.0000000E+000	0.0000000E+000	7.50174	7.59397	82.4983	-0.0110962
0.124396	0.136084	0.0201465	0.137567	-8.42116	304.052	-0.000146742	-1.08865	6.35062e+07	1.36202e+06	1	37	0.00542193	0.039413	0	-0.090408	0.122885	0.0711189	0.478529	2.08469e-06	5.17085e-06	1.53276e-06	2.51367e-06	1.21589e-06	1.14777e-06	0.138026	0.0821283	0.595301	1.07136e-05	3.86811e-05	7.24006e-06	2.72349e-05	2.09678e-05	5.42826e-06	7.19081	1.06456	7.26918	8.42116	1.36202e+09	9.2001e+09	9.30037e+09	-81.5788	0.0000000E+000	0.0000000E+000	0.0000000E+000	81.5788	0.0000000E+000	0.0000000E+000	0.0000000E+000	-81.5788	0.0000000E+000	0.0000000E+000	0.0000000E+000	-8.42116	0.0000000E+000	0.0000000E+000	0.0000000E+000	8.42116	6.75473	81.5788	-0.0244885
0.0988834	0.140776	0.0220057	0.142486	-8.88439	366.115	-0.00015118	-1.0563	7.31411e+07	1.74457e+06	1	37	0.00541973	0.0380369	0	-0.122124	0.116339	0.107685	0.429234	1.8887e-06	4.98131e-06	1.56656e-06	2.28987e-06	1.26132e-06	9.34272e-07	0.439689	0.14405	0.501778	2.40902e-05	2.54246e-05	1.31253e-05	4.57789e-05	3.40334e-05	0.000150202	6.93403	1.08391	7.01824	8.88439	1.74457e+09	1.11605e+10	1.1296e+10	-81.1156	0.0000000E+000	0.0000000E+000	0.0000000E+000	81.1156	0.0000000E+000	0.0000000E+000	0.0000000E+000	-81.1156	0.0000000E+000	0.0000000E+000	0.0000000E+000	-8.88439	0.0000000E+000	0.0000000E+000	0.0000000E+000	8.88439	6.39727	81.1156	-0.0317159
0.0786856	0.146088	0.0228379	0.147862	-8.88514	444.028	-0.000153474	-1.08028	8.85663e+07	2.11285e+06	1	37	0.0054163	0.0366308	0	-0.1521	0.120729	0.085532	0.394663	2.26568e-06	5.0841e-06	9.15139e-07	2.66702e-06	1.1645e-06	4.89236e-07	0.143055	0.104051	0.692258	1.44883e-05	3.06558e-05	1.5446e-05	3.04727e-05	1.41733e-05	1.08827e-05	6.6819	1.04458	6.76306	8.88514	2.11285e+09	1.35153e+10	1.36794e+10	-81.1149	0.0000000E+000	0.0000000E+000	0.0000000E+000	81.1149	0.0000000E+000	0.0000000E+000	0.0000000E+000	-81.1149	0.0000000E+000	0.0000000E+000	0.0000000E+000	-8.88514	0.0000000E+000	0.0000000E+000	0.0000000E+000	8.88514	6.39672	81.1149	-0.0299763
0.062544	0.151278	0.0221773	0.152895	-8.34014	541.969	-0.000137454	-1.01974	1.14743e+08	2.41411e+06	1	37	0.00541375	0.0354083	0	-0.173004	0.0994902	0.0829054	0.355821	1.64551e-06	3.95619e-06	6.84898e-07	2.3376e-06	9.48089e-07	1.17293e-06	0.157057	0.0825987	0.749854	1.86695e-05	2.73776e-05	1.45077e-05	4.08157e-05	2.86207e-06	7.60829e-06	6.47127	0.948686	6.54043	8.34014	2.41411e+09	1.64673e+10	1.66433e+10	-81.6599	0.0000000E+000	0.0000000E+000	0.0000000E+000	81.6599	0.0000000E+000	0.0000000E+000	0.0000000E+000	-81.6599	0.0000000E+000	0.0000000E+000	0.0000000E+000	-8.34014	0.0000000E+000	0.0000000E+000	0.0000000E+000	8.34014	6.8213	81.6599	-0.0209034
0.0497507	0.155898	0.020299	0.157214	-7.41859	665.014	-0.00014783	-1.16663	1.57596e+08	2.62733e+06	1	37	0.00541419	0.0344384	0	-0.190348	0.108648	0.102505	0.325472	9.80036e-07	4.83593e-06	7.54716e-07	2.70151e-06	9.32184e-07	8.30851e-07	0.164858	0.157335	0.787913	1.27587e-05	4.73843e-05	6.37364e-06	1.82778e-05	1.40771e-05	1.04386e-05	6.30752	0.821285	6.36076	7.41859	2.62734e+09	2.01781e+10	2.03484e+10	-82.5814	0.0000000E+000	0.0000000E+000	0.0000000E+000	82.5814	0.0000000E+000	0.0000000E+000	0.0000000E+000	-82.5814	0.0000000E+000	0.0000000E+000	0.0000000E+000	-7.41859	0.0000000E+000	0.0000000E+000	0.0000000E+000	7.41859	7.68006	82.5814	-0.0173441
0.0395203	0.159704	0.0181651	0.160734	-6.48905	819.831	-0.000116828	-0.897705	2.21698e+08	2.83154e+06	1	37	0.00541475	0.0336876	0	-0.208497	0.129486	0.108012	0.299605	1.79012e-06	5.51609e-06	1.4141e-06	3.0557e-06	8.67194e-07	1.36121e-06	0.163524	0.126223	0.816125	1.79017e-05	3.77704e-05	8.88073e-06	3.16609e-05	6.55398e-06	4.27422e-06	6.18159	0.703107	6.22145	6.48905	2.83153e+09	2.48943e+10	2.50549e+10	-83.5109	0.0000000E+000	0.0000000E+000	0.0000000E+000	83.5109	0.0000000E+000	0.0000000E+000	0.0000000E+000	-83.5109	0.0000000E+000	0.0000000E+000	0.0000000E+000	-6.48905	0.0000000E+000	0.0000000E+000	0.0000000E+000	6.48905	8.79182	83.5109	-0.0181488
0.0314526	0.1624	0.0153748	0.163127	-5.40821	1014.28	-0.000127073	-0.976296	3.2912e+08	2.92365e+06	1	37	0.00541104	0.0331708	0	-0.250504	0.121693	0.108584	0.273328	1.44648e-06	5.42016e-06	1.98165e-06	2.4218e-06	4.53257e-07	1.08537e-06	0.132311	0.112458	0.841935	4.25373e-06	3.19634e-05	1.05571e-05	2.60697e-05	6.98023e-06	4.71738e-06	6.10292	0.577778	6.13021	5.40821	2.92365e+09	3.08818e+10	3.10198e+10	-84.5918	0.0000000E+000	0.0000000E+000	0.0000000E+000	84.5918	0.0000000E+000	0.0000000E+000	0.0000000E+000	-84.5918	0.0000000E+000	0.0000000E+000	0.0000000E+000	-5.40821	0.0000000E+000	0.0000000E+000	0.0000000E+000	5.40821	10.5627	84.5918	-0.0420071
0.0250094	0.164875	0.0137951	0.165451	-4.78281	1258.74	-0.000134589	-0.956998	4.61309e+08	3.20704e+06	1	37	0.00541261	0.0327144	0	-0.330598	0.136048	0.105765	0.25947	2.18334e-06	5.37212e-06	1.62325e-06	3.4396e-06	1.5769e-06	1.00652e-06	0.17133	0.0957744	0.851694	1.63357e-05	3.81442e-05	1.10614e-05	3.0792e-05	5.96137e-06	4.7268e-06	6.02305	0.50395	6.0441	4.78281	3.20703e+09	3.83295e+10	3.84634e+10	-85.2172	0.0000000E+000	0.0000000E+000	0.0000000E+000	85.2172	0.0000000E+000	0.0000000E+000	0.0000000E+000	-85.2172	0.0000000E+000	0.0000000E+000	0.0000000E+000	-4.78281	0.0000000E+000	0.0000000E+000	0.0000000E+000	4.78281	11.9517	85.2172	-0.0800941