File: Python/Experiments/IRFB/240415-Felt-0p5M_FeCl2FeCl23-1M_HCl/Data/240416-EIS-0p5M_FeCl2FeCl3-1M_HCl-50mLmin_Dampened-25mHz_10ppd_C15.mpt
EC-Lab ASCII FILE
Nb header lines : 66

Potentio Electrochemical Impedance Spectroscopy

Run on channel : 15 (SN 19485)
User :
Electrode connection : standard
Potential control : Ewe
Ewe ctrl range : min = -1.00 V, max = 1.00 V
Ewe,I filtering : <None>
Safety Limits :
	Do not start on E overload
Channel : Floating
Acquisition started on : 04/16/2024 15:05:11.128
Loaded Setting File :  NONE
Saved on :
	File : 240416-EIS-0p5M_FeCl2FeCl3-1M_HCl-50mLmin_Dampened-25mHz_10ppd_C15.mpr
	Directory : C:\Data\mathias\IRFB\
	Host : 192.168.0.1
Device : VMP-300 (SN 0826)
Address : USB
EC-Lab for windows v11.52 (software)
Internet server v11.52 (firmware)
Command interpretor v11.52 (firmware)
Electrode material :
Initial state :
Electrolyte :
Comments :
Cable : special
Electrode surface area : 0.001 cm²
Characteristic mass : 0.001 g
Equivalent Weight : 0.000 g/eq.
Density : 0.000 g/cm3
Volume (V) : 0.001 cm³
Record EIS quality indicators
Cycle Definition : Charge/Discharge alternance
Mode                Single sine
E (V)               0.0000
vs.                 Eoc
tE (h:m:s)          0:00:0.0000
record              0
dI                  0.000
unit dI             mA
dt (s)              0.000
fi                  920.000
unit fi             kHz
ff                  25.000
unit ff             mHz
Nd                  10
Points              per decade
spacing             Logarithmic
Va (mV)             5.0
pw                  0.10
Na                  3
corr                0
E range min (V)     -1.000
E range max (V)     1.000
I Range             Auto
Bandwidth           8
nc cycles           2
goto Ns'            0
nr cycles           0
inc. cycle          1

freq/Hz	Re(Z)/Ohm	-Im(Z)/Ohm	|Z|/Ohm	Phase(Z)/deg	time/s	<Ewe>/V	<I>/mA	Cs/µF	Cp/µF	cycle number	I Range	|Ewe|/V	|I|/A	Ns	(Q-Qo)/mA.h	THD Ewe/%	NSD Ewe/%	NSR Ewe/%	|Ewe h2|/V	|Ewe h3|/V	|Ewe h4|/V	|Ewe h5|/V	|Ewe h6|/V	|Ewe h7|/V	THD I/%	NSD I/%	NSR I/%	|I h2|/A	|I h3|/A	|I h4|/A	|I h5|/A	|I h6|/A	|I h7|/A	Re(Y)/Ohm-1	Im(Y)/Ohm-1	|Y|/Ohm-1	Phase(Y)/deg	Re(C)/nF	Im(C)/nF	|C|/nF	Phase(C)/deg	Re(M)	Im(M)	|M|	Phase(M)/deg	Re(Permittivity)	Im(Permittivity)	|Permittivity|	Phase(Permittivity)/deg	Re(Resistivity)/Ohm.cm	Im(Resistivity)/Ohm.cm	|Resistivity|/Ohm.cm	Phase(Resistivity)/deg	Re(Conductivity)/mS/cm	Im(Conductivity)/mS/cm	|Conductivity|/mS/cm	Phase(Conductivity)/deg	Tan(Delta)	Loss Angle(Delta)/deg	dq/mA.h
920001	-0.0954137	-0.220046	0.239841	113.442	1.97648	-0.000129566	-1.16628	-0.786174	-0.661754	1	37	0.000707001	0.00294779	0	-0.00060945	-1	-1	-1	0	0	0	0	0	0	-1	-1	-1	0	0	0	0	0	0	-1.65868	-3.82529	4.16942	-113.442	-661.754	-286.942	721.286	156.558	0.0000000E+000	0.0000000E+000	0.0000000E+000	-156.558	0.0000000E+000	0.0000000E+000	0.0000000E+000	156.558	0.0000000E+000	0.0000000E+000	0.0000000E+000	113.442	0.0000000E+000	0.0000000E+000	0.0000000E+000	-113.442	0.433608	23.442	-0.00060945
462524	0.0503061	-0.0501362	0.0710235	44.9031	5.41749	-0.000126789	-1.08993	-6.86332	-3.42005	1	37	0.000754138	0.0106181	0	-0.00171031	-1	-1	-1	0	0	0	0	0	0	-1	-1	-1	0	0	0	0	0	0	9.97277	-9.9391	14.0798	-44.9031	-3420.05	3431.64	4844.89	-134.903	0.0000000E+000	0.0000000E+000	0.0000000E+000	134.903	0.0000000E+000	0.0000000E+000	0.0000000E+000	-134.903	0.0000000E+000	0.0000000E+000	0.0000000E+000	44.9031	0.0000000E+000	0.0000000E+000	0.0000000E+000	-44.9031	1.00339	45.0969	-0.000352483
232529	0.0774315	-0.0218276	0.0804492	15.7429	8.85848	-0.000133015	-1.14402	-31.3572	-2.30838	1	37	0.00260825	0.0324211	0	-0.002737	-1	-1	-1	0	0	0	0	0	0	-1	-1	-1	0	0	0	0	0	0	11.9639	-3.37258	12.4302	-15.7429	-2308.38	8188.75	8507.89	-105.743	0.0000000E+000	0.0000000E+000	0.0000000E+000	105.743	0.0000000E+000	0.0000000E+000	0.0000000E+000	-105.743	0.0000000E+000	0.0000000E+000	0.0000000E+000	15.7429	0.0000000E+000	0.0000000E+000	0.0000000E+000	-15.7429	3.54741	74.2571	-0.000347169
116909	0.0830153	-0.00750774	0.0833541	5.16766	12.1645	-0.000124179	-1.12243	-181.327	-1.47105	1	37	0.00525329	0.0630238	0	-0.00379443	-1	-1	-1	0	0	0	0	0	0	-1	-1	-1	0	0	0	0	0	0	11.9483	-1.08058	11.997	-5.16766	-1471.05	16265.8	16332.2	-95.1677	0.0000000E+000	0.0000000E+000	0.0000000E+000	95.1677	0.0000000E+000	0.0000000E+000	0.0000000E+000	-95.1677	0.0000000E+000	0.0000000E+000	0.0000000E+000	5.16766	0.0000000E+000	0.0000000E+000	0.0000000E+000	-5.16766	11.0573	84.8323	-0.000295817
58770	0.0864655	0.000732652	0.0864686	-0.485475	15.6095	-0.00012334	-1.06414	3696.29	0.265366	1	37	0.00522168	0.0603881	0	-0.00491491	0.423826	0.222417	6.25287	3.50039e-06	9.13696e-06	8.51988e-06	7.16352e-06	7.96005e-06	1.1998e-05	0.105612	0.0512568	0.367248	5.92978e-06	6.27884e-05	4.35118e-06	2.53214e-06	3.91467e-06	6.42865e-06	11.5645	0.0979898	11.5649	0.485475	265.365	31317.7	31318.8	-89.5145	0.0000000E+000	0.0000000E+000	0.0000000E+000	89.5145	0.0000000E+000	0.0000000E+000	0.0000000E+000	-89.5145	0.0000000E+000	0.0000000E+000	0.0000000E+000	-0.485475	0.0000000E+000	0.0000000E+000	0.0000000E+000	0.485475	118.017	89.5145	-0.000306284
29552	0.0904963	0.00663279	0.0907391	-4.19191	19.0545	-0.000121122	-1.06138	811.963	4.33851	1	37	0.00519228	0.0572221	0	-0.00607149	0.387583	0.145526	6.25957	5.74454e-06	1.04537e-05	7.09182e-06	7.58346e-06	8.46012e-06	6.06786e-06	0.13162	0.0231331	0.382842	1.25215e-05	7.26138e-05	4.87177e-06	1.1441e-05	5.63823e-06	4.61288e-06	10.9911	0.805578	11.0206	4.19191	4338.51	59193.6	59352.4	-85.8081	0.0000000E+000	0.0000000E+000	0.0000000E+000	85.8081	0.0000000E+000	0.0000000E+000	0.0000000E+000	-85.8081	0.0000000E+000	0.0000000E+000	0.0000000E+000	-4.19191	0.0000000E+000	0.0000000E+000	0.0000000E+000	4.19191	13.6438	85.8081	-0.000446599
14854.9	0.09602	0.0102879	0.0965695	-6.11551	22.4995	-0.000126192	-1.03291	1041.42	11.8194	1	37	0.0051692	0.0535283	0	-0.00707132	0.335721	0.158477	6.29399	6.67185e-06	7.47684e-06	6.53441e-06	7.36214e-06	5.04924e-06	6.60751e-06	0.10708	0.0294746	0.412585	5.2947e-06	5.63428e-05	2.77902e-06	6.72184e-06	4.03216e-06	1.67225e-06	10.2963	1.10318	10.3552	6.11551	11819.4	110314	110946	-83.8845	0.0000000E+000	0.0000000E+000	0.0000000E+000	83.8845	0.0000000E+000	0.0000000E+000	0.0000000E+000	-83.8845	0.0000000E+000	0.0000000E+000	0.0000000E+000	-6.11551	0.0000000E+000	0.0000000E+000	0.0000000E+000	6.11551	9.33333	83.8845	-0.000316447
7470.62	0.10264	0.0118209	0.103318	-6.56976	25.9892	-0.000236695	-1.91441	1802.24	23.5918	1	37	0.00518572	0.0501916	0	-0.00868279	0.340359	0.185423	6.25157	3.93034e-06	4.82146e-06	4.85925e-06	1.01175e-05	3.91488e-06	8.35356e-06	0.114354	0.0607615	0.446019	6.38837e-06	5.47186e-05	8.17578e-06	1.01805e-05	7.11818e-06	3.76462e-06	9.61526	1.10738	9.67882	6.56976	23591.8	204845	206199	-83.4302	0.0000000E+000	0.0000000E+000	0.0000000E+000	83.4302	0.0000000E+000	0.0000000E+000	0.0000000E+000	-83.4302	0.0000000E+000	0.0000000E+000	0.0000000E+000	-6.56976	0.0000000E+000	0.0000000E+000	0.0000000E+000	6.56976	8.68288	83.4302	-0.000666173
3753.8	0.109292	0.0110825	0.109852	-5.79019	29.9188	-0.000241672	-1.87673	3825.69	38.9377	1	37	0.00518718	0.0472196	0	-0.0107316	0.285963	0.199914	6.14181	1.71815e-06	5.06453e-06	4.1692e-06	5.74628e-06	9.8338e-06	4.80354e-06	0.0769755	0.0674	0.473032	4.4541e-06	3.4882e-05	4.21262e-06	3.90148e-06	5.04386e-06	2.35569e-06	9.05669	0.918377	9.10313	5.79019	38937.7	383989	385958	-84.2098	0.0000000E+000	0.0000000E+000	0.0000000E+000	84.2098	0.0000000E+000	0.0000000E+000	0.0000000E+000	-84.2098	0.0000000E+000	0.0000000E+000	0.0000000E+000	-5.79019	0.0000000E+000	0.0000000E+000	0.0000000E+000	5.79019	9.86162	84.2098	-0.000749842
1888.19	0.114413	0.00873723	0.114746	-4.36695	33.905	-0.000238484	-1.94719	9647.21	55.9333	1	37	0.00513057	0.0447122	0	-0.012849	0.351628	0.141948	6.31339	1.01698e-05	6.57473e-06	7.35769e-06	8.1301e-06	4.34427e-06	4.24483e-06	0.0539455	0.0434652	0.489653	8.9712e-06	1.78392e-05	5.6511e-06	4.95266e-06	7.33032e-06	6.19128e-06	8.68957	0.663583	8.71487	4.36695	55933.3	732443	734575	-85.6331	0.0000000E+000	0.0000000E+000	0.0000000E+000	85.6331	0.0000000E+000	0.0000000E+000	0.0000000E+000	-85.6331	0.0000000E+000	0.0000000E+000	0.0000000E+000	-4.36695	0.0000000E+000	0.0000000E+000	0.0000000E+000	4.36695	13.0949	85.6331	-0.000692493
949.092	0.117574	0.006119	0.117733	-2.9792	37.89	-0.000249836	-2.01385	27405.1	74.0276	1	37	0.00511375	0.043435	0	-0.0150497	0.274292	0.100378	6.24097	4.26064e-06	5.5547e-06	4.55189e-06	6.66397e-06	5.21834e-06	5.97363e-06	0.0351551	0.10386	0.503329	6.02287e-06	6.54198e-06	4.09292e-06	9.30174e-06	5.15091e-06	2.52678e-06	8.48229	0.44145	8.49377	2.9792	74027.6	1.42241e+06	1.42434e+06	-87.0208	0.0000000E+000	0.0000000E+000	0.0000000E+000	87.0208	0.0000000E+000	0.0000000E+000	0.0000000E+000	-87.0208	0.0000000E+000	0.0000000E+000	0.0000000E+000	-2.9792	0.0000000E+000	0.0000000E+000	0.0000000E+000	2.9792	19.2146	87.0208	-0.000832008
476.984	0.119429	0.00409351	0.119499	-1.96308	41.6519	-0.000221521	-1.89643	81511.8	95.6496	1	37	0.005451	0.0456154	0	-0.0169519	0.313611	0.129887	5.9815	6.34373e-06	6.56946e-06	7.78028e-06	4.57105e-06	8.00449e-06	4.99705e-06	0.0526751	0.0778124	0.47766	6.52841e-06	1.74146e-05	5.11796e-06	1.15901e-05	5.47807e-06	4.92956e-06	8.36335	0.28666	8.36827	1.96308	95649.5	2.7906e+06	2.79223e+06	-88.0369	0.0000000E+000	0.0000000E+000	0.0000000E+000	88.0369	0.0000000E+000	0.0000000E+000	0.0000000E+000	-88.0369	0.0000000E+000	0.0000000E+000	0.0000000E+000	-1.96308	0.0000000E+000	0.0000000E+000	0.0000000E+000	1.96308	29.1752	88.0369	-0.000561458
239.924	0.120459	0.00270692	0.120489	-1.28731	45.1938	-0.000223963	-1.93673	245060	123.687	1	37	0.00546326	0.0453422	0	-0.0189043	0.270879	0.18833	5.87926	5.86178e-06	6.02808e-06	4.87502e-06	5.27623e-06	5.71765e-06	5.90674e-06	0.0764163	0.0839224	0.484336	6.87285e-06	2.57556e-05	4.54553e-06	1.8786e-05	7.29505e-06	5.61629e-06	8.29739	0.186456	8.29948	1.28731	123687	5.50413e+06	5.50552e+06	-88.7127	0.0000000E+000	0.0000000E+000	0.0000000E+000	88.7127	0.0000000E+000	0.0000000E+000	0.0000000E+000	-88.7127	0.0000000E+000	0.0000000E+000	0.0000000E+000	-1.28731	0.0000000E+000	0.0000000E+000	0.0000000E+000	1.28731	44.5005	88.7127	-0.000546443
120.579	0.121109	0.00191555	0.121124	-0.906156	48.7258	-0.000205863	-1.85944	689059	172.338	1	37	0.00520907	0.043006	0	-0.020761	0.292841	0.164645	6.24669	6.29264e-06	4.23206e-06	5.69471e-06	5.19411e-06	5.45334e-06	6.98842e-06	0.0895638	0.0896729	0.511587	3.70559e-06	2.72517e-05	4.22829e-06	2.46321e-05	7.09912e-06	4.03636e-06	8.25496	0.130566	8.25599	0.906156	172338	1.08959e+07	1.08973e+07	-89.0938	0.0000000E+000	0.0000000E+000	0.0000000E+000	89.0938	0.0000000E+000	0.0000000E+000	0.0000000E+000	-89.0938	0.0000000E+000	0.0000000E+000	0.0000000E+000	-0.906156	0.0000000E+000	0.0000000E+000	0.0000000E+000	0.906156	63.2242	89.0938	-0.000518827
60.6403	0.121641	0.00148735	0.12165	-0.700542	52.0296	-0.0002048	-1.81378	1.7646e+06	263.784	1	37	0.0052573	0.0432167	0	-0.0222856	0.274889	0.220809	6.21465	3.21506e-06	5.5853e-06	4.89983e-06	5.98496e-06	5.47054e-06	6.15691e-06	0.110171	0.0860798	0.508826	2.8959e-06	3.60074e-05	5.79611e-06	2.81796e-05	8.77534e-06	5.05476e-06	8.21971	0.100505	8.22032	0.700542	263782	2.15732e+07	2.15748e+07	-89.2995	0.0000000E+000	0.0000000E+000	0.0000000E+000	89.2995	0.0000000E+000	0.0000000E+000	0.0000000E+000	-89.2995	0.0000000E+000	0.0000000E+000	0.0000000E+000	-0.700542	0.0000000E+000	0.0000000E+000	0.0000000E+000	0.700542	81.7837	89.2995	-0.000470787
30.4779	0.122159	0.00137317	0.122167	-0.644022	55.3806	-0.000208808	-1.8202	3.80288e+06	480.453	1	37	0.00526788	0.0431203	0	-0.0240934	0.339158	0.146188	6.10889	5.43333e-06	7.32268e-06	7.13998e-06	7.53906e-06	6.44471e-06	6.29995e-06	0.132074	0.100572	0.502947	7.68397e-06	3.96389e-05	7.06162e-06	3.59027e-05	9.44306e-06	4.36741e-06	8.185	0.0920058	8.18552	0.644022	480451	4.2742e+07	4.27447e+07	-89.356	0.0000000E+000	0.0000000E+000	0.0000000E+000	89.356	0.0000000E+000	0.0000000E+000	0.0000000E+000	-89.356	0.0000000E+000	0.0000000E+000	0.0000000E+000	-0.644022	0.0000000E+000	0.0000000E+000	0.0000000E+000	0.644022	88.9618	89.356	-0.000632558
15.3186	0.122797	0.00134464	0.122804	-0.627371	58.7256	-0.000201389	-1.79629	7.72672e+06	926.364	1	37	0.00527231	0.0429328	0	-0.0257646	0.357572	0.240825	6.09885	9.29322e-06	5.93477e-06	8.30076e-06	5.08603e-06	7.88872e-06	6.40227e-06	0.101212	0.0964965	0.498697	5.78554e-06	2.86523e-05	6.19789e-06	2.75878e-05	1.08258e-05	5.94743e-06	8.14258	0.0891623	8.14307	0.627371	926367	8.45985e+07	8.46035e+07	-89.3726	0.0000000E+000	0.0000000E+000	0.0000000E+000	89.3726	0.0000000E+000	0.0000000E+000	0.0000000E+000	-89.3726	0.0000000E+000	0.0000000E+000	0.0000000E+000	-0.627371	0.0000000E+000	0.0000000E+000	0.0000000E+000	0.627371	91.3232	89.3726	-0.000434082
7.70465	0.123297	0.00147204	0.123306	-0.684022	62.0864	-0.000202209	-1.82186	1.40329e+07	1999.96	1	37	0.00527382	0.0427702	0	-0.0272425	0.242649	0.116582	4.39937	4.35493e-06	5.08194e-06	4.25693e-06	5.86489e-06	4.11107e-06	5.02345e-06	0.156462	0.103944	0.392864	4.0883e-05	4.22643e-05	6.21527e-06	2.70384e-05	9.67344e-06	5.48801e-06	8.10934	0.0968175	8.10992	0.684022	1.99996e+06	1.67515e+08	1.67527e+08	-89.316	0.0000000E+000	0.0000000E+000	0.0000000E+000	89.316	0.0000000E+000	0.0000000E+000	0.0000000E+000	-89.316	0.0000000E+000	0.0000000E+000	0.0000000E+000	-0.684022	0.0000000E+000	0.0000000E+000	0.0000000E+000	0.684022	83.7591	89.316	-0.000254897
3.8714	0.123619	0.00175365	0.123632	-0.812741	67.1136	-0.00020693	-1.85942	2.34427e+07	4716.69	1	37	0.00527126	0.0426369	0	-0.0297295	0.170551	0.109121	3.10638	3.86224e-06	3.18004e-06	2.14674e-06	5.19262e-06	4.05801e-06	1.35392e-06	0.137751	0.0358585	0.319829	1.92297e-05	3.69066e-05	2.53805e-05	2.92274e-05	5.21224e-06	7.80459e-06	8.08774	0.114732	8.08855	0.812741	4.71671e+06	3.3249e+08	3.32523e+08	-89.1873	0.0000000E+000	0.0000000E+000	0.0000000E+000	89.1873	0.0000000E+000	0.0000000E+000	0.0000000E+000	-89.1873	0.0000000E+000	0.0000000E+000	0.0000000E+000	-0.812741	0.0000000E+000	0.0000000E+000	0.0000000E+000	0.812741	70.4923	89.1873	-0.000310116
1.94632	0.124218	0.00239532	0.124241	-1.10471	75.8428	-0.000204804	-1.90491	3.41384e+07	12689.3	1	37	0.00527282	0.0424402	0	-0.0343125	0.14033	0.0925251	2.02361	1.73878e-06	4.06982e-06	2.13821e-06	4.16659e-06	3.18287e-06	1.37344e-06	0.116128	0.048195	0.278997	7.38994e-06	3.73065e-05	5.81425e-06	2.783e-05	6.94742e-06	6.66512e-06	8.04735	0.155179	8.04885	1.10471	1.26893e+07	6.58052e+08	6.58174e+08	-88.8953	0.0000000E+000	0.0000000E+000	0.0000000E+000	88.8953	0.0000000E+000	0.0000000E+000	0.0000000E+000	-88.8953	0.0000000E+000	0.0000000E+000	0.0000000E+000	-1.10471	0.0000000E+000	0.0000000E+000	0.0000000E+000	1.10471	51.8587	88.8953	-0.00107412
0.978641	0.125064	0.00385846	0.125123	-1.76713	92.0355	-0.000195654	-1.79805	4.21486e+07	40080.7	1	37	0.00527089	0.0421256	0	-0.0404696	0.142635	0.084059	1.38624	2.25409e-06	5.585e-06	2.26882e-06	1.39987e-06	2.1885e-06	1.99396e-06	0.121705	0.0953305	0.269992	1.58829e-05	3.79465e-05	8.90579e-06	2.54013e-05	9.66625e-06	7.56214e-06	7.98833	0.246455	7.99213	1.76713	4.00807e+07	1.29913e+09	1.29975e+09	-88.2329	0.0000000E+000	0.0000000E+000	0.0000000E+000	88.2329	0.0000000E+000	0.0000000E+000	0.0000000E+000	-88.2329	0.0000000E+000	0.0000000E+000	0.0000000E+000	-1.76713	0.0000000E+000	0.0000000E+000	0.0000000E+000	1.76713	32.4129	88.2329	0.000232404
0.492188	0.127868	0.00615575	0.128016	-2.75617	123.119	-0.000193292	-1.78689	5.25301e+07	121462	1	37	0.00527036	0.0411696	0	-0.054738	0.102076	0.075136	0.945869	7.81003e-07	3.73864e-06	1.18405e-06	2.49439e-06	1.88279e-06	1.26337e-06	0.116435	0.0830451	0.257715	8.9912e-06	3.37619e-05	6.88772e-06	2.93244e-05	5.29514e-06	7.71691e-06	7.80249	0.375623	7.81152	2.75617	1.21462e+08	2.52303e+09	2.52595e+09	-87.2438	0.0000000E+000	0.0000000E+000	0.0000000E+000	87.2438	0.0000000E+000	0.0000000E+000	0.0000000E+000	-87.2438	0.0000000E+000	0.0000000E+000	0.0000000E+000	-2.75617	0.0000000E+000	0.0000000E+000	0.0000000E+000	2.75617	20.7721	87.2438	-0.000858548
0.247537	0.132605	0.00568954	0.132727	-2.45682	183.964	-0.000203091	-1.77103	1.13006e+08	207654	1	37	0.00526874	0.0396961	0	-0.0948912	0.116496	0.087605	0.679312	1.72485e-06	4.86813e-06	1.10674e-06	2.4573e-06	1.42085e-06	8.04731e-07	0.11595	0.0436445	0.25069	4.87462e-06	3.23119e-05	5.77597e-06	3.02209e-05	5.9455e-06	6.67204e-06	7.52734	0.322968	7.53427	2.45682	2.07654e+08	4.83974e+09	4.8442e+09	-87.5432	0.0000000E+000	0.0000000E+000	0.0000000E+000	87.5432	0.0000000E+000	0.0000000E+000	0.0000000E+000	-87.5432	0.0000000E+000	0.0000000E+000	0.0000000E+000	-2.45682	0.0000000E+000	0.0000000E+000	0.0000000E+000	2.45682	23.3068	87.5432	-0.0160805
0.124396	0.135089	0.00361329	0.135137	-1.53215	304.041	-0.000205099	-1.75831	3.54089e+08	253143	1	37	0.00526571	0.0389656	0	-0.131504	0.110189	0.0836358	0.489613	2.61212e-06	4.33662e-06	8.6608e-07	1.35718e-06	1.4316e-06	9.16141e-07	0.122069	0.0970642	0.240667	1.59053e-05	3.09774e-05	7.64856e-06	2.86022e-05	8.49969e-06	5.4902e-06	7.39723	0.197857	7.39988	1.53215	2.53143e+08	9.46421e+09	9.46759e+09	-88.4678	0.0000000E+000	0.0000000E+000	0.0000000E+000	88.4678	0.0000000E+000	0.0000000E+000	0.0000000E+000	-88.4678	0.0000000E+000	0.0000000E+000	0.0000000E+000	-1.53215	0.0000000E+000	0.0000000E+000	0.0000000E+000	1.53215	37.3868	88.4678	-0.0177717
0.062544	0.135814	0.00194659	0.135828	-0.821154	541.957	-0.00018914	-1.75543	1.30725e+09	268493	1	37	0.00526763	0.0387817	0	-0.288126	0.0857263	0.0609388	0.368161	1.34856e-06	3.15358e-06	1.4823e-06	1.77811e-06	7.20251e-07	1.09679e-06	0.127629	0.104672	0.232533	1.15224e-05	3.37652e-05	1.15619e-05	3.05716e-05	5.7171e-06	5.52568e-06	7.36152	0.105511	7.36228	0.821154	2.68493e+08	1.87328e+10	1.87347e+10	-89.1788	0.0000000E+000	0.0000000E+000	0.0000000E+000	89.1788	0.0000000E+000	0.0000000E+000	0.0000000E+000	-89.1788	0.0000000E+000	0.0000000E+000	0.0000000E+000	-0.821154	0.0000000E+000	0.0000000E+000	0.0000000E+000	0.821154	69.7699	89.1788	-0.0659573
0.0314526	0.135767	0.00109745	0.135772	-0.46313	1014.27	-0.000200123	-1.72836	4.61083e+09	301253	1	37	0.00526461	0.0387755	0	-0.475506	0.141061	0.152021	0.286266	2.49037e-06	5.80418e-06	2.24152e-06	2.13937e-06	1.24884e-06	1.1072e-06	0.1212	0.215859	0.204139	1.60934e-05	2.69286e-05	1.14969e-05	2.99317e-05	2.51563e-06	8.33964e-06	7.36507	0.0595342	7.36531	0.46313	3.01251e+08	3.72684e+10	3.72696e+10	-89.5369	0.0000000E+000	0.0000000E+000	0.0000000E+000	89.5369	0.0000000E+000	0.0000000E+000	0.0000000E+000	-89.5369	0.0000000E+000	0.0000000E+000	0.0000000E+000	-0.46313	0.0000000E+000	0.0000000E+000	0.0000000E+000	0.46313	123.711	89.5369	-0.057283
731536	-0.0251142	-0.121187	0.123761	101.708	1261.28	-0.000110963	-0.902724	-1.79527	-1.72135	2	37	0.000592229	0.00478525	0	-0.563884	-1	-1	-1	0	0	0	0	0	0	-1	-1	-1	0	0	0	0	0	0	-1.63964	-7.91195	8.08006	-101.708	-1721.35	-356.724	1757.92	168.292	0.0000000E+000	0.0000000E+000	0.0000000E+000	-168.292	0.0000000E+000	0.0000000E+000	0.0000000E+000	168.292	0.0000000E+000	0.0000000E+000	0.0000000E+000	101.708	0.0000000E+000	0.0000000E+000	0.0000000E+000	-101.708	0.207236	11.708	-0.000291823
367781	0.0648413	-0.0373911	0.0748497	29.9701	1264.73	-0.000108931	-0.894386	-11.5734	-2.88814	2	37	0.00115185	0.0153889	0	-0.564709	-1	-1	-1	0	0	0	0	0	0	-1	-1	-1	0	0	0	0	0	0	11.5737	-6.67402	13.3601	-29.9701	-2888.14	5008.43	5781.5	-119.97	0.0000000E+000	0.0000000E+000	0.0000000E+000	119.97	0.0000000E+000	0.0000000E+000	0.0000000E+000	-119.97	0.0000000E+000	0.0000000E+000	0.0000000E+000	29.9701	0.0000000E+000	0.0000000E+000	0.0000000E+000	-29.9701	1.73414	60.0299	-0.000298129
184902	0.080088	-0.0160569	0.0816818	11.3369	1268.17	-9.80263e-05	-0.831907	-53.6065	-2.07152	2	37	0.00375913	0.0460216	0	-0.565482	-1	-1	-1	0	0	0	0	0	0	-1	-1	-1	0	0	0	0	0	0	12.0038	-2.40663	12.2426	-11.3369	-2071.52	10332.3	10537.9	-101.337	0.0000000E+000	0.0000000E+000	0.0000000E+000	101.337	0.0000000E+000	0.0000000E+000	0.0000000E+000	-101.337	0.0000000E+000	0.0000000E+000	0.0000000E+000	11.3369	0.0000000E+000	0.0000000E+000	0.0000000E+000	-11.3369	4.98778	78.6631	-0.000186233
92961.3	0.0844247	-0.00424833	0.0845315	2.88075	1271.48	-0.000107496	-0.857572	-402.995	-1.01789	2	37	0.00524836	0.0620876	0	-0.566211	0.293494	0.170487	6.18223	6.38052e-06	1.88546e-06	4.21122e-06	6.33129e-06	8.08951e-06	4.47156e-06	0.10237	0.0162065	0.346597	1.18552e-05	6.1555e-05	4.62665e-06	6.67872e-06	3.81761e-06	3.87495e-06	11.815	-0.594541	11.8299	-2.88075	-1017.89	20227.9	20253.5	-92.8808	0.0000000E+000	0.0000000E+000	0.0000000E+000	92.8808	0.0000000E+000	0.0000000E+000	0.0000000E+000	-92.8808	0.0000000E+000	0.0000000E+000	0.0000000E+000	2.88075	0.0000000E+000	0.0000000E+000	0.0000000E+000	-2.88075	19.8724	87.1192	-0.000239397
46735.8	0.0877297	0.00305647	0.0877829	-1.99536	1274.92	-0.000101866	-0.841585	1114.17	1.35074	2	37	0.00520577	0.0593028	0	-0.566934	0.426426	0.227609	6.2678	7.02712e-06	1.1022e-05	7.36349e-06	4.86761e-06	6.91892e-06	8.85822e-06	0.124093	0.0177731	0.365767	3.27087e-06	7.25963e-05	3.63174e-06	5.94275e-06	6.34051e-06	4.94557e-06	11.3848	0.396643	11.3917	1.99536	1350.73	38770.1	38793.6	-88.0046	0.0000000E+000	0.0000000E+000	0.0000000E+000	88.0046	0.0000000E+000	0.0000000E+000	0.0000000E+000	-88.0046	0.0000000E+000	0.0000000E+000	0.0000000E+000	-1.99536	0.0000000E+000	0.0000000E+000	0.0000000E+000	1.99536	28.703	88.0046	-0.000249128
23493.2	0.092255	0.0081951	0.0926183	-5.07632	1278.36	-0.000117599	-0.920515	826.654	6.47201	2	37	0.00518403	0.055972	0	-0.56794	0.390525	0.208714	6.19716	9.02408e-06	8.72552e-06	7.62532e-06	4.49786e-06	7.36936e-06	6.04579e-06	0.122127	0.0088046	0.39288	5.4963e-06	6.66716e-05	3.44737e-06	1.11325e-05	4.82219e-06	2.84953e-06	10.7547	0.955346	10.797	5.07632	6472.01	72857.6	73144.5	-84.9237	0.0000000E+000	0.0000000E+000	0.0000000E+000	84.9237	0.0000000E+000	0.0000000E+000	0.0000000E+000	-84.9237	0.0000000E+000	0.0000000E+000	0.0000000E+000	-5.07632	0.0000000E+000	0.0000000E+000	0.0000000E+000	5.07632	11.2573	84.9237	-0.000397834
11811.5	0.0983249	0.0112796	0.0989698	-6.54423	1281.81	-0.00011251	-0.911024	1194.59	15.5168	2	37	0.00516037	0.0521409	0	-0.568676	0.342997	0.153481	6.18406	2.64908e-06	5.95963e-06	9.99882e-06	7.85573e-06	4.53505e-06	7.86648e-06	0.100585	0.0470266	0.42793	5.16513e-06	5.09443e-05	2.66372e-06	6.12577e-06	5.99002e-06	3.47857e-06	10.0383	1.15156	10.1041	6.54423	15516.8	135261	136148	-83.4558	0.0000000E+000	0.0000000E+000	0.0000000E+000	83.4558	0.0000000E+000	0.0000000E+000	0.0000000E+000	-83.4558	0.0000000E+000	0.0000000E+000	0.0000000E+000	-6.54423	0.0000000E+000	0.0000000E+000	0.0000000E+000	6.54423	8.71706	83.4558	-0.00029181
5938.89	0.105267	0.0120031	0.105949	-6.50505	1285.41	-0.000244393	-1.82223	2232.66	28.6557	2	37	0.0051995	0.0490755	0	-0.570579	0.291125	0.165888	6.24219	7.48829e-06	5.60131e-06	3.87912e-06	5.55722e-06	5.15653e-06	5.50702e-06	0.110993	0.016608	0.457962	3.57237e-06	5.24424e-05	7.5793e-06	9.38365e-06	5.70591e-06	2.96309e-06	9.37772	1.06929	9.43849	6.50505	28655.8	251311	252940	-83.4949	0.0000000E+000	0.0000000E+000	0.0000000E+000	83.4949	0.0000000E+000	0.0000000E+000	0.0000000E+000	-83.4949	0.0000000E+000	0.0000000E+000	0.0000000E+000	-6.50505	0.0000000E+000	0.0000000E+000	0.0000000E+000	6.50505	8.77002	83.4949	-0.000629697
2985.95	0.111434	0.0106295	0.11194	-5.44887	1289.41	-0.000246891	-1.87099	5014.45	45.2149	2	37	0.00517005	0.0461859	0	-0.572821	0.33062	0.155969	6.1885	8.26514e-06	8.00701e-06	3.16037e-06	5.4393e-06	6.67069e-06	5.24076e-06	0.0696575	0.030886	0.482916	4.87709e-06	2.86299e-05	5.10139e-06	7.83898e-06	3.90816e-06	7.77683e-06	8.893	0.84829	8.93337	5.44887	45214.9	474008	476159	-84.5511	0.0000000E+000	0.0000000E+000	0.0000000E+000	84.5511	0.0000000E+000	0.0000000E+000	0.0000000E+000	-84.5511	0.0000000E+000	0.0000000E+000	0.0000000E+000	-5.44887	0.0000000E+000	0.0000000E+000	0.0000000E+000	5.44887	10.4834	84.5511	-0.00072678
1501.44	0.116024	0.00802977	0.116302	-3.95899	1293.39	-0.000250395	-1.82158	13201.1	62.9275	2	37	0.00515781	0.0443484	0	-0.575008	0.339344	0.161617	6.30106	5.15409e-06	7.55249e-06	4.60778e-06	1.106e-05	6.16585e-06	2.89238e-06	0.0382907	0.0264943	0.503291	6.95954e-06	9.62576e-06	2.85346e-06	5.95764e-06	7.17696e-06	5.5675e-06	8.57778	0.593648	8.5983	3.95899	62927.5	909258	911433	-86.041	0.0000000E+000	0.0000000E+000	0.0000000E+000	86.041	0.0000000E+000	0.0000000E+000	0.0000000E+000	-86.041	0.0000000E+000	0.0000000E+000	0.0000000E+000	-3.95899	0.0000000E+000	0.0000000E+000	0.0000000E+000	3.95899	14.4493	86.041	-0.00070171
754.759	0.118562	0.00544085	0.118687	-2.62748	1297.38	-0.000248494	-1.9298	38756.6	81.4466	2	37	0.00502525	0.0423403	0	-0.577105	0.28549	0.201715	6.42488	4.22759e-06	6.32148e-06	3.9047e-06	7.32529e-06	6.47326e-06	3.48362e-06	0.0520565	0.0528737	0.518028	4.45757e-06	1.36984e-05	2.70867e-06	1.25452e-05	7.17777e-06	5.90958e-06	8.41667	0.386243	8.42553	2.62748	81446.7	1.77481e+06	1.77668e+06	-87.3725	0.0000000E+000	0.0000000E+000	0.0000000E+000	87.3725	0.0000000E+000	0.0000000E+000	0.0000000E+000	-87.3725	0.0000000E+000	0.0000000E+000	0.0000000E+000	-2.62748	0.0000000E+000	0.0000000E+000	0.0000000E+000	2.62748	21.7911	87.3725	-0.000730167
379.393	0.120088	0.00371011	0.120145	-1.76959	1301.14	-0.000202657	-1.94611	113069	107.821	2	37	0.00537567	0.044743	0	-0.579044	0.230695	0.163805	6.01183	4.1565e-06	3.46066e-06	5.00754e-06	6.15997e-06	4.61137e-06	4.04349e-06	0.0607779	0.0670435	0.499941	7.96251e-06	2.20015e-05	4.10113e-06	9.01656e-06	6.39929e-06	3.44989e-06	8.31928	0.257023	8.32325	1.76959	107821	3.48992e+06	3.49159e+06	-88.2304	0.0000000E+000	0.0000000E+000	0.0000000E+000	88.2304	0.0000000E+000	0.0000000E+000	0.0000000E+000	-88.2304	0.0000000E+000	0.0000000E+000	0.0000000E+000	-1.76959	0.0000000E+000	0.0000000E+000	0.0000000E+000	1.76959	32.3678	88.2304	-0.000610394
190.672	0.120962	0.00244292	0.120987	-1.15697	1304.68	-0.00021427	-1.91386	341685	139.305	2	37	0.0052609	0.0434832	0	-0.580943	0.362107	0.121904	6.1742	3.97181e-06	4.5174e-06	1.06443e-05	3.84041e-06	1.05324e-05	6.32314e-06	0.0828796	0.0670255	0.508627	5.29783e-06	2.76543e-05	3.41429e-06	1.95394e-05	6.53192e-06	7.26759e-06	8.26368	0.166891	8.26536	1.15697	139305	6.89775e+06	6.89916e+06	-88.843	0.0000000E+000	0.0000000E+000	0.0000000E+000	88.843	0.0000000E+000	0.0000000E+000	0.0000000E+000	-88.843	0.0000000E+000	0.0000000E+000	0.0000000E+000	-1.15697	0.0000000E+000	0.0000000E+000	0.0000000E+000	1.15697	49.5155	88.843	-0.000610152
95.8897	0.121638	0.00184201	0.121652	-0.867585	1307.99	-0.00022743	-1.89606	901066	206.587	2	37	0.0053908	0.0443134	0	-0.582683	0.307802	0.137363	5.95262	8.66464e-06	6.56793e-06	5.73319e-06	4.34325e-06	7.12363e-06	4.51315e-06	0.107846	0.0817944	0.502285	9.14173e-06	3.53338e-05	4.2272e-06	2.80146e-05	8.74897e-06	5.68397e-06	8.21924	0.124467	8.22018	0.867585	206587	1.36421e+07	1.36436e+07	-89.1324	0.0000000E+000	0.0000000E+000	0.0000000E+000	89.1324	0.0000000E+000	0.0000000E+000	0.0000000E+000	-89.1324	0.0000000E+000	0.0000000E+000	0.0000000E+000	-0.867585	0.0000000E+000	0.0000000E+000	0.0000000E+000	0.867585	66.0355	89.1324	-0.000551264
48.1956	0.1221	0.00144846	0.122109	-0.67966	1311.32	-0.00021468	-1.87741	2.27985e+06	320.793	2	37	0.00541934	0.0443812	0	-0.58431	0.313876	0.133377	5.96443	6.93541e-06	6.24645e-06	5.24516e-06	5.88482e-06	9.14211e-06	4.14363e-06	0.110976	0.092006	0.487921	8.20888e-06	3.67608e-05	8.3675e-06	2.8653e-05	6.32959e-06	6.02863e-06	8.18883	0.097143	8.18941	0.67966	320791	2.70418e+07	2.70437e+07	-89.3203	0.0000000E+000	0.0000000E+000	0.0000000E+000	89.3203	0.0000000E+000	0.0000000E+000	0.0000000E+000	-89.3203	0.0000000E+000	0.0000000E+000	0.0000000E+000	-0.67966	0.0000000E+000	0.0000000E+000	0.0000000E+000	0.67966	84.2967	89.3203	-0.000610032
24.2323	0.122636	0.00141743	0.122644	-0.662198	1314.66	-0.000206441	-1.83411	4.63364e+06	618.92	2	37	0.00542965	0.0442716	0	-0.586127	0.281055	0.168779	5.93432	5.02425e-06	8.4759e-06	6.23463e-06	3.38952e-06	6.89548e-06	5.0839e-06	0.141325	0.0963151	0.483236	3.64313e-05	3.58729e-05	4.00324e-06	3.37094e-05	7.31149e-06	6.5979e-06	8.15314	0.0942344	8.15368	0.662198	618922	5.35488e+07	5.35523e+07	-89.3378	0.0000000E+000	0.0000000E+000	0.0000000E+000	89.3378	0.0000000E+000	0.0000000E+000	0.0000000E+000	-89.3378	0.0000000E+000	0.0000000E+000	0.0000000E+000	-0.662198	0.0000000E+000	0.0000000E+000	0.0000000E+000	0.662198	86.5197	89.3378	-0.00059501
12.188	0.122987	0.0013372	0.122994	-0.622938	1317.91	-0.000218781	-1.8663	9.76545e+06	1154.3	2	37	0.00542328	0.0440939	0	-0.587569	0.379678	0.249287	5.95414	8.11698e-06	1.06721e-05	5.51894e-06	1.06933e-05	2.84573e-06	7.0001e-06	0.164771	0.109681	0.471348	1.34995e-05	4.28097e-05	4.28883e-05	3.42866e-05	7.7349e-06	4.06102e-06	8.13001	0.0883955	8.13049	0.622938	1.15431e+06	1.06165e+08	1.06171e+08	-89.3771	0.0000000E+000	0.0000000E+000	0.0000000E+000	89.3771	0.0000000E+000	0.0000000E+000	0.0000000E+000	-89.3771	0.0000000E+000	0.0000000E+000	0.0000000E+000	-0.622938	0.0000000E+000	0.0000000E+000	0.0000000E+000	0.622938	91.9731	89.3771	-0.000408615
6.12745	0.12357	0.00147937	0.123579	-0.685906	1321.66	-0.000218346	-1.91677	1.75576e+07	2516.1	2	37	0.00542781	0.0439218	0	-0.590064	0.252723	0.118561	3.30538	3.71689e-06	6.22112e-06	6.22047e-06	5.18838e-06	4.70488e-06	5.61149e-06	0.121845	0.0613637	0.334241	5.70736e-06	3.55662e-05	1.02404e-05	3.27729e-05	7.92305e-06	7.29566e-06	8.09142	0.0968696	8.092	0.685906	2.5161e+06	2.10167e+08	2.10182e+08	-89.3141	0.0000000E+000	0.0000000E+000	0.0000000E+000	89.3141	0.0000000E+000	0.0000000E+000	0.0000000E+000	-89.3141	0.0000000E+000	0.0000000E+000	0.0000000E+000	-0.685906	0.0000000E+000	0.0000000E+000	0.0000000E+000	0.685906	83.529	89.3141	-0.00124346
3.07821	0.124	0.00187439	0.124014	-0.866024	1327.63	-0.000211688	-1.93715	2.75842e+07	6301.47	2	37	0.0054292	0.043779	0	-0.593183	0.19185	0.116603	2.3559	2.81246e-06	7.16689e-06	2.60524e-06	4.81096e-06	2.08974e-06	1.57092e-06	0.108628	0.0363841	0.292605	4.30563e-06	3.77033e-05	3.87657e-06	2.62668e-05	8.4871e-06	5.20061e-06	8.0627	0.121877	8.06362	0.866024	6.3015e+06	4.16871e+08	4.16918e+08	-89.134	0.0000000E+000	0.0000000E+000	0.0000000E+000	89.134	0.0000000E+000	0.0000000E+000	0.0000000E+000	-89.134	0.0000000E+000	0.0000000E+000	0.0000000E+000	-0.866024	0.0000000E+000	0.0000000E+000	0.0000000E+000	0.866024	66.1545	89.134	-0.00213366
1.54902	0.124578	0.00275139	0.124608	-1.26521	1338.31	-0.00021954	-1.92188	3.73431e+07	18206.4	2	37	0.00543137	0.0435876	0	-0.597159	0.142384	0.101225	1.67448	2.82749e-06	5.21054e-06	1.86138e-06	2.71827e-06	3.09841e-06	1.33832e-06	0.120495	0.0777461	0.275215	9.11154e-06	3.69764e-05	1.13346e-05	3.16534e-05	6.88489e-06	6.55837e-06	8.0232	0.177198	8.02516	1.26521	1.82063e+07	8.24349e+08	8.2455e+08	-88.7348	0.0000000E+000	0.0000000E+000	0.0000000E+000	88.7348	0.0000000E+000	0.0000000E+000	0.0000000E+000	-88.7348	0.0000000E+000	0.0000000E+000	0.0000000E+000	-1.26521	0.0000000E+000	0.0000000E+000	0.0000000E+000	1.26521	45.2781	88.7348	-0.00156731
0.778176	0.125698	0.00457641	0.125782	-2.0851	1358.37	-0.000212346	-1.84743	4.46907e+07	59160.7	2	37	0.00542506	0.0431308	0	-0.608383	0.11991	0.0540781	1.16255	2.4436e-06	4.54516e-06	1.3081e-06	8.60852e-07	1.93426e-06	1.72825e-06	0.14658	0.0799203	0.263735	1.87622e-05	3.99266e-05	1.02211e-05	3.69112e-05	1.61226e-05	1.08075e-05	7.94503	0.289262	7.95029	2.0851	5.91607e+07	1.62494e+09	1.62602e+09	-87.9149	0.0000000E+000	0.0000000E+000	0.0000000E+000	87.9149	0.0000000E+000	0.0000000E+000	0.0000000E+000	-87.9149	0.0000000E+000	0.0000000E+000	0.0000000E+000	-2.0851	0.0000000E+000	0.0000000E+000	0.0000000E+000	2.0851	27.4666	87.9149	-0.00539108
0.391114	0.129477	0.00637686	0.129634	-2.81958	1397.21	-0.000216861	-1.82764	6.38131e+07	154413	2	37	0.00542428	0.0418429	0	-0.623161	0.133405	0.0947398	0.817913	1.71068e-06	5.48472e-06	1.36614e-06	3.06643e-06	2.32529e-06	1.12033e-06	0.141582	0.106445	0.269961	1.09775e-05	4.08365e-05	1.3454e-05	2.81649e-05	1.84343e-05	1.46113e-05	7.70467	0.379461	7.71401	2.81958	1.54413e+08	3.13524e+09	3.13904e+09	-87.1804	0.0000000E+000	0.0000000E+000	0.0000000E+000	87.1804	0.0000000E+000	0.0000000E+000	0.0000000E+000	-87.1804	0.0000000E+000	0.0000000E+000	0.0000000E+000	-2.81958	0.0000000E+000	0.0000000E+000	0.0000000E+000	2.81958	20.3042	87.1804	-0.00533632
0.196714	0.133159	0.00505693	0.133255	-2.17486	1473.48	-0.000213054	-1.83397	1.59992e+08	230412	2	37	0.0054231	0.0406972	0	-0.671415	0.110619	0.0753874	0.591182	1.31078e-06	4.98797e-06	1.31316e-06	2.01441e-06	1.0806e-06	1.4825e-06	0.11925	0.0585499	0.238779	1.13744e-05	3.43796e-05	4.83547e-06	3.04026e-05	6.16853e-06	3.87042e-06	7.499	0.284787	7.50441	2.17486	2.30412e+08	6.0672e+09	6.07158e+09	-87.8251	0.0000000E+000	0.0000000E+000	0.0000000E+000	87.8251	0.0000000E+000	0.0000000E+000	0.0000000E+000	-87.8251	0.0000000E+000	0.0000000E+000	0.0000000E+000	-2.17486	0.0000000E+000	0.0000000E+000	0.0000000E+000	2.17486	26.332	87.8251	-0.0138039
0.0988834	0.134844	0.00305376	0.134878	-1.29734	1624.26	-0.000223937	-1.94465	5.27062e+08	270177	2	37	0.00542127	0.0401938	0	-0.73103	0.114125	0.0850439	0.431219	2.55577e-06	4.32785e-06	1.4552e-06	2.34878e-06	1.23537e-06	1.35195e-06	0.118842	0.0876719	0.217846	1.40699e-05	2.88506e-05	8.59384e-06	3.1882e-05	1.03895e-05	5.30474e-06	7.4122	0.167862	7.4141	1.29734	2.70178e+08	1.19301e+10	1.19332e+10	-88.7027	0.0000000E+000	0.0000000E+000	0.0000000E+000	88.7027	0.0000000E+000	0.0000000E+000	0.0000000E+000	-88.7027	0.0000000E+000	0.0000000E+000	0.0000000E+000	-1.29734	0.0000000E+000	0.0000000E+000	0.0000000E+000	1.29734	44.1565	88.7027	-0.0331176
0.0497507	0.135194	0.00166252	0.135204	-0.704548	1923.16	-0.000197102	-1.75081	1.92421e+09	290943	2	37	0.00542144	0.0400981	0	-0.928888	0.118002	0.100967	0.32639	1.62836e-06	4.81961e-06	1.21902e-06	3.23227e-06	9.56469e-07	8.48924e-07	0.127985	0.182475	0.214578	1.60992e-05	3.10818e-05	5.46911e-06	3.53354e-05	5.66987e-06	6.21174e-06	7.39565	0.0909465	7.39621	0.704548	2.90941e+08	2.36591e+10	2.36609e+10	-89.2955	0.0000000E+000	0.0000000E+000	0.0000000E+000	89.2955	0.0000000E+000	0.0000000E+000	0.0000000E+000	-89.2955	0.0000000E+000	0.0000000E+000	0.0000000E+000	-0.704548	0.0000000E+000	0.0000000E+000	0.0000000E+000	0.704548	81.3187	89.2955	-0.0768019
0.0250094	0.135501	0.000866075	0.135503	-0.366211	2516.89	-0.000213362	-1.81119	7.34786e+09	300173	2	37	0.00542369	0.0400262	0	-1.13883	0.122609	0.184382	0.264488	2.07233e-06	4.72549e-06	1.55928e-06	2.96257e-06	1.38381e-06	1.2513e-06	0.125051	0.190166	0.201534	1.28945e-05	3.60789e-05	7.31416e-06	2.84752e-05	9.30497e-06	4.74087e-06	7.37974	0.0471689	7.37989	0.366211	3.00173e+08	4.69632e+10	4.69641e+10	-89.6338	0.0000000E+000	0.0000000E+000	0.0000000E+000	89.6338	0.0000000E+000	0.0000000E+000	0.0000000E+000	-89.6338	0.0000000E+000	0.0000000E+000	0.0000000E+000	-0.366211	0.0000000E+000	0.0000000E+000	0.0000000E+000	0.366211	156.454	89.6338	-0.0733849
581679	0.0235557	-0.0726675	0.07639	72.0396	2520.6	-0.00011978	-0.963397	-3.76527	-3.40725	3	37	0.000569961	0.0074612	0	-1.14022	-1	-1	-1	0	0	0	0	0	0	-1	-1	-1	0	0	0	0	0	0	4.03666	-12.4528	13.0907	-72.0396	-3407.25	1104.48	3581.79	-162.04	0.0000000E+000	0.0000000E+000	0.0000000E+000	162.04	0.0000000E+000	0.0000000E+000	0.0000000E+000	-162.04	0.0000000E+000	0.0000000E+000	0.0000000E+000	72.0396	0.0000000E+000	0.0000000E+000	0.0000000E+000	-72.0396	0.324157	17.9604	-0.000312356
292440	0.0726166	-0.028105	0.0778657	21.158	2524.04	-0.000127404	-0.948321	-19.3642	-2.52275	3	37	0.00174847	0.022455	0	-1.1411	-1	-1	-1	0	0	0	0	0	0	-1	-1	-1	0	0	0	0	0	0	11.9769	-4.63544	12.8426	-21.158	-2522.75	6518.2	6989.36	-111.158	0.0000000E+000	0.0000000E+000	0.0000000E+000	111.158	0.0000000E+000	0.0000000E+000	0.0000000E+000	-111.158	0.0000000E+000	0.0000000E+000	0.0000000E+000	21.158	0.0000000E+000	0.0000000E+000	0.0000000E+000	-21.158	2.58376	68.8419	-0.000297493
147018	0.0816365	-0.0115332	0.0824471	8.04126	2527.35	-0.000111615	-0.854222	-93.8642	-1.83675	3	37	0.00528012	0.0640425	0	-1.14185	-1	-1	-1	0	0	0	0	0	0	-1	-1	-1	0	0	0	0	0	0	12.0097	-1.69668	12.129	-8.04126	-1836.75	13001.2	13130.3	-98.0413	0.0000000E+000	0.0000000E+000	0.0000000E+000	98.0413	0.0000000E+000	0.0000000E+000	0.0000000E+000	-98.0413	0.0000000E+000	0.0000000E+000	0.0000000E+000	8.04126	0.0000000E+000	0.0000000E+000	0.0000000E+000	-8.04126	7.07838	81.9587	-0.000241807
73912.6	0.0850925	-0.00157473	0.085107	1.0602	2530.79	-0.000119333	-0.863044	-1367.4	-0.468143	3	37	0.00522413	0.0613831	0	-1.1426	0.288226	0.220389	6.09255	4.71349e-06	7.44256e-06	4.60614e-06	3.2618e-06	6.25971e-06	6.16933e-06	0.104953	0.0227558	0.356229	9.90031e-06	6.30052e-05	4.32954e-06	5.39165e-06	3.45736e-06	2.78532e-06	11.7479	-0.217409	11.7499	-1.0602	-468.143	25296.6	25300.9	-91.0602	0.0000000E+000	0.0000000E+000	0.0000000E+000	91.0602	0.0000000E+000	0.0000000E+000	0.0000000E+000	-91.0602	0.0000000E+000	0.0000000E+000	0.0000000E+000	1.0602	0.0000000E+000	0.0000000E+000	0.0000000E+000	-1.0602	54.0361	88.9398	-0.000303958
37160.4	0.0886111	0.00492228	0.0887477	-3.17947	2534.24	-0.000113368	-0.844935	870.108	2.67665	3	37	0.00519554	0.0585428	0	-1.14339	0.347757	0.179109	6.08315	6.06079e-06	8.57626e-06	9.01675e-06	6.66779e-06	1.67813e-06	7.03986e-06	0.126031	0.0429625	0.37464	6.61604e-06	7.20962e-05	3.33603e-06	1.17018e-05	2.13598e-06	5.12944e-06	11.2506	0.62496	11.2679	3.17947	2676.65	48185.2	48259.5	-86.8205	0.0000000E+000	0.0000000E+000	0.0000000E+000	86.8205	0.0000000E+000	0.0000000E+000	0.0000000E+000	-86.8205	0.0000000E+000	0.0000000E+000	0.0000000E+000	-3.17947	0.0000000E+000	0.0000000E+000	0.0000000E+000	3.17947	18.002	86.8205	-0.000269363
18677.6	0.0936105	0.00943215	0.0940845	-5.75367	2537.68	-0.000126677	-0.886568	903.416	9.07972	3	37	0.00517865	0.0550426	0	-1.14404	0.315112	0.226624	6.25679	4.85359e-06	8.89064e-06	4.92926e-06	6.96191e-06	3.04976e-06	7.75965e-06	0.11894	0.0275237	0.399091	4.01042e-06	6.41802e-05	2.80985e-06	9.06952e-06	2.6269e-06	4.91025e-06	10.5752	1.06555	10.6287	5.75367	9079.72	90112.8	90569.1	-84.2463	0.0000000E+000	0.0000000E+000	0.0000000E+000	84.2463	0.0000000E+000	0.0000000E+000	0.0000000E+000	-84.2463	0.0000000E+000	0.0000000E+000	0.0000000E+000	-5.75367	0.0000000E+000	0.0000000E+000	0.0000000E+000	5.75367	9.92463	84.2463	-0.000237781
9395.12	0.100128	0.0116816	0.100807	-6.65443	2541.13	-0.000244151	-1.81561	1450.16	19.4733	3	37	0.00524596	0.0520397	0	-1.14522	0.322468	0.230201	6.18691	9.93609e-06	6.13336e-06	5.94479e-06	4.65633e-06	6.73357e-06	4.93494e-06	0.114149	0.0582279	0.425823	2.95918e-06	5.76989e-05	7.11915e-06	8.30766e-06	6.17122e-06	2.51387e-06	9.85314	1.14953	9.91997	6.65443	19473.3	166914	168046	-83.3456	0.0000000E+000	0.0000000E+000	0.0000000E+000	83.3456	0.0000000E+000	0.0000000E+000	0.0000000E+000	-83.3456	0.0000000E+000	0.0000000E+000	0.0000000E+000	-6.65443	0.0000000E+000	0.0000000E+000	0.0000000E+000	6.65443	8.57142	83.3456	-0.000625436
4721.51	0.106924	0.011579	0.107549	-6.18062	2544.92	-0.000245922	-1.76074	2911.17	33.7444	3	37	0.00518349	0.0481967	0	-1.14716	0.305564	0.170618	6.21741	4.72268e-06	4.86318e-06	5.25372e-06	5.1131e-06	8.57144e-06	6.9697e-06	0.0922925	0.100604	0.47064	6.89287e-06	4.19951e-05	4.53637e-06	1.04942e-05	3.1909e-06	3.09134e-06	9.24407	1.00106	9.29811	6.18062	33744.3	311604	313426	-83.8194	0.0000000E+000	0.0000000E+000	0.0000000E+000	83.8194	0.0000000E+000	0.0000000E+000	0.0000000E+000	-83.8194	0.0000000E+000	0.0000000E+000	0.0000000E+000	-6.18062	0.0000000E+000	0.0000000E+000	0.0000000E+000	6.18062	9.23424	83.8194	-0.000775869
2374.24	0.112601	0.00980855	0.113027	-4.97843	2548.9	-0.000235464	-1.7975	6834.25	51.4679	3	37	0.00515005	0.0455648	0	-1.1492	0.361351	0.224715	6.28855	1.00139e-05	5.75017e-06	6.23241e-06	8.77005e-06	5.80384e-06	5.2005e-06	0.055125	0.032218	0.483715	5.69181e-06	2.19821e-05	3.1438e-06	4.01081e-06	6.60733e-06	5.3731e-06	8.81407	0.767787	8.84745	4.97843	51467.9	590843	593080	-85.0216	0.0000000E+000	0.0000000E+000	0.0000000E+000	85.0216	0.0000000E+000	0.0000000E+000	0.0000000E+000	-85.0216	0.0000000E+000	0.0000000E+000	0.0000000E+000	-4.97843	0.0000000E+000	0.0000000E+000	0.0000000E+000	4.97843	11.4798	85.0216	-0.000760432
1193.85	0.116558	0.00714312	0.116777	-3.50692	2552.89	-0.000232687	-1.70606	18663	69.8306	3	37	0.00511297	0.0437842	0	-1.15118	0.316915	0.147173	6.37343	4.74379e-06	3.95939e-06	5.59628e-06	8.59048e-06	7.68762e-06	5.64691e-06	0.0343324	0.0913345	0.512019	1.69163e-06	6.60357e-06	3.02287e-06	1.02274e-05	6.77729e-06	3.79127e-06	8.54732	0.523812	8.56335	3.50692	69830.6	1.13946e+06	1.1416e+06	-86.4931	0.0000000E+000	0.0000000E+000	0.0000000E+000	86.4931	0.0000000E+000	0.0000000E+000	0.0000000E+000	-86.4931	0.0000000E+000	0.0000000E+000	0.0000000E+000	-3.50692	0.0000000E+000	0.0000000E+000	0.0000000E+000	3.50692	16.3175	86.4931	-0.000657475
600.192	0.118767	0.00479468	0.118864	-2.31179	2556.87	-0.000205527	-1.7631	55305.8	89.9885	3	37	0.00501108	0.0421581	0	-1.15311	0.365767	0.207871	6.41874	1.07598e-05	8.25101e-06	6.74668e-06	6.8073e-06	4.30763e-06	3.75655e-06	0.0523631	0.0539287	0.530738	5.79264e-06	1.57338e-05	3.33663e-06	1.11797e-05	3.66961e-06	5.54227e-06	8.40611	0.339357	8.41296	2.31179	89988.4	2.22908e+06	2.23089e+06	-87.6882	0.0000000E+000	0.0000000E+000	0.0000000E+000	87.6882	0.0000000E+000	0.0000000E+000	0.0000000E+000	-87.6882	0.0000000E+000	0.0000000E+000	0.0000000E+000	-2.31179	0.0000000E+000	0.0000000E+000	0.0000000E+000	2.31179	24.7707	87.6882	-0.000665787
301.641	0.120107	0.00310711	0.120147	-1.48189	2560.41	-0.000226554	-1.7584	169814	113.569	3	37	0.00531652	0.0442501	0	-1.15475	0.366808	0.205731	6.10866	4.25662e-06	8.02713e-06	5.93502e-06	7.40357e-06	8.15002e-06	8.12324e-06	0.0706453	0.0743987	0.499771	4.03911e-06	2.58424e-05	3.61441e-06	1.27499e-05	5.70071e-06	6.97355e-06	8.32036	0.215244	8.32314	1.48189	113569	4.39007e+06	4.39154e+06	-88.5181	0.0000000E+000	0.0000000E+000	0.0000000E+000	88.5181	0.0000000E+000	0.0000000E+000	0.0000000E+000	-88.5181	0.0000000E+000	0.0000000E+000	0.0000000E+000	-1.48189	0.0000000E+000	0.0000000E+000	0.0000000E+000	1.48189	38.6554	88.5181	-0.000490448
151.699	0.120693	0.00214699	0.120712	-1.01911	2563.95	-0.000205415	-1.77855	488661	154.583	3	37	0.00516723	0.0428061	0	-1.15651	0.300285	0.181342	6.26899	4.62306e-06	5.62593e-06	6.12065e-06	7.46394e-06	5.50097e-06	5.58135e-06	0.0999528	0.0830848	0.503959	5.09262e-06	3.36258e-05	4.63784e-06	2.32785e-05	5.96932e-06	7.49306e-06	8.28284	0.147342	8.28415	1.01911	154583	8.68993e+06	8.69131e+06	-88.9809	0.0000000E+000	0.0000000E+000	0.0000000E+000	88.9809	0.0000000E+000	0.0000000E+000	0.0000000E+000	-88.9809	0.0000000E+000	0.0000000E+000	0.0000000E+000	-1.01911	0.0000000E+000	0.0000000E+000	0.0000000E+000	1.01911	56.2152	88.9809	-0.000521749
76.244	0.121226	0.00167881	0.121238	-0.793412	2567.25	-0.000206963	-1.76416	1.24341e+06	238.418	3	37	0.00524616	0.0432716	0	-1.15819	0.350672	0.193761	6.16868	9.73495e-06	4.84886e-06	8.12532e-06	6.26655e-06	3.8599e-06	6.84209e-06	0.138617	0.082991	0.503212	3.4911e-05	3.63912e-05	4.71679e-06	3.0796e-05	6.72861e-06	3.59371e-06	8.24746	0.114215	8.24825	0.793412	238417	1.72161e+07	1.72177e+07	-89.2066	0.0000000E+000	0.0000000E+000	0.0000000E+000	89.2066	0.0000000E+000	0.0000000E+000	0.0000000E+000	-89.2066	0.0000000E+000	0.0000000E+000	0.0000000E+000	-0.793412	0.0000000E+000	0.0000000E+000	0.0000000E+000	0.793412	72.2098	89.2066	-0.000566401
38.3436	0.121719	0.00142108	0.121727	-0.668905	2570.61	-0.00021537	-1.80094	2.92084e+06	398.081	3	37	0.00526426	0.0432464	0	-1.15986	0.317395	0.148304	6.17224	6.52805e-06	1.03876e-05	1.55889e-06	4.29024e-06	6.21211e-06	5.51731e-06	0.106986	0.0821821	0.510985	3.30362e-06	3.15812e-05	1.60922e-05	2.71103e-05	7.2941e-06	6.49852e-06	8.21454	0.0959057	8.2151	0.668905	398083	3.40965e+07	3.40989e+07	-89.3311	0.0000000E+000	0.0000000E+000	0.0000000E+000	89.3311	0.0000000E+000	0.0000000E+000	0.0000000E+000	-89.3311	0.0000000E+000	0.0000000E+000	0.0000000E+000	-0.668905	0.0000000E+000	0.0000000E+000	0.0000000E+000	0.668905	85.6522	89.3311	-0.000538873
19.2663	0.122259	0.00115114	0.122265	-0.539454	2573.96	-0.000204483	-1.66781	7.17621e+06	636.131	3	37	0.00527182	0.0431181	0	-1.1612	0.35202	0.137137	6.26425	3.8955e-06	1.14344e-05	1.79099e-06	7.62804e-06	7.48086e-06	7.04163e-06	0.108589	0.118331	0.498964	8.18356e-06	3.26098e-05	3.01544e-06	3.06248e-05	6.32231e-06	6.92022e-06	8.17862	0.0770061	8.17898	0.539454	636128	6.75619e+07	6.75649e+07	-89.4605	0.0000000E+000	0.0000000E+000	0.0000000E+000	89.4605	0.0000000E+000	0.0000000E+000	0.0000000E+000	-89.4605	0.0000000E+000	0.0000000E+000	0.0000000E+000	-0.539454	0.0000000E+000	0.0000000E+000	0.0000000E+000	0.539454	106.207	89.4605	-0.00040463
9.68695	0.122862	0.0014707	0.122871	-0.685819	2577.18	-0.000188452	-1.67978	1.11714e+07	1600.52	3	37	0.00527583	0.0429381	0	-1.16262	0.340617	0.195105	6.20176	8.04371e-06	6.90808e-06	6.98456e-06	5.9121e-06	9.09401e-06	4.39763e-06	0.143986	0.080674	0.492621	2.57275e-05	4.06873e-05	7.4001e-06	3.10579e-05	1.19747e-05	8.34267e-06	8.13807	0.0974156	8.13865	0.685819	1.60053e+06	1.33707e+08	1.33717e+08	-89.3142	0.0000000E+000	0.0000000E+000	0.0000000E+000	89.3142	0.0000000E+000	0.0000000E+000	0.0000000E+000	-89.3142	0.0000000E+000	0.0000000E+000	0.0000000E+000	-0.685819	0.0000000E+000	0.0000000E+000	0.0000000E+000	0.685819	83.5396	89.3142	-0.000120879
4.87216	0.1231	0.00151601	0.123109	-0.705577	2581.47	-0.000202246	-1.64335	2.15475e+07	3267.52	3	37	0.0052701	0.0428083	0	-1.16435	0.180408	0.104533	3.78567	1.76886e-06	3.7447e-06	4.43913e-06	3.36346e-06	3.50648e-06	4.24017e-06	0.10633	0.0461225	0.368379	1.6805e-05	2.75258e-05	7.1837e-06	2.92268e-05	7.70881e-06	5.70845e-06	8.12225	0.100028	8.12286	0.705577	3.26751e+06	2.65323e+08	2.65343e+08	-89.2944	0.0000000E+000	0.0000000E+000	0.0000000E+000	89.2944	0.0000000E+000	0.0000000E+000	0.0000000E+000	-89.2944	0.0000000E+000	0.0000000E+000	0.0000000E+000	-0.705577	0.0000000E+000	0.0000000E+000	0.0000000E+000	0.705577	81.2001	89.2944	-0.000759915
2.44752	0.123668	0.00208285	0.123685	-0.964901	2588.67	-0.000195142	-1.6771	3.12202e+07	8853.5	3	37	0.00527491	0.0426479	0	-1.16751	0.149877	0.0738348	2.22217	1.62097e-06	4.94381e-06	1.99271e-06	4.25323e-06	1.52625e-06	2.24875e-06	0.147978	0.0450324	0.279533	4.86039e-06	3.92102e-05	5.12419e-06	2.40653e-05	1.16431e-05	4.03838e-05	8.08389	0.136151	8.08504	0.964901	8.85346e+06	5.25671e+08	5.25745e+08	-89.0351	0.0000000E+000	0.0000000E+000	0.0000000E+000	89.0351	0.0000000E+000	0.0000000E+000	0.0000000E+000	-89.0351	0.0000000E+000	0.0000000E+000	0.0000000E+000	-0.964901	0.0000000E+000	0.0000000E+000	0.0000000E+000	0.964901	59.3744	89.0351	-0.00131961
1.23128	0.124261	0.00313691	0.124301	-1.4461	2601.79	-0.000219634	-1.80578	4.12059e+07	26243.2	3	37	0.00527397	0.042429	0	-1.17317	0.117966	0.0446225	1.56191	2.57743e-06	4.36897e-06	1.15881e-06	1.7049e-06	1.96986e-06	8.90644e-07	0.112518	0.0652932	0.264336	8.78216e-06	3.5757e-05	8.74259e-06	2.6987e-05	7.80958e-06	6.42201e-06	8.04243	0.203027	8.045	1.4461	2.62432e+07	1.03956e+09	1.03989e+09	-88.5539	0.0000000E+000	0.0000000E+000	0.0000000E+000	88.5539	0.0000000E+000	0.0000000E+000	0.0000000E+000	-88.5539	0.0000000E+000	0.0000000E+000	0.0000000E+000	-1.4461	0.0000000E+000	0.0000000E+000	0.0000000E+000	1.4461	39.6126	88.5539	0.00031533
0.618591	0.125896	0.00539684	0.126011	-2.45463	2626.72	-0.000206431	-1.71971	4.76735e+07	87445.4	3	37	0.00527262	0.0418424	0	-1.18478	0.123529	0.105759	1.07764	2.71123e-06	4.44187e-06	1.78944e-06	2.30019e-06	1.34344e-06	1.53496e-06	0.117931	0.120816	0.268826	1.04889e-05	3.64315e-05	9.2461e-06	2.45037e-05	8.63719e-06	7.58716e-06	7.92851	0.339876	7.9358	2.45463	8.74454e+07	2.0399e+09	2.04177e+09	-87.5454	0.0000000E+000	0.0000000E+000	0.0000000E+000	87.5454	0.0000000E+000	0.0000000E+000	0.0000000E+000	-87.5454	0.0000000E+000	0.0000000E+000	0.0000000E+000	-2.45463	0.0000000E+000	0.0000000E+000	0.0000000E+000	2.45463	23.3277	87.5454	-0.0036702
0.311199	0.130229	0.00618583	0.130376	-2.71948	2675.31	-0.000199789	-1.75542	8.2677e+07	186117	3	37	0.00527051	0.0404255	0	-1.20709	0.134362	0.108844	0.76755	1.12858e-06	5.37532e-06	1.31729e-06	3.19224e-06	1.74244e-06	1.30806e-06	0.145705	0.0884376	0.274468	1.49723e-05	4.0555e-05	6.95771e-06	3.46364e-05	7.09819e-06	1.43877e-05	7.6615	0.363918	7.67014	2.71948	1.86117e+08	3.91828e+09	3.9227e+09	-87.2805	0.0000000E+000	0.0000000E+000	0.0000000E+000	87.2805	0.0000000E+000	0.0000000E+000	0.0000000E+000	-87.2805	0.0000000E+000	0.0000000E+000	0.0000000E+000	-2.71948	0.0000000E+000	0.0000000E+000	0.0000000E+000	2.71948	21.0528	87.2805	-0.00323071
0.15652	0.13353	0.00429024	0.133599	-1.84024	2770.97	-0.000207393	-1.80676	2.37012e+08	244413	3	37	0.00526809	0.039432	0	-1.26688	0.123551	0.115442	0.547818	1.75466e-06	5.29417e-06	1.31255e-06	2.31676e-06	1.179e-06	5.89601e-07	0.117107	0.0751191	0.250172	8.18968e-06	3.07207e-05	4.64479e-06	3.12766e-05	7.03885e-06	3.65798e-06	7.4812	0.240366	7.48506	1.84024	2.44413e+08	7.60717e+09	7.61109e+09	-88.1598	0.0000000E+000	0.0000000E+000	0.0000000E+000	88.1598	0.0000000E+000	0.0000000E+000	0.0000000E+000	-88.1598	0.0000000E+000	0.0000000E+000	0.0000000E+000	-1.84024	0.0000000E+000	0.0000000E+000	0.0000000E+000	1.84024	31.1242	88.1598	-0.0294905
0.0786856	0.134674	0.00244831	0.134696	-1.0415	2960.35	-0.000184693	-1.61028	8.26148e+08	272949	3	37	0.00526868	0.0391153	0	-1.33841	0.109737	0.0671369	0.402181	2.61102e-06	4.21929e-06	5.95354e-07	2.35127e-06	8.33935e-07	5.78084e-07	0.121397	0.127473	0.222922	1.68111e-05	2.57779e-05	5.17478e-06	3.31434e-05	5.82019e-06	9.66074e-06	7.4229	0.134945	7.42412	1.0415	2.72949e+08	1.50141e+10	1.50165e+10	-88.9585	0.0000000E+000	0.0000000E+000	0.0000000E+000	88.9585	0.0000000E+000	0.0000000E+000	0.0000000E+000	-88.9585	0.0000000E+000	0.0000000E+000	0.0000000E+000	-1.0415	0.0000000E+000	0.0000000E+000	0.0000000E+000	1.0415	55.0068	88.9585	-0.0197321
0.0395203	0.135049	0.00143942	0.135056	-0.610666	3336.15	-0.000208818	-1.86426	2.79777e+09	317803	3	37	0.00526624	0.0389929	0	-1.51818	0.100321	0.0965507	0.304217	1.07681e-06	4.09434e-06	1.20314e-06	2.63901e-06	3.16818e-07	3.92808e-07	0.110854	0.113207	0.206203	1.67597e-05	2.37414e-05	6.88128e-06	2.92774e-05	4.75374e-06	3.4464e-06	7.40389	0.0789146	7.40431	0.610666	3.17802e+08	2.98167e+10	2.98184e+10	-89.3893	0.0000000E+000	0.0000000E+000	0.0000000E+000	89.3893	0.0000000E+000	0.0000000E+000	0.0000000E+000	-89.3893	0.0000000E+000	0.0000000E+000	0.0000000E+000	-0.610666	0.0000000E+000	0.0000000E+000	0.0000000E+000	0.610666	93.8215	89.3893	-0.0952168
0.0250094	0.135022	0.000879124	0.135025	-0.373046	3775.06	-0.000200888	-1.70566	7.23879e+09	306859	3	37	0.00526834	0.0390175	0	-1.80829	0.124678	0.115099	0.265683	2.80202e-06	4.32462e-06	1.50979e-06	2.94983e-06	1.03707e-06	1.14612e-06	0.128128	0.131922	0.195914	1.79646e-05	2.50096e-05	9.04036e-06	3.30145e-05	9.35366e-06	7.55975e-06	7.40589	0.0482195	7.40605	0.373046	3.0686e+08	4.71296e+10	4.71306e+10	-89.627	0.0000000E+000	0.0000000E+000	0.0000000E+000	89.627	0.0000000E+000	0.0000000E+000	0.0000000E+000	-89.627	0.0000000E+000	0.0000000E+000	0.0000000E+000	-0.373046	0.0000000E+000	0.0000000E+000	0.0000000E+000	0.373046	153.587	89.627	-0.158433