File: Python/Experiments/IRFB/240415-Felt-0p5M_FeCl2FeCl23-1M_HCl/Data/240417-EIS-0p5M_FeCl2FeCl3-1M_HCl-10mLmin_Dampened-10mHz_10ppd_C15.mpt
EC-Lab ASCII FILE
Nb header lines : 66

Potentio Electrochemical Impedance Spectroscopy

Run on channel : 15 (SN 19485)
User :
Electrode connection : standard
Potential control : Ewe
Ewe ctrl range : min = -1.00 V, max = 1.00 V
Ewe,I filtering : <None>
Safety Limits :
	Do not start on E overload
Channel : Floating
Acquisition started on : 04/17/2024 10:15:20.290
Loaded Setting File :  NONE
Saved on :
	File : 240417-EIS-0p5M_FeCl2FeCl3-1M_HCl-10mLmin_Dampened-10mHz_10ppd_C15.mpr
	Directory : C:\Data\mathias\IRFB\
	Host : 192.168.0.1
Device : VMP-300 (SN 0826)
Address : USB
EC-Lab for windows v11.52 (software)
Internet server v11.52 (firmware)
Command interpretor v11.52 (firmware)
Electrode material :
Initial state :
Electrolyte :
Comments :
Cable : special
Electrode surface area : 0.001 cm²
Characteristic mass : 0.001 g
Equivalent Weight : 0.000 g/eq.
Density : 0.000 g/cm3
Volume (V) : 0.001 cm³
Record EIS quality indicators
Cycle Definition : Charge/Discharge alternance
Mode                Single sine
E (V)               0.0000
vs.                 Eoc
tE (h:m:s)          0:00:0.0000
record              0
dI                  0.000
unit dI             mA
dt (s)              0.000
fi                  920.000
unit fi             kHz
ff                  10.000
unit ff             mHz
Nd                  10
Points              per decade
spacing             Logarithmic
Va (mV)             5.0
pw                  0.10
Na                  3
corr                0
E range min (V)     -1.000
E range max (V)     1.000
I Range             Auto
Bandwidth           8
nc cycles           0
goto Ns'            0
nr cycles           0
inc. cycle          1

freq/Hz	Re(Z)/Ohm	-Im(Z)/Ohm	|Z|/Ohm	Phase(Z)/deg	time/s	<Ewe>/V	<I>/mA	Cs/µF	Cp/µF	cycle number	I Range	|Ewe|/V	|I|/A	Ns	(Q-Qo)/mA.h	THD Ewe/%	NSD Ewe/%	NSR Ewe/%	|Ewe h2|/V	|Ewe h3|/V	|Ewe h4|/V	|Ewe h5|/V	|Ewe h6|/V	|Ewe h7|/V	THD I/%	NSD I/%	NSR I/%	|I h2|/A	|I h3|/A	|I h4|/A	|I h5|/A	|I h6|/A	|I h7|/A	Re(Y)/Ohm-1	Im(Y)/Ohm-1	|Y|/Ohm-1	Phase(Y)/deg	Re(C)/nF	Im(C)/nF	|C|/nF	Phase(C)/deg	Re(M)	Im(M)	|M|	Phase(M)/deg	Re(Permittivity)	Im(Permittivity)	|Permittivity|	Phase(Permittivity)/deg	Re(Resistivity)/Ohm.cm	Im(Resistivity)/Ohm.cm	|Resistivity|/Ohm.cm	Phase(Resistivity)/deg	Re(Conductivity)/mS/cm	Im(Conductivity)/mS/cm	|Conductivity|/mS/cm	Phase(Conductivity)/deg	Tan(Delta)	Loss Angle(Delta)/deg	dq/mA.h
920001	-0.0949472	-0.223118	0.24248	113.052	1.97648	-0.000133984	-1.04374	-0.775348	-0.656469	1	37	0.000713896	0.00294414	0	-0.000563603	-1	-1	-1	0	0	0	0	0	0	-1	-1	-1	0	0	0	0	0	0	-1.61484	-3.79474	4.12405	-113.052	-656.469	-279.358	713.437	156.948	0.0000000E+000	0.0000000E+000	0.0000000E+000	-156.948	0.0000000E+000	0.0000000E+000	0.0000000E+000	156.948	0.0000000E+000	0.0000000E+000	0.0000000E+000	113.052	0.0000000E+000	0.0000000E+000	0.0000000E+000	-113.052	0.425546	23.052	-0.000563603
581688	0.0227634	-0.0738957	0.0773224	72.8787	4.2725	-0.000148375	-1.13628	-3.70263	-3.38173	1	37	0.000576863	0.0074605	0	-0.00124772	-1	-1	-1	0	0	0	0	0	0	-1	-1	-1	0	0	0	0	0	0	3.80739	-12.3597	12.9329	-72.8787	-3381.73	1041.73	3538.55	-162.879	0.0000000E+000	0.0000000E+000	0.0000000E+000	162.879	0.0000000E+000	0.0000000E+000	0.0000000E+000	-162.879	0.0000000E+000	0.0000000E+000	0.0000000E+000	72.8787	0.0000000E+000	0.0000000E+000	0.0000000E+000	-72.8787	0.308048	17.1213	-0.000355784
367791	0.064031	-0.0379835	0.0744494	30.6766	6.56749	-0.000144982	-1.01653	-11.3926	-2.96546	1	37	0.00114705	0.0154071	0	-0.0019197	-1	-1	-1	0	0	0	0	0	0	-1	-1	-1	0	0	0	0	0	0	11.5523	-6.85287	13.4319	-30.6766	-2965.46	4999.05	5812.44	-120.677	0.0000000E+000	0.0000000E+000	0.0000000E+000	120.677	0.0000000E+000	0.0000000E+000	0.0000000E+000	-120.677	0.0000000E+000	0.0000000E+000	0.0000000E+000	30.6766	0.0000000E+000	0.0000000E+000	0.0000000E+000	-30.6766	1.68576	59.3234	-0.000336797
232547	0.0768251	-0.0222433	0.0799804	16.1474	8.86149	-0.000144721	-1.03624	-30.7687	-2.37981	1	37	0.0025925	0.0324142	0	-0.00263367	-1	-1	-1	0	0	0	0	0	0	-1	-1	-1	0	0	0	0	0	0	12.0098	-3.47723	12.5031	-16.1474	-2379.81	8219.5	8557.08	-106.147	0.0000000E+000	0.0000000E+000	0.0000000E+000	106.147	0.0000000E+000	0.0000000E+000	0.0000000E+000	-106.147	0.0000000E+000	0.0000000E+000	0.0000000E+000	16.1474	0.0000000E+000	0.0000000E+000	0.0000000E+000	-16.1474	3.45385	73.8526	-0.000356008
147027	0.0810715	-0.0119899	0.0819533	8.41268	11.0215	-0.00014008	-1.05038	-90.2831	-1.93244	1	37	0.00525194	0.0640845	0	-0.0033376	-1	-1	-1	0	0	0	0	0	0	-1	-1	-1	0	0	0	0	0	0	12.0708	-1.78519	12.2021	-8.41268	-1932.44	13066.5	13208.6	-98.4127	0.0000000E+000	0.0000000E+000	0.0000000E+000	98.4127	0.0000000E+000	0.0000000E+000	0.0000000E+000	-98.4127	0.0000000E+000	0.0000000E+000	0.0000000E+000	8.41268	0.0000000E+000	0.0000000E+000	0.0000000E+000	-8.41268	6.76163	81.5873	-0.000301787
92961.3	0.0833821	-0.00482388	0.0835215	3.31103	13.3165	-0.000143025	-1.05282	-354.912	-1.18391	1	37	0.00524271	0.0627708	0	-0.00382143	0.32509	0.149296	6.30598	7.82436e-06	6.84645e-06	7.57148e-06	6.62006e-06	3.24218e-06	7.05087e-06	0.0921588	0.0205947	0.343352	9.69195e-06	5.63238e-05	4.05817e-06	1.87673e-06	3.93285e-06	5.24702e-06	11.953	-0.691513	11.973	-3.31103	-1183.91	20464.2	20498.4	-93.311	0.0000000E+000	0.0000000E+000	0.0000000E+000	93.311	0.0000000E+000	0.0000000E+000	0.0000000E+000	-93.311	0.0000000E+000	0.0000000E+000	0.0000000E+000	3.31103	0.0000000E+000	0.0000000E+000	0.0000000E+000	-3.31103	17.2853	86.689	-0.000284849
58779.3	0.0852271	0.000283284	0.0852276	-0.190443	15.6125	-0.000146679	-1.06641	9558.15	0.105598	1	37	0.00521809	0.0612254	0	-0.00457674	0.332288	0.133703	6.14073	5.43892e-06	9.03415e-06	6.66707e-06	6.99806e-06	4.06336e-06	5.9218e-06	0.112198	0.0191057	0.353081	7.70541e-06	6.76934e-05	3.21922e-06	1.66128e-06	4.92674e-06	5.42069e-06	11.7332	0.0389997	11.7333	0.190443	105.599	31769.7	31769.9	-89.8096	0.0000000E+000	0.0000000E+000	0.0000000E+000	89.8096	0.0000000E+000	0.0000000E+000	0.0000000E+000	-89.8096	0.0000000E+000	0.0000000E+000	0.0000000E+000	-0.190443	0.0000000E+000	0.0000000E+000	0.0000000E+000	0.190443	300.854	89.8096	-0.000308218
37160.4	0.0874612	0.00451958	0.0875779	-2.95814	17.9085	-0.000153706	-1.067	947.637	2.52376	1	37	0.00518869	0.0592466	0	-0.00503814	0.386171	0.200595	6.31593	6.57306e-06	8.67111e-06	8.67392e-06	1.04146e-05	7.35083e-06	3.63959e-06	0.129455	0.0446604	0.365249	6.09543e-06	7.57606e-05	1.73882e-06	8.27581e-06	3.2685e-06	3.72479e-06	11.4032	0.589263	11.4184	2.95814	2523.77	48838.9	48904.1	-87.0419	0.0000000E+000	0.0000000E+000	0.0000000E+000	87.0419	0.0000000E+000	0.0000000E+000	0.0000000E+000	-87.0419	0.0000000E+000	0.0000000E+000	0.0000000E+000	-2.95814	0.0000000E+000	0.0000000E+000	0.0000000E+000	2.95814	19.3516	87.0419	-0.000252901
23502.4	0.0904599	0.00795218	0.0908087	-5.02386	20.2045	-0.000153035	-1.1059	851.571	6.53037	1	37	0.00519445	0.0572021	0	-0.00559076	0.312072	0.143434	6.25989	9.28837e-06	5.32145e-06	5.11959e-06	7.46329e-06	5.35271e-06	3.41479e-06	0.128809	0.0434142	0.373773	5.68557e-06	7.22511e-05	4.6176e-06	1.11701e-05	2.07592e-06	3.35536e-06	10.9699	0.964341	11.0122	5.02386	6530.37	74286.1	74572.6	-84.9761	0.0000000E+000	0.0000000E+000	0.0000000E+000	84.9761	0.0000000E+000	0.0000000E+000	0.0000000E+000	-84.9761	0.0000000E+000	0.0000000E+000	0.0000000E+000	-5.02386	0.0000000E+000	0.0000000E+000	0.0000000E+000	5.02386	11.3755	84.9761	-0.000220503
14854.9	0.0941059	0.0105112	0.0946911	-6.37325	22.5005	-0.000159951	-1.13371	1019.29	12.5598	1	37	0.00517793	0.0546823	0	-0.00629834	0.32485	0.161654	6.20045	4.84385e-06	6.86823e-06	7.67639e-06	4.33183e-06	6.05758e-06	8.8433e-06	0.118446	0.0235811	0.397192	5.9355e-06	6.32192e-05	5.53993e-06	8.15564e-06	4.58601e-06	4.22203e-06	10.4954	1.17229	10.5607	6.37325	12559.8	112447	113147	-83.6267	0.0000000E+000	0.0000000E+000	0.0000000E+000	83.6267	0.0000000E+000	0.0000000E+000	0.0000000E+000	-83.6267	0.0000000E+000	0.0000000E+000	0.0000000E+000	-6.37325	0.0000000E+000	0.0000000E+000	0.0000000E+000	6.37325	8.95293	83.6267	-0.000394084
9395.12	0.098371	0.0124322	0.0991535	-7.20289	24.799	-0.00027118	-1.94404	1362.61	21.4215	1	37	0.00525667	0.0530155	0	-0.00715424	0.341736	0.216593	6.32899	6.80902e-06	6.5839e-06	7.64857e-06	4.33199e-06	8.6025e-06	8.48566e-06	0.126695	0.0538173	0.414246	9.74294e-06	6.47672e-05	8.23879e-06	8.87929e-06	5.33487e-06	2.11722e-06	10.0058	1.26454	10.0854	7.20289	21421.5	169500	170848	-82.7971	0.0000000E+000	0.0000000E+000	0.0000000E+000	82.7971	0.0000000E+000	0.0000000E+000	0.0000000E+000	-82.7971	0.0000000E+000	0.0000000E+000	0.0000000E+000	-7.20289	0.0000000E+000	0.0000000E+000	0.0000000E+000	7.20289	7.9126	82.7971	-0.000547347
5938.89	0.103178	0.0134531	0.104052	-7.4287	27.2557	-0.000284079	-1.87875	1992.02	33.2996	1	37	0.00517823	0.049766	0	-0.00835004	0.382134	0.162331	6.25151	1.10495e-05	1.02304e-05	4.45961e-06	6.00525e-06	6.31044e-06	4.22028e-06	0.114211	0.014596	0.439701	7.013e-06	5.51916e-05	4.89513e-06	7.53478e-06	4.37465e-06	4.45472e-06	9.52995	1.24258	9.61062	7.4287	33299.6	255391	257553	-82.5713	0.0000000E+000	0.0000000E+000	0.0000000E+000	82.5713	0.0000000E+000	0.0000000E+000	0.0000000E+000	-82.5713	0.0000000E+000	0.0000000E+000	0.0000000E+000	-7.4287	0.0000000E+000	0.0000000E+000	0.0000000E+000	7.4287	7.66949	82.5713	-0.000607816
3756.2	0.108314	0.013568	0.10916	-7.13998	29.9217	-0.000276418	-1.86718	3122.88	48.2454	1	37	0.00516961	0.0473579	0	-0.00966847	0.336054	0.171424	6.30473	6.78766e-06	6.99108e-06	6.58599e-06	8.4432e-06	4.6756e-06	5.25695e-06	0.0786322	0.0282395	0.458178	3.89571e-06	3.53683e-05	1.98353e-06	6.19259e-06	4.84597e-06	4.25545e-06	9.08979	1.13864	9.16083	7.13998	48245.4	385146	388156	-82.86	0.0000000E+000	0.0000000E+000	0.0000000E+000	82.86	0.0000000E+000	0.0000000E+000	0.0000000E+000	-82.86	0.0000000E+000	0.0000000E+000	0.0000000E+000	-7.13998	0.0000000E+000	0.0000000E+000	0.0000000E+000	7.13998	7.98306	82.86	-0.000655827
2374.24	0.112999	0.0126544	0.113705	-6.38975	32.5768	-0.000277518	-1.81159	5297.29	65.6107	1	37	0.00516996	0.045468	0	-0.0109943	0.332198	0.124016	6.23245	4.47402e-06	1.17204e-05	4.87637e-06	5.41359e-06	6.45541e-06	2.83269e-06	0.0615518	0.0283231	0.481366	5.27719e-06	2.59747e-05	5.88952e-06	2.75332e-06	4.29649e-06	3.42087e-06	8.74002	0.978766	8.79465	6.38975	65610.7	585879	589541	-83.6103	0.0000000E+000	0.0000000E+000	0.0000000E+000	83.6103	0.0000000E+000	0.0000000E+000	0.0000000E+000	-83.6103	0.0000000E+000	0.0000000E+000	0.0000000E+000	-6.38975	0.0000000E+000	0.0000000E+000	0.0000000E+000	6.38975	8.92963	83.6103	-0.000588134
1501.44	0.116994	0.0110768	0.117517	-5.40855	35.2345	-0.000272541	-1.8439	9569.72	85.0207	1	37	0.00512093	0.0435761	0	-0.0122989	0.330923	0.149883	6.40478	7.20536e-06	3.32845e-06	7.6692e-06	6.41672e-06	5.00006e-06	6.70773e-06	0.0434446	0.0178573	0.504515	7.92227e-06	1.00013e-05	6.48557e-06	7.45392e-06	6.03197e-06	5.55806e-06	8.47154	0.802071	8.50943	5.40855	85020.7	897996	902011	-84.5915	0.0000000E+000	0.0000000E+000	0.0000000E+000	84.5915	0.0000000E+000	0.0000000E+000	0.0000000E+000	-84.5915	0.0000000E+000	0.0000000E+000	0.0000000E+000	-5.40855	0.0000000E+000	0.0000000E+000	0.0000000E+000	5.40855	10.5621	84.5915	-0.000653754
949.092	0.119977	0.00893419	0.120309	-4.25872	37.891	-0.00028229	-1.83472	18769.7	103.507	1	37	0.00504954	0.0419714	0	-0.0136788	0.292803	0.185761	6.4933	5.91638e-06	9.6851e-06	4.1038e-06	4.91245e-06	3.17793e-06	5.3245e-06	0.0451193	0.0878663	0.5249	6.32009e-06	8.14975e-06	5.55304e-06	1.23782e-05	5.12796e-06	5.13587e-06	8.28897	0.617246	8.31192	4.25872	103507	1.38999e+06	1.39384e+06	-85.7413	0.0000000E+000	0.0000000E+000	0.0000000E+000	85.7413	0.0000000E+000	0.0000000E+000	0.0000000E+000	-85.7413	0.0000000E+000	0.0000000E+000	0.0000000E+000	-4.25872	0.0000000E+000	0.0000000E+000	0.0000000E+000	4.25872	13.429	85.7413	-0.00075163
600.192	0.122232	0.00690082	0.122426	-3.23131	40.5487	-0.00024978	-1.80394	38426.3	122.09	1	37	0.00499135	0.0407702	0	-0.0149636	0.29562	0.129349	6.49723	6.6636e-06	6.47287e-06	5.95252e-06	5.71767e-06	4.73915e-06	5.21934e-06	0.0504034	0.0206581	0.53297	3.08544e-06	1.26636e-05	5.89588e-06	1.27471e-05	3.87935e-06	5.29111e-06	8.15518	0.460416	8.16817	3.23131	122090	2.16254e+06	2.16598e+06	-86.7687	0.0000000E+000	0.0000000E+000	0.0000000E+000	86.7687	0.0000000E+000	0.0000000E+000	0.0000000E+000	-86.7687	0.0000000E+000	0.0000000E+000	0.0000000E+000	-3.23131	0.0000000E+000	0.0000000E+000	0.0000000E+000	3.23131	17.7126	86.7687	-0.000655208
379.393	0.12364	0.0051492	0.123747	-2.3848	42.9821	-0.000224131	-1.76794	81468.6	141.058	1	37	0.00515489	0.0416566	0	-0.016127	0.273702	0.165261	6.32366	4.20738e-06	8.01913e-06	3.22807e-06	5.0521e-06	7.12704e-06	3.73661e-06	0.05726	0.0233172	0.525507	5.79073e-06	1.71555e-05	3.88689e-06	1.21651e-05	2.71535e-06	6.89773e-06	8.07398	0.336255	8.08098	2.3848	141058	3.38702e+06	3.38996e+06	-87.6152	0.0000000E+000	0.0000000E+000	0.0000000E+000	87.6152	0.0000000E+000	0.0000000E+000	0.0000000E+000	-87.6152	0.0000000E+000	0.0000000E+000	0.0000000E+000	-2.3848	0.0000000E+000	0.0000000E+000	0.0000000E+000	2.3848	24.0115	87.6152	-0.000625191
239.924	0.124729	0.00401043	0.124793	-1.84161	45.1948	-0.000239267	-1.75644	165408	170.826	1	37	0.00549394	0.0440243	0	-0.0172411	0.312236	0.155454	6.02511	4.46559e-06	7.28823e-06	7.36574e-06	2.2802e-06	9.63377e-06	7.02778e-06	0.0736807	0.0188336	0.494396	4.67623e-06	2.65666e-05	3.6758e-06	1.53148e-05	6.36795e-06	3.96913e-06	8.00911	0.257518	8.01325	1.84161	170826	5.3129e+06	5.31564e+06	-88.1584	0.0000000E+000	0.0000000E+000	0.0000000E+000	88.1584	0.0000000E+000	0.0000000E+000	0.0000000E+000	-88.1584	0.0000000E+000	0.0000000E+000	0.0000000E+000	-1.84161	0.0000000E+000	0.0000000E+000	0.0000000E+000	1.84161	31.1011	88.1584	-0.000528778
151.699	0.125393	0.00295328	0.125428	-1.34919	47.6215	-0.000253844	-1.74138	355249	196.949	1	37	0.0050324	0.0401219	0	-0.0182868	0.397268	0.0880758	6.46435	5.14335e-06	8.91564e-06	9.61114e-06	9.58054e-06	5.54893e-06	3.77396e-06	0.0965568	0.0707861	0.524161	4.19286e-06	2.8771e-05	5.00539e-06	2.33048e-05	6.86558e-06	3.83105e-06	7.97051	0.187723	7.97272	1.34919	196949	8.36225e+06	8.36457e+06	-88.6508	0.0000000E+000	0.0000000E+000	0.0000000E+000	88.6508	0.0000000E+000	0.0000000E+000	0.0000000E+000	-88.6508	0.0000000E+000	0.0000000E+000	0.0000000E+000	-1.34919	0.0000000E+000	0.0000000E+000	0.0000000E+000	1.34919	42.4589	88.6508	-0.000476371
95.8897	0.125777	0.0021649	0.125796	-0.98609	49.8299	-0.000248699	-1.76826	766672	227.067	1	37	0.00508308	0.0404074	0	-0.0194134	0.336725	0.211804	6.4402	5.20336e-06	6.42035e-06	7.16539e-06	6.27959e-06	6.78484e-06	6.9117e-06	0.0941677	0.0254231	0.545664	4.64101e-06	2.8363e-05	6.15696e-06	2.21001e-05	5.34239e-06	6.83463e-06	7.94822	0.136806	7.9494	0.98609	227068	1.31922e+07	1.31942e+07	-89.0139	0.0000000E+000	0.0000000E+000	0.0000000E+000	89.0139	0.0000000E+000	0.0000000E+000	0.0000000E+000	-89.0139	0.0000000E+000	0.0000000E+000	0.0000000E+000	-0.98609	0.0000000E+000	0.0000000E+000	0.0000000E+000	0.98609	58.0983	89.0139	-0.000558758
60.6403	0.12605	0.00184318	0.126063	-0.837758	52.0307	-0.000231997	-1.70226	1.42393e+06	304.404	1	37	0.00510327	0.0404819	0	-0.0205664	0.29295	0.164036	6.25825	4.96836e-06	7.64494e-06	3.67911e-06	4.77352e-06	7.08482e-06	6.26376e-06	0.108336	0.0307465	0.54108	4.44649e-06	3.18044e-05	6.89702e-06	2.78451e-05	3.19057e-06	6.12953e-06	7.93169	0.115982	7.93254	0.837758	304405	2.08173e+07	2.08195e+07	-89.1622	0.0000000E+000	0.0000000E+000	0.0000000E+000	89.1622	0.0000000E+000	0.0000000E+000	0.0000000E+000	-89.1622	0.0000000E+000	0.0000000E+000	0.0000000E+000	-0.837758	0.0000000E+000	0.0000000E+000	0.0000000E+000	0.837758	68.3869	89.1622	-0.00058933
38.3436	0.126282	0.001634	0.126292	-0.741329	54.2844	-0.000229294	-1.68765	2.54024e+06	425.233	1	37	0.00510786	0.0404447	0	-0.0215895	0.29273	0.135152	6.37988	2.66076e-06	5.71222e-06	3.87418e-06	9.13727e-06	6.90089e-06	4.71861e-06	0.128035	0.0322317	0.536391	4.83219e-06	3.49044e-05	1.9605e-05	3.08163e-05	8.76994e-06	3.71457e-06	7.91748	0.102447	7.91814	0.741329	425231	3.28635e+07	3.28663e+07	-89.2587	0.0000000E+000	0.0000000E+000	0.0000000E+000	89.2587	0.0000000E+000	0.0000000E+000	0.0000000E+000	-89.2587	0.0000000E+000	0.0000000E+000	0.0000000E+000	-0.741329	0.0000000E+000	0.0000000E+000	0.0000000E+000	0.741329	77.2837	89.2587	-0.000517222
24.2474	0.126517	0.00143494	0.126525	-0.649817	56.505	-0.000235054	-1.65501	4.57425e+06	588.354	1	37	0.00510897	0.0403792	0	-0.0225264	0.320166	0.0947239	6.52506	6.56764e-06	8.73667e-06	4.37472e-06	4.23668e-06	8.18012e-06	4.06853e-06	0.152745	0.0791434	0.528166	4.03515e-05	3.30089e-05	5.95048e-06	3.05126e-05	5.37786e-06	8.69152e-06	7.90308	0.0896362	7.90359	0.649817	588355	5.18742e+07	5.18775e+07	-89.3502	0.0000000E+000	0.0000000E+000	0.0000000E+000	89.3502	0.0000000E+000	0.0000000E+000	0.0000000E+000	-89.3502	0.0000000E+000	0.0000000E+000	0.0000000E+000	-0.649817	0.0000000E+000	0.0000000E+000	0.0000000E+000	0.649817	88.1684	89.3502	-0.000498553
15.3287	0.127067	0.00140648	0.127075	-0.634169	58.7234	-0.000224429	-1.59836	7.38213e+06	904.335	1	37	0.00511876	0.0402814	0	-0.0235339	0.357648	0.158537	6.31535	3.08398e-06	1.10225e-05	5.2572e-06	6.87875e-06	8.24236e-06	6.14607e-06	0.128659	0.0460052	0.525254	7.48483e-06	3.87973e-05	6.40355e-06	3.03836e-05	9.10645e-06	5.07122e-06	7.86889	0.0870991	7.86937	0.634169	904337	8.17013e+07	8.17063e+07	-89.3658	0.0000000E+000	0.0000000E+000	0.0000000E+000	89.3658	0.0000000E+000	0.0000000E+000	0.0000000E+000	-89.3658	0.0000000E+000	0.0000000E+000	0.0000000E+000	-0.634169	0.0000000E+000	0.0000000E+000	0.0000000E+000	0.634169	90.3441	89.3658	-0.000592014
9.69291	0.127406	0.00135553	0.127413	-0.609573	60.8551	-0.000230524	-1.7337	1.21131e+07	1371.03	1	37	0.00511624	0.0401547	0	-0.024353	0.392426	0.177471	6.39095	7.38911e-06	1.1014e-05	6.19372e-06	7.43235e-06	7.35659e-06	6.53603e-06	0.1612	0.113227	0.51852	2.25607e-05	3.26715e-05	7.01689e-06	4.76517e-05	8.74688e-06	8.57251e-06	7.84803	0.0834988	7.84847	0.609573	1.37103e+06	1.28863e+08	1.2887e+08	-89.3904	0.0000000E+000	0.0000000E+000	0.0000000E+000	89.3904	0.0000000E+000	0.0000000E+000	0.0000000E+000	-89.3904	0.0000000E+000	0.0000000E+000	0.0000000E+000	-0.609573	0.0000000E+000	0.0000000E+000	0.0000000E+000	0.609573	93.9897	89.3904	-0.00016372
6.12745	0.127776	0.00174705	0.127788	-0.783343	63.4942	-0.000237049	-1.71415	1.48674e+07	2778.86	1	37	0.00511568	0.0400326	0	-0.0253619	0.142949	0.146253	3.55182	2.87518e-06	1.83533e-06	2.77026e-06	3.60154e-06	2.46217e-06	3.06373e-06	0.151598	0.0741729	0.358525	1.21249e-05	4.78942e-05	3.1087e-06	3.15292e-05	1.00049e-05	4.62179e-06	7.82473	0.106986	7.82547	0.783343	2.77885e+06	2.0324e+08	2.03259e+08	-89.2167	0.0000000E+000	0.0000000E+000	0.0000000E+000	89.2167	0.0000000E+000	0.0000000E+000	0.0000000E+000	-89.2167	0.0000000E+000	0.0000000E+000	0.0000000E+000	-0.783343	0.0000000E+000	0.0000000E+000	0.0000000E+000	0.783343	73.1381	89.2167	-0.000100872
3.87525	0.128053	0.00182102	0.128066	-0.814738	67.109	-0.00023306	-1.72649	2.25531e+07	4560.02	1	37	0.00511242	0.0399202	0	-0.0277531	0.236793	0.113144	3.15611	5.78677e-06	3.84621e-06	5.21728e-06	2.36665e-06	6.10518e-06	3.7951e-06	0.1207	0.0615191	0.344938	1.26313e-05	2.64419e-05	2.39764e-05	2.63022e-05	6.77902e-06	3.61497e-06	7.80768	0.111032	7.80847	0.814738	4.56001e+06	3.20658e+08	3.20691e+08	-89.1853	0.0000000E+000	0.0000000E+000	0.0000000E+000	89.1853	0.0000000E+000	0.0000000E+000	0.0000000E+000	-89.1853	0.0000000E+000	0.0000000E+000	0.0000000E+000	-0.814738	0.0000000E+000	0.0000000E+000	0.0000000E+000	0.814738	70.3194	89.1853	-0.001607
2.45021	0.128475	0.00223626	0.128494	-0.997203	72.3315	-0.000236942	-1.69005	2.90465e+07	8797.76	1	37	0.00511533	0.0398098	0	-0.0294071	0.165569	0.133049	2.27156	2.15205e-06	5.00931e-06	2.98859e-06	4.19597e-06	3.55829e-06	1.16317e-06	0.154321	0.248199	0.298228	9.77195e-06	3.18836e-05	3.91174e-06	3.0431e-05	1.38706e-05	3.84422e-05	7.78128	0.135443	7.78246	0.997203	8.79773e+06	5.05437e+08	5.05514e+08	-89.0028	0.0000000E+000	0.0000000E+000	0.0000000E+000	89.0028	0.0000000E+000	0.0000000E+000	0.0000000E+000	-89.0028	0.0000000E+000	0.0000000E+000	0.0000000E+000	-0.997203	0.0000000E+000	0.0000000E+000	0.0000000E+000	0.997203	57.4507	89.0028	-0.00131773
1.54902	0.128803	0.00269237	0.128831	-1.19748	80.1347	-0.000234193	-1.63923	3.81617e+07	16667	1	37	0.0051152	0.0397048	0	-0.0349745	0.123099	0.12503	1.80999	1.67208e-06	2.8688e-06	1.64902e-06	3.9557e-06	1.92431e-06	1.59544e-06	0.139412	0.213428	0.292962	2.65802e-05	2.96374e-05	7.71565e-06	3.54155e-05	4.52031e-06	7.82028e-06	7.76041	0.162216	7.76211	1.19748	1.6667e+07	7.97348e+08	7.97522e+08	-88.8025	0.0000000E+000	0.0000000E+000	0.0000000E+000	88.8025	0.0000000E+000	0.0000000E+000	0.0000000E+000	-88.8025	0.0000000E+000	0.0000000E+000	0.0000000E+000	-1.19748	0.0000000E+000	0.0000000E+000	0.0000000E+000	1.19748	47.8399	88.8025	-0.00325015
0.979744	0.129215	0.00357243	0.129264	-1.58367	92.017	-0.000235007	-1.71888	4.5472e+07	34730.9	1	37	0.00511519	0.0395717	0	-0.0410394	0.124383	0.0745379	1.42411	2.49947e-06	4.15152e-06	2.24391e-06	2.7914e-06	8.25384e-07	8.78644e-07	0.176562	0.170284	0.28452	5.17467e-05	3.42068e-05	1.243e-05	2.35668e-05	8.82614e-06	7.69378e-06	7.73315	0.2138	7.73611	1.58367	3.47308e+07	1.25622e+09	1.2567e+09	-88.4163	0.0000000E+000	0.0000000E+000	0.0000000E+000	88.4163	0.0000000E+000	0.0000000E+000	0.0000000E+000	-88.4163	0.0000000E+000	0.0000000E+000	0.0000000E+000	-1.58367	0.0000000E+000	0.0000000E+000	0.0000000E+000	1.58367	36.17	88.4163	-0.00626431
0.619303	0.129604	0.00492772	0.129698	-2.17741	110.354	-0.000237534	-1.59515	5.2152e+07	75283.2	1	37	0.00511418	0.0394315	0	-0.0456412	0.10744	0.0630527	1.11678	1.6583e-06	3.66857e-06	1.28918e-06	2.54695e-06	1.43169e-06	1.12158e-06	0.192371	0.295937	0.318982	3.49719e-05	5.56773e-05	1.82299e-05	2.46856e-05	1.0237e-05	5.72099e-06	7.70467	0.292942	7.71023	2.17741	7.52833e+07	1.98003e+09	1.98146e+09	-87.8226	0.0000000E+000	0.0000000E+000	0.0000000E+000	87.8226	0.0000000E+000	0.0000000E+000	0.0000000E+000	-87.8226	0.0000000E+000	0.0000000E+000	0.0000000E+000	-2.17741	0.0000000E+000	0.0000000E+000	0.0000000E+000	2.17741	26.301	87.8226	-0.0029757
0.391574	0.130148	0.00710255	0.130342	-3.1237	138.989	-0.000226764	-1.62276	5.72258e+07	169923	1	37	0.00511533	0.0392455	0	-0.0637546	0.145054	0.0623564	0.885413	2.68934e-06	5.27145e-06	8.62087e-07	2.7367e-06	2.20652e-06	1.44823e-06	0.259934	0.146252	0.301271	2.65616e-05	8.34531e-05	1.13924e-05	4.46911e-05	1.29712e-05	1.11734e-05	7.66074	0.418068	7.67214	3.1237	1.69923e+08	3.1137e+09	3.11833e+09	-86.8763	0.0000000E+000	0.0000000E+000	0.0000000E+000	86.8763	0.0000000E+000	0.0000000E+000	0.0000000E+000	-86.8763	0.0000000E+000	0.0000000E+000	0.0000000E+000	-3.1237	0.0000000E+000	0.0000000E+000	0.0000000E+000	3.1237	18.3241	86.8763	-0.00746258
0.247537	0.131831	0.010082	0.132216	-4.37326	183.906	-0.000225651	-1.65918	6.37729e+07	370816	1	37	0.0051132	0.0386731	0	-0.0748031	0.110337	0.0835474	0.708899	1.72792e-06	3.70378e-06	1.69847e-06	2.17824e-06	1.72865e-06	1.35552e-06	0.270969	0.181543	0.402679	8.4607e-05	3.229e-05	3.16495e-05	3.04982e-05	1.63508e-05	8.60268e-06	7.54137	0.576736	7.56339	4.37326	3.70816e+08	4.84876e+09	4.86292e+09	-85.6267	0.0000000E+000	0.0000000E+000	0.0000000E+000	85.6267	0.0000000E+000	0.0000000E+000	0.0000000E+000	-85.6267	0.0000000E+000	0.0000000E+000	0.0000000E+000	-4.37326	0.0000000E+000	0.0000000E+000	0.0000000E+000	4.37326	13.0759	85.6267	-0.00800462
0.15652	0.134526	0.0147148	0.135328	-6.24237	254.549	-0.000253619	-1.80671	6.91028e+07	817017	1	37	0.00511454	0.0377936	0	-0.123504	0.126864	0.0761768	0.571497	2.39229e-06	4.72286e-06	8.1581e-07	2.7079e-06	1.39341e-06	7.76164e-07	0.337766	0.143495	0.355859	2.44995e-05	3.07817e-05	0.000111459	3.65013e-05	1.85257e-05	1.31281e-05	7.34563	0.803488	7.38945	6.24237	8.17016e+08	7.46931e+09	7.51386e+09	-83.7576	0.0000000E+000	0.0000000E+000	0.0000000E+000	83.7576	0.0000000E+000	0.0000000E+000	0.0000000E+000	-83.7576	0.0000000E+000	0.0000000E+000	0.0000000E+000	-6.24237	0.0000000E+000	0.0000000E+000	0.0000000E+000	6.24237	9.14218	83.7576	-0.029234
0.0990003	0.141292	0.0195443	0.142637	-7.87551	365.938	-0.000224294	-1.6164	8.22552e+07	1.54433e+06	1	37	0.00510782	0.0358099	0	-0.174195	0.113296	0.105345	0.457971	2.46193e-06	3.23578e-06	1.77692e-06	2.98156e-06	1.13499e-06	1.43464e-06	0.347011	0.0828174	0.432698	1.40202e-05	2.95516e-05	1.38158e-05	3.18589e-05	1.92105e-05	0.00011243	6.94468	0.960628	7.0108	7.87551	1.54432e+09	1.11644e+10	1.12707e+10	-82.1245	0.0000000E+000	0.0000000E+000	0.0000000E+000	82.1245	0.0000000E+000	0.0000000E+000	0.0000000E+000	-82.1245	0.0000000E+000	0.0000000E+000	0.0000000E+000	-7.87551	0.0000000E+000	0.0000000E+000	0.0000000E+000	7.87551	7.2293	82.1245	-0.0223289
0.062544	0.150668	0.02001	0.151991	-7.56508	541.792	-0.00022347	-1.6252	1.27171e+08	2.20416e+06	1	37	0.00510579	0.0335927	0	-0.224331	0.105122	0.120759	0.384405	2.41048e-06	3.5156e-06	1.05929e-06	1.90167e-06	1.105e-06	5.13026e-07	0.159595	0.123161	0.646552	2.33039e-05	2.41177e-05	1.4409e-05	3.4189e-05	7.63062e-06	8.15872e-06	6.52206	0.866183	6.57933	7.56508	2.20416e+09	1.65966e+10	1.67423e+10	-82.4349	0.0000000E+000	0.0000000E+000	0.0000000E+000	82.4349	0.0000000E+000	0.0000000E+000	0.0000000E+000	-82.4349	0.0000000E+000	0.0000000E+000	0.0000000E+000	-7.56508	0.0000000E+000	0.0000000E+000	0.0000000E+000	7.56508	7.52966	82.4349	-0.0305527
0.0395577	0.158033	0.0165854	0.158901	-5.99119	819.469	-0.000227847	-1.59486	2.42584e+08	2.64278e+06	1	37	0.00510312	0.0321151	0	-0.360577	0.0937353	0.113828	0.3175	2.16107e-06	3.20462e-06	9.69699e-07	2.36559e-06	4.76986e-07	5.67299e-07	0.143048	0.141807	0.712048	1.67877e-05	2.464e-05	7.678e-06	3.29806e-05	6.66935e-06	4.11412e-06	6.25885	0.656859	6.29322	5.99119	2.64278e+09	2.51816e+10	2.53199e+10	-84.0088	0.0000000E+000	0.0000000E+000	0.0000000E+000	84.0088	0.0000000E+000	0.0000000E+000	0.0000000E+000	-84.0088	0.0000000E+000	0.0000000E+000	0.0000000E+000	-5.99119	0.0000000E+000	0.0000000E+000	0.0000000E+000	5.99119	9.52845	84.0088	-0.0844801
0.0250135	0.162223	0.0120705	0.162672	-4.25535	1258.24	-0.000245835	-1.71068	5.27134e+08	2.90234e+06	1	37	0.00510044	0.0313542	0	-0.62338	0.115103	0.139613	0.268576	2.2231e-06	4.1958e-06	1.38028e-06	2.17263e-06	1.05275e-06	1.62525e-06	0.145323	0.141627	0.749179	1.2846e-05	3.13476e-05	9.61741e-06	2.68112e-05	5.85797e-06	5.82837e-06	6.13041	0.456144	6.14735	4.25535	2.90234e+09	3.90064e+10	3.91142e+10	-85.7446	0.0000000E+000	0.0000000E+000	0.0000000E+000	85.7446	0.0000000E+000	0.0000000E+000	0.0000000E+000	-85.7446	0.0000000E+000	0.0000000E+000	0.0000000E+000	-4.25535	0.0000000E+000	0.0000000E+000	0.0000000E+000	4.25535	13.4396	85.7446	-0.146105
0.0158201	0.163828	0.00802292	0.164024	-2.80363	1951.86	-0.000234559	-1.77137	1.25394e+09	3.00004e+06	1	37	0.00510538	0.0311258	0	-0.93385	0.124624	0.150964	0.240362	2.46679e-06	4.00444e-06	1.09337e-06	2.57837e-06	1.59631e-06	1.06099e-06	0.166993	0.262498	0.75914	1.55996e-05	2.95124e-05	1.1583e-05	3.20318e-05	6.32981e-06	8.10175e-06	6.08937	0.298206	6.09666	2.80363	3.00004e+09	6.12608e+10	6.13342e+10	-87.1964	0.0000000E+000	0.0000000E+000	0.0000000E+000	87.1964	0.0000000E+000	0.0000000E+000	0.0000000E+000	-87.1964	0.0000000E+000	0.0000000E+000	0.0000000E+000	-2.80363	0.0000000E+000	0.0000000E+000	0.0000000E+000	2.80363	20.42	87.1964	-0.16014
0.0100037	0.164934	0.00516236	0.165015	-1.79274	3048.2	-0.000229576	-1.60811	3.08183e+09	3.01619e+06	1	37	0.0051028	0.0309232	0	-1.29743	0.149728	0.28274	0.224523	3.41815e-06	5.07735e-06	1.25623e-06	2.72213e-06	1.16579e-06	1.34405e-06	0.181497	0.191118	0.75591	1.85816e-05	4.00439e-05	7.02561e-06	2.89597e-05	5.27193e-06	8.74361e-06	6.05708	0.189584	6.06005	1.79274	3.0162e+09	9.63654e+10	9.64126e+10	-88.2073	0.0000000E+000	0.0000000E+000	0.0000000E+000	88.2073	0.0000000E+000	0.0000000E+000	0.0000000E+000	-88.2073	0.0000000E+000	0.0000000E+000	0.0000000E+000	-1.79274	0.0000000E+000	0.0000000E+000	0.0000000E+000	1.79274	31.9494	88.2073	-0.195131