File: Python/Data/GoldElectrode/240319/Carbon/240319-CVEIS_Activation-0p5H2SO4-Ag_AgCl_BLF8-GC_RDE-80cycles_02_PEIS_C15.mpt
EC-Lab ASCII FILE
Nb header lines : 66

Potentio Electrochemical Impedance Spectroscopy

Run on channel : 15 (SN 19485)
User :
Electrode connection : standard
Potential control : Ewe
Ewe ctrl range : min = -2.50 V, max = 2.50 V
Ewe,I filtering : 50 kHz
Safety Limits :
	Do not start on E overload
Channel : Floating
Acquisition started on : 03/19/2024 14:45:18.810
Loaded Setting File :  C:\Data\mathias\GoldElectrode\240313-CVEIS_Activation-0p5H2SO4-Ag_AgCl_BLF8-Au_RDE-80cycles.mps
Saved on :
	File : 240319-CVEIS_Activation-0p5H2SO4-Ag_AgCl_BLF8-GC_RDE-80cycles_02_PEIS_C15.mpr
	Directory : C:\Data\mathias\GoldElectrode\
	Host : 192.168.0.1
Device : VMP-300 (SN 0826)
Address : USB
EC-Lab for windows v11.52 (software)
Internet server v11.52 (firmware)
Command interpretor v11.52 (firmware)
Electrode material :
Initial state :
Electrolyte :
Comments :
Cable : special
Electrode surface area : 0.001 cm²
Characteristic mass : 0.001 g
Equivalent Weight : 0.000 g/eq.
Density : 0.000 g/cm3
Volume (V) : 0.001 cm³
Record EIS quality indicators
Cycle Definition : Charge/Discharge alternance
Mode                Single sine
E (V)               0.0000
vs.                 Eoc
tE (h:m:s)          0:00:0.0000
record              0
dI                  0.000
unit dI             mA
dt (s)              0.000
fi                  100.000
unit fi             kHz
ff                  100.000
unit ff             Hz
Nd                  10
Points              per decade
spacing             Logarithmic
Va (mV)             5.0
pw                  0.10
Na                  2
corr                0
E range min (V)     -2.500
E range max (V)     2.500
I Range             Auto
Bandwidth           8
nc cycles           0
goto Ns'            0
nr cycles           0
inc. cycle          0

freq/Hz	Re(Z)/Ohm	-Im(Z)/Ohm	|Z|/Ohm	Phase(Z)/deg	time/s	<Ewe>/V	<I>/mA	Cs/µF	Cp/µF	cycle number	I Range	|Ewe|/V	|I|/A	Ns	(Q-Qo)/mA.h	THD Ewe/%	NSD Ewe/%	NSR Ewe/%	|Ewe h2|/V	|Ewe h3|/V	|Ewe h4|/V	|Ewe h5|/V	|Ewe h6|/V	|Ewe h7|/V	THD I/%	NSD I/%	NSR I/%	|I h2|/A	|I h3|/A	|I h4|/A	|I h5|/A	|I h6|/A	|I h7|/A	Re(Y)/Ohm-1	Im(Y)/Ohm-1	|Y|/Ohm-1	Phase(Y)/deg	Re(C)/nF	Im(C)/nF	|C|/nF	Phase(C)/deg	Re(M)	Im(M)	|M|	Phase(M)/deg	Re(Permittivity)	Im(Permittivity)	|Permittivity|	Phase(Permittivity)/deg	Re(Resistivity)/Ohm.cm	Im(Resistivity)/Ohm.cm	|Resistivity|/Ohm.cm	Phase(Resistivity)/deg	Re(Conductivity)/mS/cm	Im(Conductivity)/mS/cm	|Conductivity|/mS/cm	Phase(Conductivity)/deg	Tan(Delta)	Loss Angle(Delta)/deg	dq/mA.h
100004	7.99918	1.23468	8.09391	-8.77439	20.5637	0.334443	-0.0194315	1.28899	0.0299945	1	38	0.00469211	0.000579709	0	-5.46557e-06	4.84282	2.24201	86.1459	6.5227e-05	7.53089e-05	9.2241e-05	9.53678e-05	6.01991e-05	0.000123714	0.391565	0.193467	6.52443	1.36178e-06	9.57462e-07	6.40288e-07	1.00847e-06	5.23543e-07	6.15096e-07	0.122104	0.0188468	0.12355	8.77439	29.9944	194.327	196.628	-81.2256	0.0000000E+000	0.0000000E+000	0.0000000E+000	81.2256	0.0000000E+000	0.0000000E+000	0.0000000E+000	-81.2256	0.0000000E+000	0.0000000E+000	0.0000000E+000	-8.77439	0.0000000E+000	0.0000000E+000	0.0000000E+000	8.77439	6.47876	81.2256	-5.46557e-06
79433.3	8.16916	1.30328	8.27246	-9.06436	21.3777	0.33451	-0.0105239	1.53738	0.0381579	1	38	0.00506097	0.000611785	0	-7.42133e-06	2.90967	3.3876	79.8302	5.17949e-05	4.31089e-05	3.13791e-05	6.74889e-05	7.26547e-05	7.23373e-05	0.304619	0.339091	6.24917	9.14335e-07	1.03077e-06	4.7999e-07	5.16077e-07	6.36518e-07	6.06834e-07	0.119373	0.0190444	0.120883	9.06436	38.1579	239.18	242.205	-80.9356	0.0000000E+000	0.0000000E+000	0.0000000E+000	80.9356	0.0000000E+000	0.0000000E+000	0.0000000E+000	-80.9356	0.0000000E+000	0.0000000E+000	0.0000000E+000	-9.06436	0.0000000E+000	0.0000000E+000	0.0000000E+000	9.06436	6.26817	80.9356	-1.95576e-06
63093.8	8.24297	1.39557	8.36027	-9.60927	22.1917	0.334418	-0.0102893	1.80752	0.0503666	1	38	0.00512007	0.000612429	0	-9.91146e-06	4.48528	2.53643	80.6747	0.00011783	2.51027e-05	9.35486e-05	7.93082e-05	0.000103462	6.40738e-05	0.312598	0.129707	6.23068	1.09401e-06	3.28169e-07	8.97099e-07	6.52193e-07	7.16879e-07	3.79135e-07	0.117935	0.0199668	0.119613	9.60927	50.3666	297.493	301.726	-80.3907	0.0000000E+000	0.0000000E+000	0.0000000E+000	80.3907	0.0000000E+000	0.0000000E+000	0.0000000E+000	-80.3907	0.0000000E+000	0.0000000E+000	0.0000000E+000	-9.60927	0.0000000E+000	0.0000000E+000	0.0000000E+000	9.60927	5.90654	80.3907	-2.49014e-06
50122.5	8.28328	1.56487	8.4298	-10.6982	23.0057	0.33446	-0.00918335	2.02913	0.0699247	1	38	0.00518406	0.000614968	0	-1.19314e-05	4.59651	1.26542	79.8237	8.74609e-05	9.93006e-05	5.76284e-05	4.76122e-05	0.000139537	7.87266e-05	0.464171	0.127461	6.25322	8.43917e-07	8.33376e-07	9.80128e-07	6.11853e-07	2.06494e-06	3.30338e-07	0.116565	0.0220213	0.118627	10.6982	69.9246	370.131	376.678	-79.3018	0.0000000E+000	0.0000000E+000	0.0000000E+000	79.3018	0.0000000E+000	0.0000000E+000	0.0000000E+000	-79.3018	0.0000000E+000	0.0000000E+000	0.0000000E+000	-10.6982	0.0000000E+000	0.0000000E+000	0.0000000E+000	10.6982	5.29328	79.3018	-2.01997e-06
39814.1	8.35241	1.92934	8.57235	-13.0067	23.8197	0.334457	-0.00886683	2.07193	0.104953	1	38	0.00525792	0.000613358	0	-1.49265e-05	4.1068	2.09621	75.5281	0.000140455	3.79551e-05	6.64699e-05	6.91001e-05	4.21872e-05	0.000115627	0.452386	0.1481	6.2288	1.69309e-06	7.88745e-07	1.32434e-06	8.29092e-07	9.78897e-07	8.14864e-07	0.113661	0.0262548	0.116654	13.0067	104.953	454.356	466.32	-76.9933	0.0000000E+000	0.0000000E+000	0.0000000E+000	76.9933	0.0000000E+000	0.0000000E+000	0.0000000E+000	-76.9933	0.0000000E+000	0.0000000E+000	0.0000000E+000	-13.0067	0.0000000E+000	0.0000000E+000	0.0000000E+000	13.0067	4.32915	76.9933	-2.99505e-06
31621.1	8.46213	2.05943	8.70913	-13.6782	24.6337	0.334399	-0.00960788	2.44397	0.13666	1	38	0.00511198	0.000586968	0	-1.80185e-05	4.49302	1.27987	80.0077	8.71465e-05	0.000104474	0.000108147	3.82744e-05	8.68247e-05	5.71661e-05	0.404796	0.198024	6.34976	9.48997e-07	1.2081e-06	6.96028e-07	7.1139e-07	8.48229e-07	1.04401e-06	0.111566	0.0271517	0.114822	13.6782	136.66	561.53	577.92	-76.3218	0.0000000E+000	0.0000000E+000	0.0000000E+000	76.3218	0.0000000E+000	0.0000000E+000	0.0000000E+000	-76.3218	0.0000000E+000	0.0000000E+000	0.0000000E+000	-13.6782	0.0000000E+000	0.0000000E+000	0.0000000E+000	13.6782	4.10897	76.3218	-3.09206e-06
25116.9	8.49982	2.4482	8.84538	-16.0679	25.4477	0.334549	-0.00896737	2.58826	0.198275	1	38	0.00515106	0.000582345	0	-1.89313e-05	3.69041	2.36945	78.3942	5.90045e-05	6.92747e-05	6.12262e-05	0.000126709	6.04012e-05	3.36173e-05	0.342522	0.171012	6.49511	1.12985e-06	7.5382e-07	7.48641e-07	8.15277e-07	7.25166e-07	5.72202e-07	0.108637	0.0312906	0.113053	16.0679	198.275	688.385	716.37	-73.9321	0.0000000E+000	0.0000000E+000	0.0000000E+000	73.9321	0.0000000E+000	0.0000000E+000	0.0000000E+000	-73.9321	0.0000000E+000	0.0000000E+000	0.0000000E+000	-16.0679	0.0000000E+000	0.0000000E+000	0.0000000E+000	16.0679	3.47187	73.9321	-9.12725e-07
19948.8	8.7778	3.04599	9.29128	-19.1373	26.2627	0.334408	-0.00960415	2.61924	0.281502	1	38	0.00520288	0.000559975	0	-2.07717e-05	5.04755	2.09815	78.611	6.89989e-05	0.000108205	0.000115041	0.000109696	7.80485e-05	0.000105349	0.332354	0.300918	6.63822	5.15196e-07	8.45888e-07	8.11882e-07	7.09447e-07	8.19201e-07	7.02132e-07	0.10168	0.035284	0.107628	19.1373	281.502	811.22	858.674	-70.8627	0.0000000E+000	0.0000000E+000	0.0000000E+000	70.8627	0.0000000E+000	0.0000000E+000	0.0000000E+000	-70.8627	0.0000000E+000	0.0000000E+000	0.0000000E+000	-19.1373	0.0000000E+000	0.0000000E+000	0.0000000E+000	19.1373	2.88175	70.8627	-1.84045e-06
15847.7	8.78672	3.48458	9.45245	-21.632	27.0767	0.334507	-0.00840134	2.88206	0.391667	1	38	0.00505128	0.000534388	0	-2.21077e-05	3.08985	2.59863	79.2625	3.39157e-05	0.000102352	4.22746e-05	4.26428e-05	7.20507e-05	4.73361e-05	0.338893	0.29603	7.17978	1.27363e-06	9.65749e-07	1.80469e-07	2.51075e-07	7.08165e-07	3.16796e-07	0.0983418	0.0389998	0.105793	21.632	391.667	987.626	1062.45	-68.368	0.0000000E+000	0.0000000E+000	0.0000000E+000	68.368	0.0000000E+000	0.0000000E+000	0.0000000E+000	-68.368	0.0000000E+000	0.0000000E+000	0.0000000E+000	-21.632	0.0000000E+000	0.0000000E+000	0.0000000E+000	21.632	2.5216	68.368	-1.336e-06
12590.9	8.84973	4.14391	9.77188	-25.0915	27.8907	0.334546	-0.00788373	3.05037	0.54855	1	38	0.00500309	0.000511989	0	-2.27691e-05	7.58089	1.15194	80.3882	2.30406e-05	6.77718e-05	0.000254467	0.000228184	3.78315e-05	8.85107e-05	0.717053	0.26172	7.51837	8.28041e-07	7.90374e-07	1.95431e-06	1.9392e-06	1.31469e-06	9.47235e-07	0.0926773	0.0433964	0.102334	25.0915	548.55	1171.48	1293.55	-64.9085	0.0000000E+000	0.0000000E+000	0.0000000E+000	64.9085	0.0000000E+000	0.0000000E+000	0.0000000E+000	-64.9085	0.0000000E+000	0.0000000E+000	0.0000000E+000	-25.0915	0.0000000E+000	0.0000000E+000	0.0000000E+000	25.0915	2.1356	64.9085	-6.61397e-07
10002.2	9.2281	5.11664	10.5517	-29.0068	28.7047	0.334455	-0.00788745	3.10984	0.73125	1	38	0.00506714	0.000480221	0	-2.48734e-05	4.64403	1.91919	82.8476	6.5886e-05	8.92363e-05	6.87103e-05	4.03082e-05	6.49408e-05	0.000161554	0.439027	0.23236	8.22435	7.64831e-07	8.28182e-07	5.61923e-07	8.35067e-07	3.91583e-07	1.29901e-06	0.0828838	0.045956	0.0947717	29.0068	731.25	1318.84	1508	-60.9932	0.0000000E+000	0.0000000E+000	0.0000000E+000	60.9932	0.0000000E+000	0.0000000E+000	0.0000000E+000	-60.9932	0.0000000E+000	0.0000000E+000	0.0000000E+000	-29.0068	0.0000000E+000	0.0000000E+000	0.0000000E+000	29.0068	1.80355	60.9932	-2.1043e-06
7944	9.4913	6.24493	11.3615	-33.3434	29.5542	0.334315	-0.00795076	3.20814	0.969251	1	38	0.00507031	0.000446271	0	-2.71013e-05	3.61292	2.44739	79.9847	8.71673e-05	5.75088e-05	5.40127e-05	9.31477e-05	7.02416e-05	5.56971e-05	0.437019	0.236059	8.50854	7.47647e-07	6.40298e-07	1.00338e-06	9.88317e-07	8.15584e-07	2.49977e-07	0.0735281	0.0483788	0.0880164	33.3434	969.251	1473.11	1763.38	-56.6566	0.0000000E+000	0.0000000E+000	0.0000000E+000	56.6566	0.0000000E+000	0.0000000E+000	0.0000000E+000	-56.6566	0.0000000E+000	0.0000000E+000	0.0000000E+000	-33.3434	0.0000000E+000	0.0000000E+000	0.0000000E+000	33.3434	1.51984	56.6566	-2.22794e-06
6307.74	9.77645	7.59403	12.3793	-37.8389	30.4528	0.334382	-0.00721716	3.32257	1.25033	1	38	0.00489944	0.000395775	0	-2.88886e-05	4.49588	4.80472	82.6504	0.000103439	7.23807e-05	2.22209e-05	0.00011476	8.55796e-05	8.8523e-05	0.342846	0.39699	9.45622	4.25748e-07	3.12805e-07	6.28242e-07	7.81924e-07	3.27883e-07	5.36472e-07	0.0637949	0.0495538	0.0807797	37.8389	1250.33	1609.65	2038.21	-52.1611	0.0000000E+000	0.0000000E+000	0.0000000E+000	52.1611	0.0000000E+000	0.0000000E+000	0.0000000E+000	-52.1611	0.0000000E+000	0.0000000E+000	0.0000000E+000	-37.8389	0.0000000E+000	0.0000000E+000	0.0000000E+000	37.8389	1.28739	52.1611	-1.78725e-06
5011.6	9.95204	9.34585	13.6524	-43.2008	31.2089	0.334432	-0.00696766	3.39801	1.59237	1	38	0.00497793	0.00036462	0	-3.06326e-05	3.3286	2.79672	78.3722	5.26861e-05	9.92406e-05	7.24443e-05	5.80793e-05	6.17705e-05	3.37152e-05	0.549413	0.41081	10.5825	6.01048e-07	9.34626e-07	1.07998e-06	6.32651e-07	7.86731e-07	4.62704e-07	0.0533942	0.0501419	0.0732472	43.2008	1592.37	1695.66	2326.13	-46.7992	0.0000000E+000	0.0000000E+000	0.0000000E+000	46.7992	0.0000000E+000	0.0000000E+000	0.0000000E+000	-46.7992	0.0000000E+000	0.0000000E+000	0.0000000E+000	-43.2008	0.0000000E+000	0.0000000E+000	0.0000000E+000	43.2008	1.06486	46.7992	-1.74402e-06
3981.28	10.4852	11.1861	15.332	-46.8523	31.9519	0.33444	-0.00616703	3.57371	1.90231	1	38	0.00493465	0.000321854	0	-3.17032e-05	3.69964	1.83274	80.3259	1.7409e-05	8.84583e-05	7.70974e-05	0.000109107	7.54317e-05	3.3646e-05	0.50802	0.239205	11.8754	3.43587e-07	4.30131e-07	5.73014e-07	1.10747e-06	5.81116e-07	4.89468e-07	0.0446049	0.0475864	0.0652232	46.8523	1902.31	1783.12	2607.35	-43.1477	0.0000000E+000	0.0000000E+000	0.0000000E+000	43.1477	0.0000000E+000	0.0000000E+000	0.0000000E+000	-43.1477	0.0000000E+000	0.0000000E+000	0.0000000E+000	-46.8523	0.0000000E+000	0.0000000E+000	0.0000000E+000	46.8523	0.937346	43.1477	-1.07061e-06
3163.04	11.1182	13.2224	17.2756	-49.9407	32.6948	0.334457	-0.00685222	3.80545	2.22925	1	38	0.00481761	0.000278868	0	-3.29424e-05	2.9777	3.79284	82.8899	2.38712e-05	8.09131e-05	6.73255e-05	5.25531e-05	4.29989e-05	5.54395e-05	0.76047	0.482389	13.678	6.93282e-07	3.88909e-07	9.95287e-07	2.71323e-07	7.34573e-07	1.38745e-06	0.0372537	0.044304	0.0578851	49.9407	2229.25	1874.5	2912.61	-40.0593	0.0000000E+000	0.0000000E+000	0.0000000E+000	40.0593	0.0000000E+000	0.0000000E+000	0.0000000E+000	-40.0593	0.0000000E+000	0.0000000E+000	0.0000000E+000	-49.9407	0.0000000E+000	0.0000000E+000	0.0000000E+000	49.9407	0.840865	40.0593	-1.23917e-06
2512.41	11.4976	17.0319	20.5495	-55.9782	33.4378	0.334389	-0.00569038	3.71935	2.55501	1	38	0.00483674	0.000235371	0	-3.45108e-05	3.82119	2.70882	83.9657	7.94488e-05	4.46985e-05	4.13745e-05	9.62539e-05	7.18055e-05	4.74968e-05	0.685324	0.309226	16.4346	7.35591e-07	7.60703e-07	4.86266e-07	5.57884e-07	5.67423e-07	6.07866e-07	0.0272274	0.0403332	0.0486631	55.9782	2555.01	1724.79	3082.69	-34.0218	0.0000000E+000	0.0000000E+000	0.0000000E+000	34.0218	0.0000000E+000	0.0000000E+000	0.0000000E+000	-34.0218	0.0000000E+000	0.0000000E+000	0.0000000E+000	-55.9782	0.0000000E+000	0.0000000E+000	0.0000000E+000	55.9782	0.675062	34.0218	-1.56841e-06
1995.64	12.705	20.4991	24.117	-58.2099	34.1809	0.334313	-0.00636254	3.89049	2.81077	1	38	0.0047833	0.000198337	0	-3.58866e-05	4.70509	2.81961	85.8769	8.21036e-05	9.30197e-05	8.25935e-05	5.76908e-05	7.42288e-05	0.000102616	1.09832	0.352281	19.6182	1.14119e-06	8.51303e-07	9.48286e-07	6.36675e-07	5.26836e-07	9.5889e-07	0.0218439	0.0352442	0.0414645	58.2099	2810.77	1742.08	3306.85	-31.7901	0.0000000E+000	0.0000000E+000	0.0000000E+000	31.7901	0.0000000E+000	0.0000000E+000	0.0000000E+000	-31.7901	0.0000000E+000	0.0000000E+000	0.0000000E+000	-58.2099	0.0000000E+000	0.0000000E+000	0.0000000E+000	58.2099	0.619787	31.7901	-1.37578e-06
1584.49	13.6403	25.3005	28.7432	-61.6695	34.925	0.334408	-0.00642957	3.9701	3.07601	1	38	0.00476245	0.00016569	0	-3.73715e-05	2.98093	2.49017	85.2657	4.14182e-05	9.85422e-05	2.45778e-05	3.01105e-05	6.10048e-05	2.85216e-05	1.21698	0.682964	22.7655	7.29611e-07	9.48034e-07	5.86132e-07	1.09148e-06	5.45681e-07	5.29575e-07	0.0165102	0.0306238	0.0347908	61.6695	3076.01	1658.38	3494.58	-28.3305	0.0000000E+000	0.0000000E+000	0.0000000E+000	28.3305	0.0000000E+000	0.0000000E+000	0.0000000E+000	-28.3305	0.0000000E+000	0.0000000E+000	0.0000000E+000	-61.6695	0.0000000E+000	0.0000000E+000	0.0000000E+000	61.6695	0.539131	28.3305	-1.48494e-06
1258.79	14.2236	30.97	34.08	-65.3321	35.9212	0.334283	-0.000931364	4.0825	3.37138	1	39	0.00528834	0.000155174	0	-3.81206e-05	2.6889	2.96763	74.0294	7.52001e-05	5.39687e-05	5.70402e-05	4.10339e-05	4.65673e-05	4.08676e-05	0.709434	0.41955	11.3171	4.99851e-07	4.8462e-07	4.55992e-07	1.77247e-07	5.75417e-07	3.74405e-07	0.0122464	0.0266649	0.0293427	65.3321	3371.38	1548.37	3709.94	-24.6679	0.0000000E+000	0.0000000E+000	0.0000000E+000	24.6679	0.0000000E+000	0.0000000E+000	0.0000000E+000	-24.6679	0.0000000E+000	0.0000000E+000	0.0000000E+000	-65.3321	0.0000000E+000	0.0000000E+000	0.0000000E+000	65.3321	0.45927	24.6679	-7.49118e-07
999.682	16.2907	38.2003	41.5289	-66.904	36.665	0.33442	-0.000528227	4.16765	3.52634	1	39	0.005128	0.00012348	0	-3.83428e-05	3.48262	2.05644	77.0748	6.18655e-05	0.000121917	6.81442e-05	4.48479e-05	6.36777e-05	3.38657e-05	0.860391	0.492381	14.3613	4.60158e-07	5.88279e-07	4.55435e-07	3.69708e-07	3.21192e-07	2.85804e-07	0.00944579	0.0221496	0.0240796	66.904	3526.34	1503.82	3833.61	-23.096	0.0000000E+000	0.0000000E+000	0.0000000E+000	23.096	0.0000000E+000	0.0000000E+000	0.0000000E+000	-23.096	0.0000000E+000	0.0000000E+000	0.0000000E+000	-66.904	0.0000000E+000	0.0000000E+000	0.0000000E+000	66.904	0.426454	23.096	-2.22131e-07
794.239	18.247	46.1585	49.6343	-68.4305	37.4081	0.334302	-0.00033812	4.34127	3.75454	1	39	0.00490424	9.88074e-05	0	-3.83756e-05	4.12776	4.84995	80.4504	0.000127399	5.03675e-05	8.39144e-05	8.50671e-05	4.64008e-05	3.63246e-05	0.903477	0.470914	17.7181	2.36512e-07	6.01298e-07	1.25665e-07	3.24552e-07	3.68363e-07	2.33238e-07	0.00740676	0.0187365	0.0201474	68.4305	3754.54	1484.22	4037.26	-21.5695	0.0000000E+000	0.0000000E+000	0.0000000E+000	21.5695	0.0000000E+000	0.0000000E+000	0.0000000E+000	-21.5695	0.0000000E+000	0.0000000E+000	0.0000000E+000	-68.4305	0.0000000E+000	0.0000000E+000	0.0000000E+000	68.4305	0.395312	21.5695	-3.28107e-08
631.01	19.7038	56.8141	60.1339	-70.8728	38.1507	0.33438	-0.000891854	4.43944	3.9628	1	39	0.00482599	8.02542e-05	0	-3.85251e-05	5.00928	2.01041	80.4453	4.06096e-05	8.0811e-05	0.000109526	0.000121768	0.000111753	8.78745e-05	1.2975	0.809251	21.1943	5.45576e-07	4.35978e-07	3.24384e-07	4.4742e-07	3.3523e-07	2.57885e-07	0.00544894	0.0157115	0.0166296	70.8728	3962.8	1374.35	4194.35	-19.1272	0.0000000E+000	0.0000000E+000	0.0000000E+000	19.1272	0.0000000E+000	0.0000000E+000	0.0000000E+000	-19.1272	0.0000000E+000	0.0000000E+000	0.0000000E+000	-70.8728	0.0000000E+000	0.0000000E+000	0.0000000E+000	70.8728	0.346812	19.1272	-1.49511e-07
501.122	21.9705	68.6037	72.0359	-72.2423	38.8935	0.334396	-0.000681804	4.62944	4.19881	1	39	0.00472189	6.5549e-05	0	-3.8677e-05	2.92813	2.03766	82.3911	6.73883e-05	5.84691e-05	5.9757e-05	5.66792e-05	4.17504e-05	3.3842e-05	1.06665	0.754048	26.2419	2.3641e-07	2.86374e-07	9.86222e-08	5.08764e-07	1.24197e-07	1.81914e-07	0.0042339	0.0132206	0.013882	72.2423	4198.81	1344.67	4408.87	-17.7577	0.0000000E+000	0.0000000E+000	0.0000000E+000	17.7577	0.0000000E+000	0.0000000E+000	0.0000000E+000	-17.7577	0.0000000E+000	0.0000000E+000	0.0000000E+000	-72.2423	0.0000000E+000	0.0000000E+000	0.0000000E+000	72.2423	0.320252	17.7578	-1.51851e-07
398.089	27.8451	82.005	86.6035	-71.2449	39.6389	0.334328	-0.000834263	4.87528	4.37129	1	39	0.00463111	5.34749e-05	0	-3.87842e-05	3.65174	4.49669	84.5431	5.99435e-05	5.67895e-05	3.4749e-05	3.01732e-05	9.57177e-05	8.33946e-05	1.75419	1.43912	34.1434	3.70616e-07	5.44344e-07	2.64721e-07	2.57972e-07	3.16954e-07	4.27122e-07	0.0037126	0.0109338	0.0115469	71.2449	4371.29	1484.29	4616.41	-18.7551	0.0000000E+000	0.0000000E+000	0.0000000E+000	18.7551	0.0000000E+000	0.0000000E+000	0.0000000E+000	-18.7551	0.0000000E+000	0.0000000E+000	0.0000000E+000	-71.2449	0.0000000E+000	0.0000000E+000	0.0000000E+000	71.2449	0.339554	18.7551	-1.07223e-07
316.316	31.2129	100.247	104.993	-72.7054	40.3811	0.334386	-0.000645834	5.01915	4.57556	1	39	0.00461274	4.39336e-05	0	-3.88482e-05	4.29308	1.94752	87.4064	4.12602e-05	0.000150845	3.59704e-05	6.22003e-05	7.49488e-05	3.95273e-05	2.1765	1.19295	41.0644	5.17501e-07	3.63546e-07	4.21805e-07	2.48441e-07	3.28409e-07	3.05976e-07	0.00283146	0.0090938	0.00952441	72.7054	4575.56	1424.65	4792.23	-17.2946	0.0000000E+000	0.0000000E+000	0.0000000E+000	17.2946	0.0000000E+000	0.0000000E+000	0.0000000E+000	-17.2946	0.0000000E+000	0.0000000E+000	0.0000000E+000	-72.7054	0.0000000E+000	0.0000000E+000	0.0000000E+000	72.7054	0.311361	17.2946	-6.40609e-08
251.206	37.6679	123.532	129.148	-73.0423	41.124	0.334363	-0.000514437	5.12872	4.69243	1	39	0.0046351	3.58899e-05	0	-3.89604e-05	3.57293	2.25159	84.1855	6.0271e-05	7.71497e-05	3.89693e-05	4.56242e-05	5.8295e-05	7.41831e-05	2.69697	1.13247	49.2518	3.52111e-07	1.65244e-07	4.39265e-07	4.59035e-07	3.62388e-07	4.64787e-07	0.00225838	0.0074064	0.00774307	73.0423	4692.43	1430.83	4905.73	-16.9577	0.0000000E+000	0.0000000E+000	0.0000000E+000	16.9577	0.0000000E+000	0.0000000E+000	0.0000000E+000	-16.9577	0.0000000E+000	0.0000000E+000	0.0000000E+000	-73.0423	0.0000000E+000	0.0000000E+000	0.0000000E+000	73.0423	0.304923	16.9577	-1.1216e-07
199.553	46.0496	151.66	158.497	-73.1097	41.8694	0.334419	-0.000814694	5.25886	4.81494	1	39	0.00461494	2.91169e-05	0	-3.90423e-05	5.16936	5.93858	85.3836	6.48413e-05	0.000139265	0.000109914	6.2012e-05	2.70373e-05	0.000115308	2.37039	1.50101	62.0138	2.12703e-07	3.86103e-07	2.54558e-07	3.30729e-07	2.39774e-07	9.50275e-08	0.0018331	0.00603712	0.00630928	73.1097	4814.94	1462	5032	-16.8903	0.0000000E+000	0.0000000E+000	0.0000000E+000	16.8903	0.0000000E+000	0.0000000E+000	0.0000000E+000	-16.8903	0.0000000E+000	0.0000000E+000	0.0000000E+000	-73.1097	0.0000000E+000	0.0000000E+000	0.0000000E+000	73.1097	0.303638	16.8903	-8.18967e-08
158.529	49.7692	188.187	194.657	-75.1863	42.6168	0.334379	-0.000478279	5.33483	4.98609	1	39	0.00465532	2.39155e-05	0	-3.9069e-05	4.47562	2.81284	84.8547	9.36725e-05	9.76673e-05	8.89055e-05	3.63924e-05	8.86426e-05	6.62498e-05	3.51196	2.49485	75.7829	1.01221e-07	2.41391e-07	3.25172e-07	1.99586e-07	6.39659e-07	1.88861e-07	0.00131347	0.00496648	0.00513723	75.1863	4986.09	1318.65	5157.52	-14.8137	0.0000000E+000	0.0000000E+000	0.0000000E+000	14.8137	0.0000000E+000	0.0000000E+000	0.0000000E+000	-14.8137	0.0000000E+000	0.0000000E+000	0.0000000E+000	-75.1863	0.0000000E+000	0.0000000E+000	0.0000000E+000	75.1863	0.264466	14.8137	-2.66872e-08
125.927	60.594	228.428	236.328	-75.1436	43.6095	0.334335	-1.32648e-05	5.5329	5.16917	1	40	0.00479092	2.02723e-05	0	-3.90967e-05	4.42664	2.59067	89.486	9.52929e-05	8.28108e-05	2.39208e-05	0.000113574	4.6703e-05	0.000105504	1.23516	0.373104	16.0491	9.73338e-08	1.15433e-07	5.89802e-08	1.52909e-07	3.36934e-08	9.25621e-08	0.00108492	0.00408995	0.0042314	75.1436	5169.17	1371.2	5347.94	-14.8564	0.0000000E+000	0.0000000E+000	0.0000000E+000	14.8564	0.0000000E+000	0.0000000E+000	0.0000000E+000	-14.8564	0.0000000E+000	0.0000000E+000	0.0000000E+000	-75.1436	0.0000000E+000	0.0000000E+000	0.0000000E+000	75.1436	0.265265	14.8564	-2.77417e-08
99.9682	74.7327	276.7	286.615	-74.8859	44.341	0.33429	-1.22405e-05	5.75372	5.36254	1	40	0.00472118	1.64722e-05	0	-3.91146e-05	5.69862	3.14118	91.6566	0.000126677	8.83577e-05	0.000127391	9.48424e-05	8.77695e-05	9.22627e-05	1.02376	0.518105	19.6064	8.9808e-08	3.82766e-08	4.50946e-08	8.64148e-08	6.93694e-08	5.36938e-08	0.000909733	0.00336831	0.003489	74.8859	5362.54	1448.35	5554.69	-15.1141	0.0000000E+000	0.0000000E+000	0.0000000E+000	15.1141	0.0000000E+000	0.0000000E+000	0.0000000E+000	-15.1141	0.0000000E+000	0.0000000E+000	0.0000000E+000	-74.8859	0.0000000E+000	0.0000000E+000	0.0000000E+000	74.8859	0.270086	15.1141	-1.78947e-08