File: Python/Data/GoldElectrode/240319/Carbon/240319-CVEIS_Activation-0p5H2SO4-Ag_AgCl_BLF8-GC_RDE-80cycles_01_CV_C15.mpt
EC-Lab ASCII FILE
Nb header lines : 60

Cyclic Voltammetry

Run on channel : 15 (SN 19485)
User :
Electrode connection : standard
Potential control : Ewe
Ewe ctrl range : min = -2.50 V, max = 2.50 V
Ewe,I filtering : 50 kHz
Safety Limits :
	Do not start on E overload
Channel : Floating
Acquisition started on : 03/19/2024 14:45:18.810
Loaded Setting File :  C:\Data\mathias\GoldElectrode\240313-CVEIS_Activation-0p5H2SO4-Ag_AgCl_BLF8-Au_RDE-80cycles.mps
Saved on :
	File : 240319-CVEIS_Activation-0p5H2SO4-Ag_AgCl_BLF8-GC_RDE-80cycles_01_CV_C15.mpr
	Directory : C:\Data\mathias\GoldElectrode\
	Host : 192.168.0.1
Device : VMP-300 (SN 0826)
Address : USB
EC-Lab for windows v11.52 (software)
Internet server v11.52 (firmware)
Command interpretor v11.52 (firmware)
Electrode material :
Initial state :
Electrolyte :
Comments :
Cable : special
Electrode surface area : 0.001 cm²
Characteristic mass : 0.001 g
Equivalent Weight : 0.000 g/eq.
Density : 0.000 g/cm3
Volume (V) : 0.001 cm³
Record EIS quality indicators
Cycle Definition : Charge/Discharge alternance
Ei (V)              0.000
vs.                 Eoc
dE/dt               200.000
dE/dt unit          mV/s
E1 (V)              1.500
vs.                 Ref
Step percent        50
N                   10
E range min (V)     -2.500
E range max (V)     2.500
I Range             Auto
I Range min         Unset
I Range max         Unset
I Range init        Unset
Bandwidth           8
E2 (V)              -0.300
vs.                 Ref
nc cycles           0
Reverse Scan        1
Ef (V)              0.000
vs.                 Eoc

mode	ox/red	error	control changes	counter inc.	time/s	control/V	Ewe/V	<I>/mA	cycle number	(Q-Qo)/C	I Range	step time/s	P/W
2	1	0	0	0	0.000000000000000E+000	0.335495	0.334569	0.000364533	1	0.0000000E+000	43	0.000000000000000E+000	1.21962e-07
2	1	0	1	0	0.0578	0.347039	0.346822	0.00139112	1	6.77603e-08	42	0.055	4.82472e-07
2	1	0	1	0	0.0878	0.353036	0.352784	0.00151568	1	1.11993e-07	42	0.085	5.34709e-07
2	1	0	1	0	0.1178	0.359033	0.358778	0.00162814	1	1.59736e-07	42	0.115	5.8414e-07
2	1	0	1	0	0.1478	0.36503	0.364771	0.00171094	1	2.10638e-07	42	0.145	6.24102e-07
2	1	0	1	0	0.1778	0.371027	0.370786	0.00180461	1	2.6421e-07	42	0.175	6.69124e-07
2	1	0	1	0	0.2077	0.377024	0.376796	0.00188963	1	3.20297e-07	42	0.2049	7.12005e-07
2	1	0	1	0	0.2377	0.383021	0.382786	0.00196218	1	3.78749e-07	42	0.2349	7.51094e-07
2	1	0	1	0	0.2677	0.389018	0.388752	0.002017	1	4.3954e-07	42	0.2649	7.84115e-07
2	1	0	1	0	0.2977	0.395015	0.394753	0.00211707	1	5.02359e-07	42	0.2949	8.35722e-07
2	1	0	1	0	0.3277	0.401012	0.40076	0.00218403	1	5.67308e-07	42	0.3249	8.75271e-07
2	1	0	1	0	0.3577	0.407009	0.40673	0.00224145	1	6.34031e-07	42	0.3549	9.11667e-07
2	1	0	1	0	0.3877	0.413006	0.412769	0.00228413	1	7.02652e-07	42	0.3849	9.42816e-07
2	1	0	1	0	0.4176	0.419003	0.418739	0.00234667	1	7.72709e-07	42	0.4148	9.82642e-07
2	1	0	1	0	0.4476	0.425	0.424758	0.00239455	1	8.44564e-07	42	0.4448	1.0171e-06
2	1	0	1	0	0.4776	0.430997	0.43074	0.00244295	1	9.17751e-07	42	0.4748	1.05228e-06
2	1	0	1	0	0.5076	0.436994	0.43674	0.00246388	1	9.92372e-07	42	0.5048	1.07607e-06
2	1	0	1	0	0.5376	0.442991	0.442744	0.00252525	1	1.06807e-06	42	0.5348	1.11804e-06
2	1	0	1	0	0.5676	0.448988	0.448763	0.00256363	1	1.14501e-06	42	0.5648	1.15046e-06
2	1	0	1	0	0.5975	0.454985	0.454718	0.00259886	1	1.22265e-06	42	0.5947	1.18175e-06
2	1	0	1	0	0.6275	0.460982	0.460767	0.00261323	1	1.30152e-06	42	0.6247	1.20409e-06
2	1	0	1	0	0.6575	0.466979	0.466757	0.00264622	1	1.38109e-06	42	0.6547	1.23514e-06
2	1	0	1	0	0.6875	0.472976	0.47273	0.00267569	1	1.46156e-06	42	0.6847	1.26488e-06
2	1	0	1	0	0.7175	0.478973	0.478728	0.00270398	1	1.54257e-06	42	0.7147	1.29447e-06
2	1	0	1	0	0.7475	0.48497	0.484737	0.00271883	1	1.62433e-06	42	0.7447	1.31791e-06
2	1	0	1	0	0.7775	0.490966	0.490736	0.00273509	1	1.70653e-06	42	0.7747	1.34221e-06
2	1	0	1	0	0.8074	0.496963	0.496721	0.00276324	1	1.78921e-06	42	0.8046	1.37256e-06
2	1	0	1	0	0.8374	0.502961	0.502711	0.00277446	1	1.87257e-06	42	0.8346	1.39475e-06
2	1	0	1	0	0.8674	0.508957	0.508726	0.00276594	1	1.95643e-06	42	0.8646	1.4071e-06
2	1	0	1	0	0.8974	0.514954	0.514716	0.00280635	1	2.04073e-06	42	0.8946	1.44447e-06
2	1	0	1	0	0.9274	0.520951	0.520733	0.00281634	1	2.12561e-06	42	0.9246	1.46656e-06
2	1	0	1	0	0.9574	0.526948	0.526702	0.00285089	1	2.21092e-06	42	0.9546	1.50157e-06
2	1	0	1	0	0.9874	0.532964	0.532711	0.00287245	1	2.29688e-06	42	0.9846	1.53018e-06
2	1	0	1	0	1.0173	0.538942	0.538697	0.00286848	1	2.38298e-06	42	1.0145	1.54524e-06
2	1	0	1	0	1.0473	0.544939	0.544683	0.00289646	1	2.46995e-06	42	1.0445	1.57765e-06
2	1	0	1	0	1.0773	0.550936	0.550699	0.00292263	1	2.55746e-06	42	1.0745	1.60949e-06
2	1	0	1	0	1.1073	0.556933	0.556697	0.00293344	1	2.64563e-06	42	1.1045	1.63304e-06
2	1	0	1	0	1.1373	0.56293	0.56269	0.00295892	1	2.73432e-06	42	1.1345	1.66496e-06
2	1	0	1	0	1.1673	0.568927	0.568694	0.00298292	1	2.82377e-06	42	1.1645	1.69637e-06
2	1	0	1	0	1.1972	0.574924	0.574674	0.00301296	1	2.91369e-06	42	1.1944	1.73147e-06
2	1	0	1	0	1.2272	0.580921	0.580689	0.00302684	1	3.00472e-06	42	1.2244	1.75765e-06
2	1	0	1	0	1.2572	0.586918	0.586692	0.00305394	1	3.09642e-06	42	1.2544	1.79172e-06
2	1	0	1	0	1.2872	0.592915	0.592667	0.00309241	1	3.18912e-06	42	1.2844	1.83277e-06
2	1	0	1	0	1.3172	0.598912	0.59866	0.00313196	1	3.28264e-06	42	1.3144	1.87498e-06
2	1	0	1	0	1.3472	0.604909	0.604678	0.00316458	1	3.37733e-06	42	1.3444	1.91355e-06
2	1	0	1	0	1.3772	0.610906	0.610668	0.00320144	1	3.47293e-06	42	1.3744	1.95502e-06
2	1	0	1	0	1.4071	0.616903	0.616668	0.00325281	1	3.56963e-06	42	1.4043	2.0059e-06
2	1	0	1	0	1.4371	0.6229	0.622677	0.00328663	1	3.66762e-06	42	1.4343	2.04651e-06
2	1	0	1	0	1.4671	0.628897	0.628666	0.00331453	1	3.76701e-06	42	1.4643	2.08374e-06
2	1	0	1	0	1.4971	0.634894	0.634655	0.0033689	1	3.86758e-06	42	1.4943	2.13809e-06
2	1	0	1	0	1.5271	0.640891	0.640656	0.0034269	1	3.9697e-06	42	1.5243	2.19546e-06
2	1	0	1	0	1.5571	0.646888	0.646677	0.00347479	1	4.07319e-06	42	1.5543	2.24707e-06
2	1	0	1	0	1.587	0.652885	0.65264	0.00351747	1	4.17811e-06	42	1.5842	2.29564e-06
2	1	0	1	0	1.617	0.658882	0.658637	0.00357661	1	4.28484e-06	42	1.6142	2.35569e-06
2	1	0	1	0	1.647	0.664879	0.664638	0.00364507	1	4.3934e-06	42	1.6442	2.42265e-06
2	1	0	1	0	1.677	0.670876	0.670621	0.00370192	1	4.5037e-06	42	1.6742	2.48258e-06
2	1	0	1	0	1.707	0.676873	0.676612	0.0037782	1	4.61604e-06	42	1.7042	2.55638e-06
2	1	0	1	0	1.737	0.68287	0.682625	0.00384425	1	4.73032e-06	42	1.7342	2.62418e-06
2	1	0	1	0	1.767	0.688867	0.688603	0.00393256	1	4.84681e-06	42	1.7642	2.70797e-06
2	1	0	1	0	1.7969	0.694863	0.694613	0.0040015	1	4.96517e-06	42	1.7941	2.77949e-06
2	1	0	1	0	1.8269	0.70086	0.700618	0.00406785	1	5.08627e-06	42	1.8241	2.85001e-06
2	1	0	1	0	1.8569	0.706857	0.706632	0.00414775	1	5.20975e-06	42	1.8541	2.93093e-06
2	1	0	1	0	1.8869	0.712854	0.712612	0.00424981	1	5.33587e-06	42	1.8841	3.02846e-06
2	1	0	1	0	1.9169	0.718851	0.71858	0.00434808	1	5.4646e-06	42	1.9141	3.12444e-06
2	1	0	1	0	1.9469	0.724848	0.724606	0.00443037	1	5.59621e-06	42	1.9441	3.21027e-06
2	1	0	1	0	1.9768	0.730841	0.730607	0.00455014	1	5.7303e-06	42	1.974	3.32437e-06
2	1	0	1	0	2.0068	0.736842	0.736582	0.0046467	1	5.86802e-06	42	2.004	3.42268e-06
2	1	0	1	0	2.0368	0.742839	0.742605	0.00476167	1	6.00882e-06	42	2.034	3.53604e-06
2	1	0	1	0	2.0668	0.748836	0.748607	0.0048573	1	6.15307e-06	42	2.064	3.63621e-06
2	1	0	1	0	2.0968	0.754833	0.754606	0.00498239	1	6.30075e-06	42	2.094	3.75974e-06
2	1	0	1	0	2.1268	0.76083	0.760571	0.00513485	1	6.45219e-06	42	2.124	3.90541e-06
2	1	0	1	0	2.1568	0.766827	0.766573	0.00524764	1	6.60733e-06	42	2.154	4.0227e-06
2	1	0	1	0	2.1867	0.772824	0.772583	0.00539109	1	6.76613e-06	42	2.1839	4.16507e-06
2	1	0	1	0	2.2167	0.778821	0.778574	0.00553373	1	6.92946e-06	42	2.2139	4.30842e-06
2	1	0	1	0	2.2467	0.784818	0.784566	0.00567883	1	7.09717e-06	42	2.2439	4.45542e-06
2	1	0	1	0	2.2767	0.790815	0.790562	0.00580433	1	7.2691e-06	42	2.2739	4.58868e-06
2	1	0	1	0	2.3067	0.796812	0.796565	0.00596308	1	7.44561e-06	42	2.3039	4.74998e-06
2	1	0	1	0	2.3367	0.802809	0.802553	0.00611701	1	7.62659e-06	42	2.3339	4.90922e-06
2	1	0	1	0	2.3667	0.808806	0.808578	0.00628253	1	7.81227e-06	42	2.3639	5.07991e-06
2	1	0	1	0	2.3966	0.814803	0.814546	0.00643562	1	8.00196e-06	42	2.3938	5.24211e-06
2	1	0	1	0	2.4266	0.8208	0.820554	0.00659782	1	8.19694e-06	42	2.4238	5.41387e-06
2	1	0	1	0	2.4566	0.826797	0.82656	0.00672902	1	8.39634e-06	42	2.4538	5.56194e-06
2	1	0	1	0	2.4866	0.832794	0.832575	0.00689163	1	8.60049e-06	42	2.4838	5.7378e-06
2	1	0	1	0	2.5166	0.838791	0.838545	0.00704328	1	8.80909e-06	42	2.5138	5.90611e-06
2	1	0	1	0	2.5466	0.844788	0.844554	0.00721032	1	9.02245e-06	42	2.5438	6.08951e-06
2	1	0	1	0	2.5765	0.850785	0.850547	0.00735013	1	9.23978e-06	42	2.5737	6.25163e-06
2	1	0	1	0	2.6065	0.856782	0.856559	0.00754067	1	9.4627e-06	42	2.6037	6.45903e-06
2	1	0	1	0	2.6365	0.862779	0.862518	0.00769522	1	9.69042e-06	42	2.6337	6.63727e-06
2	1	0	1	0	2.6665	0.868776	0.86854	0.00786791	1	9.92322e-06	42	2.6637	6.8336e-06
2	1	0	1	0	2.6965	0.874773	0.874539	0.00802587	1	1.0161e-05	42	2.6937	7.01893e-06
2	1	0	1	0	2.7265	0.880769	0.880525	0.00821756	1	1.04041e-05	42	2.7237	7.23577e-06
2	1	0	1	0	2.7565	0.886766	0.886518	0.00838037	1	1.06524e-05	42	2.7537	7.42935e-06
2	1	0	1	0	2.7864	0.892764	0.892492	0.00856027	1	1.09054e-05	42	2.7836	7.63998e-06
2	1	0	1	0	2.8164	0.898761	0.898493	0.00874696	1	1.11644e-05	42	2.8136	7.85908e-06
2	1	0	1	0	2.8464	0.904758	0.9045	0.00894432	1	1.14288e-05	42	2.8436	8.09014e-06
2	1	0	1	0	2.8764	0.910755	0.910503	0.0091006	1	1.16985e-05	42	2.8736	8.28613e-06
2	1	0	1	0	2.9064	0.916751	0.916488	0.00928191	1	1.19737e-05	42	2.9036	8.50676e-06
2	1	0	1	0	2.9364	0.922748	0.922488	0.00946262	1	1.22545e-05	42	2.9336	8.72916e-06
2	1	0	1	0	2.9664	0.928754	0.928485	0.00967248	1	1.25408e-05	42	2.9636	8.98076e-06
2	1	0	1	0	2.9963	0.934742	0.934516	0.00983497	1	1.28317e-05	42	2.9935	9.19093e-06
2	1	0	1	0	3.0263	0.940739	0.940488	0.0100218	1	1.31288e-05	42	3.0235	9.42539e-06
2	1	0	1	0	3.0563	0.946736	0.946508	0.0102	1	1.34313e-05	42	3.0535	9.65433e-06
2	1	0	1	0	3.0863	0.952733	0.952487	0.0103933	1	1.37394e-05	42	3.0835	9.8995e-06
2	1	0	1	0	3.1163	0.95873	0.958474	0.0105715	1	1.40528e-05	42	3.1135	1.01325e-05
2	1	0	1	0	3.1463	0.964727	0.964479	0.0107582	1	1.4372e-05	42	3.1435	1.0376e-05
2	1	0	1	0	3.1762	0.970724	0.97047	0.0109545	1	1.46957e-05	42	3.1734	1.06311e-05
2	1	0	1	0	3.2362	0.982718	0.982477	0.0113068	1	1.53606e-05	41	3.2334	1.11087e-05
2	1	0	1	0	3.2662	0.988715	0.988486	0.0115109	1	1.57028e-05	41	3.2634	1.13784e-05
2	1	0	1	0	3.2962	0.994712	0.994468	0.0117086	1	1.6051e-05	41	3.2934	1.16438e-05
2	1	0	1	0	3.3262	1.00071	1.00046	0.0119253	1	1.64054e-05	41	3.3234	1.19308e-05
2	1	0	1	0	3.3562	1.00671	1.00646	0.012132	1	1.67661e-05	41	3.3534	1.22104e-05
2	1	0	1	0	3.3861	1.0127	1.01248	0.012361	1	1.71323e-05	41	3.3833	1.25152e-05
2	1	0	1	0	3.4161	1.0187	1.01846	0.0125708	1	1.75061e-05	41	3.4133	1.28029e-05
2	1	0	1	0	3.4461	1.0247	1.02445	0.0128144	1	1.7887e-05	41	3.4433	1.31278e-05
2	1	0	1	0	3.4761	1.03069	1.03046	0.0130495	1	1.82748e-05	41	3.4733	1.3447e-05
2	1	0	1	0	3.5061	1.03669	1.03647	0.0133032	1	1.86698e-05	41	3.5033	1.37883e-05
2	1	0	1	0	3.5361	1.04269	1.04246	0.0135534	1	1.90723e-05	41	3.5333	1.41289e-05
2	1	0	1	0	3.566	1.04868	1.04843	0.0138131	1	1.94813e-05	41	3.5632	1.44821e-05
2	1	0	1	0	3.596	1.05468	1.05444	0.014076	1	1.98995e-05	41	3.5932	1.48424e-05
2	1	0	1	0	3.626	1.06068	1.06043	0.0143697	1	2.03258e-05	41	3.6232	1.52381e-05
2	1	0	1	0	3.656	1.06668	1.06645	0.014631	1	2.07605e-05	41	3.6532	1.56032e-05
2	1	0	1	0	3.686	1.07267	1.07244	0.014944	1	2.12038e-05	41	3.6832	1.60266e-05
2	1	0	1	0	3.716	1.07867	1.07844	0.0152244	1	2.1656e-05	41	3.7132	1.64185e-05
2	1	0	1	0	3.746	1.08467	1.08443	0.0155619	1	2.21175e-05	41	3.7432	1.68758e-05
2	1	0	1	0	3.7759	1.09066	1.09045	0.0158796	1	2.25875e-05	41	3.7731	1.73159e-05
2	1	0	1	0	3.8059	1.09666	1.09644	0.0162405	1	2.30691e-05	41	3.8031	1.78067e-05
2	1	0	1	0	3.8359	1.10266	1.10243	0.0165995	1	2.35613e-05	41	3.8331	1.82998e-05
2	1	0	1	0	3.8659	1.10865	1.10841	0.0169845	1	2.40648e-05	41	3.8631	1.88259e-05
2	1	0	1	0	3.8959	1.11465	1.11442	0.0173961	1	2.45802e-05	41	3.8931	1.93865e-05
2	1	0	1	0	3.9259	1.12065	1.1204	0.0178472	1	2.51084e-05	41	3.9231	1.99961e-05
2	1	0	1	0	3.9558	1.12663	1.12641	0.0183267	1	2.56484e-05	41	3.953	2.06434e-05
2	1	0	1	0	3.9858	1.13264	1.13241	0.0188261	1	2.62051e-05	41	3.983	2.13188e-05
2	1	0	1	0	4.0158	1.13864	1.13842	0.0193571	1	2.67775e-05	41	4.013	2.20365e-05
2	1	0	1	0	4.0458	1.14464	1.14441	0.0199461	1	2.73668e-05	41	4.043	2.28266e-05
2	1	0	1	0	4.0758	1.15063	1.15042	0.0205376	1	2.79737e-05	41	4.073	2.36268e-05
2	1	0	1	0	4.1058	1.15663	1.15639	0.0211394	1	2.85986e-05	41	4.103	2.44454e-05
2	1	0	1	0	4.1358	1.16263	1.16239	0.0216978	1	2.92408e-05	41	4.133	2.52214e-05
2	1	0	1	0	4.1657	1.16862	1.16837	0.0222182	1	2.98971e-05	41	4.1629	2.59591e-05
2	1	0	1	0	4.1957	1.17462	1.17437	0.0226389	1	3.05696e-05	41	4.1929	2.65865e-05
2	1	0	1	0	4.2257	1.18062	1.18037	0.0230421	1	3.12545e-05	41	4.2229	2.71983e-05
2	1	0	1	0	4.2557	1.18662	1.18637	0.0233981	1	3.19508e-05	41	4.2529	2.77588e-05
2	1	0	1	0	4.2857	1.19261	1.19238	0.0238382	1	3.26591e-05	41	4.2829	2.84241e-05
2	1	0	1	0	4.3157	1.19861	1.19837	0.0242866	1	3.33805e-05	41	4.3129	2.91042e-05
2	1	0	1	0	4.3457	1.20461	1.20435	0.0248152	1	3.41167e-05	41	4.3429	2.98862e-05
2	1	0	1	0	4.3756	1.2106	1.21034	0.0253313	1	3.48663e-05	41	4.3728	3.06596e-05
2	1	0	1	0	4.4056	1.2166	1.21636	0.0258803	1	3.56343e-05	41	4.4028	3.14797e-05
2	1	0	1	0	4.4356	1.2226	1.22234	0.0263621	1	3.64176e-05	41	4.4328	3.22234e-05
2	1	0	1	0	4.4656	1.22859	1.22834	0.0268652	1	3.72159e-05	41	4.4628	3.29997e-05
2	1	0	1	0	4.4956	1.23459	1.23434	0.027324	1	3.80285e-05	41	4.4928	3.37273e-05
2	1	0	1	0	4.5256	1.24059	1.24036	0.0278148	1	3.88553e-05	41	4.5228	3.45003e-05
2	1	0	1	0	4.5555	1.24658	1.24633	0.0283319	1	3.96942e-05	41	4.5527	3.5311e-05
2	1	0	1	0	4.5855	1.25258	1.25233	0.0288846	1	4.0552e-05	41	4.5827	3.61732e-05
2	1	0	1	0	4.6155	1.25858	1.25835	0.0294613	1	4.14266e-05	41	4.6127	3.70726e-05
2	1	0	1	0	4.6455	1.26458	1.26433	0.0300929	1	4.23191e-05	41	4.6427	3.80474e-05
2	1	0	1	0	4.6755	1.27057	1.27035	0.0306875	1	4.32304e-05	41	4.6727	3.89838e-05
2	1	0	1	0	4.7055	1.27657	1.27632	0.0313694	1	4.41609e-05	41	4.7027	4.00373e-05
2	1	0	1	0	4.7355	1.28257	1.28232	0.0320103	1	4.51113e-05	41	4.7327	4.10476e-05
2	1	0	1	0	4.7654	1.28856	1.28833	0.0327496	1	4.60793e-05	41	4.7626	4.21922e-05
2	1	0	1	0	4.7954	1.29456	1.29434	0.033423	1	4.70713e-05	41	4.7926	4.32607e-05
2	1	0	1	0	4.8254	1.30056	1.30031	0.0341643	1	4.80845e-05	41	4.8226	4.44243e-05
2	1	0	1	0	4.8554	1.30655	1.3063	0.0348521	1	4.91192e-05	41	4.8526	4.55274e-05
2	1	0	1	0	4.8854	1.31255	1.31231	0.0355969	1	5.01757e-05	41	4.8826	4.67142e-05
2	1	0	1	0	4.9154	1.31855	1.31831	0.036327	1	5.12545e-05	41	4.9126	4.78901e-05
2	1	0	1	0	4.9454	1.32455	1.32428	0.0371126	1	5.23559e-05	41	4.9426	4.91474e-05
2	1	0	1	0	4.9753	1.33054	1.33029	0.0379044	1	5.34774e-05	41	4.9725	5.0424e-05
2	1	0	1	0	5.0053	1.33654	1.33629	0.0387507	1	5.46268e-05	41	5.0025	5.17821e-05
2	1	0	1	0	5.0353	1.34254	1.3423	0.039606	1	5.58013e-05	41	5.0325	5.31632e-05
2	1	0	1	0	5.0653	1.34853	1.34829	0.0405005	1	5.70021e-05	41	5.0625	5.46065e-05
2	1	0	1	0	5.0953	1.35453	1.35427	0.0413988	1	5.82301e-05	41	5.0925	5.60654e-05
2	1	0	1	0	5.1253	1.36053	1.36028	0.0423594	1	5.94862e-05	41	5.1225	5.76208e-05
2	1	0	1	0	5.1552	1.36652	1.36625	0.0433235	1	6.07669e-05	41	5.1524	5.91906e-05
2	1	0	1	0	5.1852	1.37252	1.37226	0.0443397	1	6.20816e-05	41	5.1824	6.08454e-05
2	1	0	1	0	5.2152	1.37852	1.37828	0.0453146	1	6.3426e-05	41	5.2124	6.24562e-05
2	1	0	1	0	5.2452	1.38452	1.38427	0.0463683	1	6.48008e-05	41	5.2424	6.41864e-05
2	1	0	1	0	5.2752	1.39051	1.39027	0.0474084	1	6.62067e-05	41	5.2724	6.59102e-05
2	1	0	1	0	5.3052	1.39651	1.39625	0.0484742	1	6.76444e-05	41	5.3024	6.76821e-05
2	1	0	1	0	5.3352	1.40251	1.40225	0.0495744	1	6.91148e-05	41	5.3324	6.95157e-05
2	1	0	1	0	5.3651	1.4085	1.40826	0.0507268	1	7.06145e-05	41	5.3623	7.14364e-05
2	1	0	1	0	5.3951	1.4145	1.41425	0.0519557	1	7.21542e-05	41	5.3923	7.34783e-05
2	1	0	1	0	5.4251	1.4205	1.42027	0.0532068	1	7.37313e-05	41	5.4223	7.55678e-05
2	1	0	1	0	5.4551	1.42649	1.42623	0.0545662	1	7.53473e-05	41	5.4523	7.78242e-05
2	1	0	1	0	5.4851	1.43249	1.43225	0.0559231	1	7.70041e-05	41	5.4823	8.00961e-05
2	1	0	1	0	5.5151	1.43849	1.43824	0.0572841	1	7.87017e-05	41	5.5123	8.23883e-05
2	1	0	1	0	5.545	1.44448	1.44424	0.0587715	1	8.04356e-05	41	5.5422	8.48804e-05
2	1	0	1	0	5.575	1.45048	1.45024	0.0601075	1	8.22181e-05	41	5.5722	8.71703e-05
2	1	0	1	0	5.605	1.45648	1.45622	0.0615315	1	8.40427e-05	41	5.6022	8.96032e-05
2	1	0	1	0	5.635	1.46248	1.46223	0.0629848	1	8.59103e-05	41	5.6322	9.2098e-05
2	1	0	1	0	5.665	1.46847	1.46822	0.0644291	1	8.7821e-05	41	5.6622	9.45962e-05
2	1	0	1	0	5.695	1.47447	1.47421	0.0658699	1	8.97752e-05	41	5.6922	9.7106e-05
2	1	0	1	0	5.725	1.48047	1.4802	0.0673493	1	9.17731e-05	41	5.7222	9.96903e-05
2	1	0	1	0	5.7549	1.48646	1.48622	0.0688647	1	9.38096e-05	41	5.7521	0.000102348
2	1	0	1	0	5.7849	1.49246	1.49219	0.0704205	1	9.58985e-05	41	5.7821	0.000105081
2	1	0	1	0	5.8149	1.49846	1.49821	0.0719654	1	9.80341e-05	41	5.8121	0.00010782
2	1	0	1	0	5.8359	1.49736	1.49709	0.0625147	1	9.94635e-05	41	5.8331	9.35901e-05
2	1	0	1	0	5.8659	1.49136	1.49108	0.0513362	1	0.000101159	41	5.8631	7.65463e-05
2	1	0	1	0	5.8959	1.48536	1.48508	0.043031	1	0.000102567	41	5.8931	6.39044e-05
2	1	0	1	0	5.9258	1.47937	1.47907	0.0365958	1	0.000103753	41	5.923	5.41279e-05
2	1	0	1	0	5.9558	1.47337	1.47308	0.0314107	1	0.000104769	41	5.953	4.62707e-05
2	1	0	1	0	5.9858	1.46737	1.4671	0.0271978	1	0.000105645	41	5.983	3.9902e-05
2	1	0	1	0	6.0158	1.46138	1.46108	0.0236802	1	0.000106405	41	6.013	3.45987e-05
2	1	0	1	0	6.0458	1.45538	1.45509	0.020744	1	0.000107069	41	6.043	3.01845e-05
2	1	0	1	0	6.0758	1.44938	1.4491	0.0182071	1	0.000107652	41	6.073	2.63839e-05
2	1	0	1	0	6.1057	1.44339	1.44309	0.0160247	1	0.000108162	41	6.1029	2.31251e-05
2	1	0	1	0	6.1357	1.43739	1.43709	0.0142036	1	0.000108615	41	6.1329	2.04119e-05
2	1	0	1	0	6.1657	1.43139	1.43109	0.012588	1	0.000109016	41	6.1629	1.80146e-05
2	1	0	1	0	6.1957	1.42539	1.4251	0.0111602	1	0.000109371	41	6.1929	1.59044e-05
2	1	0	1	0	6.2257	1.4194	1.41911	0.00993308	1	0.000109687	41	6.2229	1.40961e-05
2	1	0	1	0	6.2557	1.4134	1.41312	0.00885629	1	0.000109968	41	6.2529	1.2515e-05
2	1	0	1	0	6.2857	1.4074	1.4071	0.00787385	1	0.000110218	41	6.2829	1.10793e-05
2	1	0	1	0	6.3156	1.40141	1.40111	0.00700915	1	0.000110439	41	6.3128	9.82057e-06
2	1	0	1	0	6.3456	1.39541	1.39513	0.00624488	1	0.000110637	41	6.3428	8.71241e-06
2	1	0	1	0	6.3756	1.38941	1.38911	0.00554248	1	0.000110814	41	6.3728	7.69914e-06
2	1	0	1	0	6.4056	1.38342	1.38313	0.00493593	1	0.00011097	41	6.4028	6.82704e-06
2	1	0	1	0	6.4356	1.37742	1.3771	0.00436576	1	0.000111109	41	6.4328	6.0121e-06
2	1	0	1	0	6.4656	1.37142	1.37114	0.0038698	1	0.000111232	41	6.4628	5.30604e-06
2	1	0	1	0	6.4956	1.36542	1.36513	0.00340141	1	0.00011134	41	6.4928	4.64336e-06
2	1	0	1	0	6.5555	1.35343	1.35322	0.00271674	1	0.000111527	42	6.5527	3.67634e-06
2	1	0	1	0	6.5855	1.34743	1.34713	0.0022343	1	0.000111599	42	6.5827	3.00989e-06
2	1	0	1	0	6.6155	1.34144	1.34115	0.00186374	1	0.000111661	42	6.6127	2.49956e-06
2	1	0	1	0	6.6455	1.33544	1.33514	0.00160425	1	0.000111714	42	6.6427	2.1419e-06
2	1	0	1	0	6.6755	1.32944	1.32915	0.00130967	1	0.000111758	42	6.6727	1.74075e-06
2	1	0	1	0	6.7054	1.32345	1.32315	0.00109544	1	0.000111794	42	6.7026	1.44943e-06
2	1	0	1	0	6.7354	1.31745	1.31716	0.000822609	1	0.000111823	42	6.7326	1.08351e-06
2	1	0	1	0	6.7654	1.31145	1.31117	0.000631712	1	0.000111846	42	6.7626	8.28284e-07
2	1	0	1	0	6.7954	1.30546	1.30517	0.000408547	1	0.000111862	42	6.7926	5.33224e-07
2	1	0	1	0	6.8254	1.29946	1.29914	0.000234709	1	0.000111872	42	6.8226	3.04921e-07
2	1	0	1	0	6.8554	1.29346	1.29317	5.10162e-05	1	0.000111877	42	6.8526	6.59726e-08
2	0	0	1	0	6.8854	1.28746	1.28718	-8.95925e-05	1	0.000111877	42	0.01	-1.15321e-07
2	0	0	1	0	6.9153	1.28147	1.28119	-0.000257946	1	0.000111872	42	0.0399	-3.30477e-07
2	0	0	1	0	6.9453	1.27547	1.27517	-0.000389466	1	0.000111863	42	0.0699	-4.96637e-07
2	0	0	1	0	6.9753	1.26947	1.26922	-0.000539906	1	0.00011185	42	0.0999	-6.85261e-07
2	0	0	1	0	7.0053	1.26348	1.26319	-0.000640595	1	0.000111833	42	0.1299	-8.09195e-07
2	0	0	1	0	7.0353	1.25748	1.25718	-0.000766008	1	0.000111812	42	0.1599	-9.6301e-07
2	0	0	1	0	7.0653	1.25148	1.25119	-0.000878481	1	0.000111788	42	0.1899	-1.09914e-06
2	0	0	1	0	7.0952	1.24549	1.24523	-0.00103924	1	0.00011176	42	0.2198	-1.29409e-06
2	0	0	1	0	7.1252	1.23949	1.23921	-0.00109066	1	0.000111729	42	0.2498	-1.35156e-06
2	0	0	1	0	7.1552	1.23349	1.23323	-0.00119098	1	0.000111696	42	0.2798	-1.46875e-06
2	0	0	1	0	7.1852	1.22749	1.2272	-0.00126099	1	0.00011166	42	0.3098	-1.54748e-06
2	0	0	1	0	7.2152	1.2215	1.2212	-0.00137524	1	0.000111621	42	0.3398	-1.67945e-06
2	0	0	1	0	7.2452	1.2155	1.21521	-0.00143848	1	0.000111579	42	0.3698	-1.74805e-06
2	0	0	1	0	7.2752	1.2095	1.20918	-0.00151466	1	0.000111536	42	0.3998	-1.8315e-06
2	0	0	1	0	7.3051	1.20351	1.20321	-0.00157937	1	0.00011149	42	0.4297	-1.90032e-06
2	0	0	1	0	7.3351	1.19751	1.19721	-0.00167365	1	0.000111441	42	0.4597	-2.0037e-06
2	0	0	1	0	7.3651	1.19151	1.19122	-0.0017286	1	0.000111391	42	0.4897	-2.05916e-06
2	0	0	1	0	7.3951	1.18552	1.18521	-0.00179909	1	0.000111339	42	0.5197	-2.1323e-06
2	0	0	1	0	7.4251	1.17952	1.17923	-0.00183745	1	0.000111285	42	0.5497	-2.16678e-06
2	0	0	1	0	7.4551	1.17352	1.17323	-0.00193009	1	0.000111229	42	0.5797	-2.26444e-06
2	0	0	1	0	7.4851	1.16752	1.16721	-0.00195634	1	0.000111172	42	0.6097	-2.28346e-06
2	0	0	1	0	7.515	1.16153	1.16125	-0.0020397	1	0.000111113	42	0.6396	-2.3686e-06
2	0	0	1	0	7.545	1.15553	1.15526	-0.00205812	1	0.000111052	42	0.6696	-2.37766e-06
2	0	0	1	0	7.575	1.14953	1.14924	-0.00214709	1	0.000110989	42	0.6996	-2.46751e-06
2	0	0	1	0	7.605	1.14354	1.14325	-0.002174	1	0.000110926	42	0.7296	-2.48542e-06
2	0	0	1	0	7.635	1.13754	1.13724	-0.00224117	1	0.00011086	42	0.7596	-2.54874e-06
2	0	0	1	0	7.665	1.13154	1.13124	-0.00225661	1	0.000110794	42	0.7896	-2.55277e-06
2	0	0	1	0	7.6949	1.12555	1.12525	-0.00231267	1	0.000110726	42	0.8195	-2.60232e-06
2	0	0	1	0	7.7249	1.11955	1.11926	-0.0023443	1	0.000110657	42	0.8495	-2.6239e-06
2	0	0	1	0	7.7549	1.11355	1.11328	-0.00239513	1	0.000110586	42	0.8795	-2.66646e-06
2	0	0	1	0	7.7849	1.10756	1.10726	-0.00241788	1	0.000110514	42	0.9095	-2.67721e-06
2	0	0	1	0	7.8149	1.10156	1.10126	-0.00248434	1	0.000110441	42	0.9395	-2.73589e-06
2	0	0	1	0	7.8449	1.09556	1.09529	-0.00250923	1	0.000110367	42	0.9695	-2.74832e-06
2	0	0	1	0	7.8749	1.08956	1.08928	-0.00256059	1	0.000110292	42	0.9995	-2.78921e-06
2	0	0	1	0	7.9048	1.08357	1.08329	-0.0025679	1	0.000110216	42	1.0294	-2.78176e-06
2	0	0	1	0	7.9348	1.07757	1.07728	-0.0026313	1	0.000110139	42	1.0594	-2.83464e-06
2	0	0	1	0	7.9648	1.07157	1.07128	-0.00264862	1	0.00011006	42	1.0894	-2.8374e-06
2	0	0	1	0	7.9948	1.06558	1.06528	-0.00269135	1	0.000109981	42	1.1194	-2.86704e-06
2	0	0	1	0	8.0248	1.05958	1.05928	-0.00272722	1	0.0001099	42	1.1494	-2.8889e-06
2	0	0	1	0	8.0548	1.05358	1.05326	-0.00276694	1	0.000109819	42	1.1794	-2.91431e-06
2	0	0	1	0	8.0848	1.04758	1.0473	-0.00279695	1	0.000109737	42	1.2094	-2.92924e-06
2	0	0	1	0	8.1147	1.04159	1.04131	-0.00282726	1	0.000109654	42	1.2393	-2.94404e-06
2	0	0	1	0	8.1447	1.03559	1.03531	-0.00283617	1	0.000109569	42	1.2693	-2.93631e-06
2	0	0	1	0	8.1747	1.02959	1.0293	-0.00288813	1	0.000109484	42	1.2993	-2.97276e-06
2	0	0	1	0	8.2047	1.0236	1.02333	-0.00290742	1	0.000109398	42	1.3293	-2.97524e-06
2	0	0	1	0	8.2347	1.0176	1.01731	-0.00296061	1	0.000109311	42	1.3593	-3.01186e-06
2	0	0	1	0	8.2647	1.0116	1.0113	-0.00295388	1	0.000109223	42	1.3893	-2.98728e-06
2	0	0	1	0	8.2946	1.00561	1.00532	-0.0030166	1	0.000109135	42	1.4192	-3.03265e-06
2	0	0	1	0	8.3246	0.99961	0.999314	-0.00302755	1	0.000109045	42	1.4492	-3.02547e-06
2	0	0	1	0	8.3546	0.993613	0.993341	-0.00307333	1	0.000108955	42	1.4792	-3.05287e-06
2	0	0	1	0	8.3846	0.987616	0.987366	-0.00307567	1	0.000108863	42	1.5092	-3.03681e-06
2	0	0	1	0	8.4146	0.981619	0.981343	-0.00312122	1	0.000108771	42	1.5392	-3.06299e-06
2	0	0	1	0	8.4446	0.975622	0.975329	-0.00314503	1	0.000108678	42	1.5692	-3.06744e-06
2	0	0	1	0	8.4746	0.969625	0.969332	-0.00318775	1	0.000108584	42	1.5992	-3.08999e-06
2	0	0	1	0	8.5045	0.963628	0.963322	-0.00318663	1	0.000108489	42	1.6291	-3.06975e-06
2	0	0	1	0	8.5345	0.957631	0.957328	-0.0032512	1	0.000108394	42	1.6591	-3.11246e-06
2	0	0	1	0	8.5645	0.951634	0.951339	-0.00325728	1	0.000108297	42	1.6891	-3.09877e-06
2	0	0	1	0	8.5945	0.945637	0.945334	-0.00329068	1	0.0001082	42	1.7191	-3.11079e-06
2	0	0	1	0	8.6245	0.93964	0.939354	-0.00329918	1	0.000108102	42	1.7491	-3.0991e-06
2	0	0	1	0	8.6545	0.933643	0.933354	-0.0033606	1	0.000108003	42	1.7791	-3.13663e-06
2	0	0	1	0	8.6844	0.927646	0.927353	-0.00337183	1	0.000107903	42	1.809	-3.12687e-06
2	0	0	1	0	8.7144	0.921649	0.921348	-0.00340386	1	0.000107802	42	1.839	-3.13614e-06
2	0	0	1	0	8.7444	0.915652	0.915357	-0.00341849	1	0.000107701	42	1.869	-3.12914e-06
2	0	0	1	0	8.7744	0.909655	0.909374	-0.00347098	1	0.000107598	42	1.899	-3.15642e-06
2	0	0	1	0	8.8044	0.903658	0.903346	-0.00349227	1	0.000107495	42	1.929	-3.15473e-06
2	0	0	1	0	8.8344	0.897661	0.897376	-0.00353696	1	0.00010739	42	1.959	-3.17398e-06
2	0	0	1	0	8.8644	0.891664	0.891361	-0.0035449	1	0.000107285	42	1.989	-3.15979e-06
2	0	0	1	0	8.8943	0.885667	0.885367	-0.00358745	1	0.000107179	42	2.0189	-3.1762e-06
2	0	0	1	0	8.9243	0.87967	0.879393	-0.00359695	1	0.000107072	42	2.0489	-3.16313e-06
2	0	0	1	0	8.9543	0.873673	0.873393	-0.00364626	1	0.000106964	42	2.0789	-3.18462e-06
2	0	0	1	0	8.9843	0.867676	0.867393	-0.00366036	1	0.000106855	42	2.1089	-3.17497e-06
2	0	0	1	0	9.0143	0.861679	0.861378	-0.00372448	1	0.000106745	42	2.1389	-3.20818e-06
2	0	0	1	0	9.0443	0.855682	0.855398	-0.00375614	1	0.000106635	42	2.1689	-3.21299e-06
2	0	0	1	0	9.0742	0.849699	0.849435	-0.00379518	1	0.000106523	42	2.1988	-3.22376e-06
2	0	0	1	0	9.1042	0.843688	0.843428	-0.00378893	1	0.00010641	42	2.2288	-3.19568e-06
2	0	0	1	0	9.1342	0.837691	0.837435	-0.00384301	1	0.000106296	42	2.2588	-3.21827e-06
2	0	0	1	0	9.1642	0.831694	0.831428	-0.00387063	1	0.000106181	42	2.2888	-3.21815e-06
2	0	0	1	0	9.1942	0.825697	0.825435	-0.00390949	1	0.000106066	42	2.3188	-3.22703e-06
2	0	0	1	0	9.2242	0.8197	0.819426	-0.00394636	1	0.000105949	42	2.3488	-3.23375e-06
2	0	0	1	0	9.2542	0.813703	0.813401	-0.00399708	1	0.000105831	42	2.3788	-3.25123e-06
2	0	0	1	0	9.2841	0.807706	0.80743	-0.00401894	1	0.000105712	42	2.4087	-3.24501e-06
2	0	0	1	0	9.3141	0.80171	0.80142	-0.00405974	1	0.000105592	42	2.4387	-3.25356e-06
2	0	0	1	0	9.3441	0.795713	0.795417	-0.00407382	1	0.00010547	42	2.4687	-3.24039e-06
2	0	0	1	0	9.3741	0.789716	0.789442	-0.00413395	1	0.000105348	42	2.4987	-3.26351e-06
2	0	0	1	0	9.4041	0.783719	0.783449	-0.00415702	1	0.000105225	42	2.5287	-3.25682e-06
2	0	0	1	0	9.4341	0.777722	0.777458	-0.00422313	1	0.0001051	42	2.5587	-3.2833e-06
2	0	0	1	0	9.4641	0.771725	0.771437	-0.0042457	1	0.000104974	42	2.5887	-3.27529e-06
2	0	0	1	0	9.494	0.765728	0.765444	-0.00430748	1	0.000104847	42	2.6186	-3.29713e-06
2	0	0	1	0	9.524	0.759731	0.759463	-0.00432879	1	0.000104719	42	2.6486	-3.28756e-06
2	0	0	1	0	9.554	0.753734	0.753463	-0.00437011	1	0.000104589	42	2.6786	-3.29272e-06
2	0	0	1	0	9.584	0.747737	0.747445	-0.00439528	1	0.000104459	42	2.7086	-3.28523e-06
2	0	0	1	0	9.614	0.74174	0.741463	-0.00446037	1	0.000104326	42	2.7386	-3.3072e-06
2	0	0	1	0	9.644	0.735743	0.735477	-0.00450008	1	0.000104193	42	2.7686	-3.30971e-06
2	0	0	1	0	9.6739	0.729746	0.729471	-0.00456324	1	0.000104059	42	2.7985	-3.32875e-06
2	0	0	1	0	9.7039	0.723749	0.723473	-0.00456545	1	0.000103923	42	2.8285	-3.30298e-06
2	0	0	1	0	9.7339	0.717752	0.717471	-0.00461607	1	0.000103785	42	2.8585	-3.31189e-06
2	0	0	1	0	9.7639	0.711755	0.711459	-0.00466656	1	0.000103646	42	2.8885	-3.32006e-06
2	0	0	1	0	9.7939	0.705758	0.705509	-0.00471991	1	0.000103506	42	2.9185	-3.32994e-06
2	0	0	1	0	9.8239	0.699761	0.699483	-0.0047622	1	0.000103365	42	2.9485	-3.33108e-06
2	0	0	1	0	9.8539	0.693764	0.693507	-0.00482976	1	0.000103222	42	2.9785	-3.34947e-06
2	0	0	1	0	9.8838	0.687767	0.687484	-0.00485823	1	0.000103078	42	3.0084	-3.33996e-06
2	0	0	1	0	9.9138	0.68177	0.681512	-0.00491256	1	0.000102932	42	3.0384	-3.34797e-06
2	0	0	1	0	9.9438	0.675773	0.675481	-0.00495621	1	0.000102784	42	3.0684	-3.34783e-06
2	0	0	1	0	9.9738	0.669776	0.669491	-0.00501789	1	0.000102635	42	3.0984	-3.35943e-06
2	0	0	1	0	10.0038	0.663779	0.66349	-0.00505835	1	0.000102485	42	3.1284	-3.35617e-06
2	0	0	1	0	10.0338	0.657782	0.657537	-0.00512893	1	0.000102333	42	3.1584	-3.37246e-06
2	0	0	1	0	10.0638	0.651781	0.651508	-0.00518472	1	0.000102179	42	3.1884	-3.37789e-06
2	0	0	1	0	10.0937	0.645788	0.645525	-0.00523997	1	0.000102024	42	3.2183	-3.38253e-06
2	0	0	1	0	10.1237	0.639791	0.639493	-0.00528459	1	0.000101867	42	3.2483	-3.37945e-06
2	0	0	1	0	10.1537	0.633794	0.633538	-0.0053438	1	0.000101708	42	3.2783	-3.3855e-06
2	0	0	1	0	10.1837	0.627797	0.627543	-0.0053879	1	0.000101547	42	3.3083	-3.38114e-06
2	0	0	1	0	10.2137	0.6218	0.621537	-0.00548059	1	0.000101384	42	3.3383	-3.40639e-06
2	0	0	1	0	10.2437	0.615803	0.615518	-0.00554163	1	0.000101219	42	3.3683	-3.41098e-06
2	0	0	1	0	10.2736	0.609806	0.609528	-0.00562206	1	0.000101053	42	3.3982	-3.4268e-06
2	0	0	1	0	10.3036	0.603809	0.603526	-0.00565467	1	0.000100884	42	3.4282	-3.41274e-06
2	0	0	1	0	10.3336	0.597813	0.597551	-0.00575261	1	0.000100712	42	3.4582	-3.43748e-06
2	0	0	1	0	10.3636	0.591816	0.591551	-0.00582731	1	0.000100539	42	3.4882	-3.44715e-06
2	0	0	1	0	10.3936	0.585819	0.585548	-0.0059212	1	0.000100362	42	3.5182	-3.46715e-06
2	0	0	1	0	10.4236	0.579822	0.57956	-0.00603085	1	0.000100183	42	3.5482	-3.49524e-06
2	0	0	1	0	10.4536	0.573825	0.573564	-0.0061688	1	0.0001	42	3.5782	-3.5382e-06
2	0	0	1	0	10.4835	0.567828	0.567557	-0.00628442	1	9.98141e-05	42	3.6081	-3.56677e-06
2	0	0	1	0	10.5135	0.561831	0.561557	-0.0064307	1	9.96234e-05	42	3.6381	-3.6112e-06
2	0	0	1	0	10.5435	0.555834	0.555587	-0.0065919	1	9.94278e-05	42	3.6681	-3.66238e-06
2	0	0	1	0	10.5735	0.549837	0.549569	-0.00676319	1	9.92272e-05	42	3.6981	-3.71684e-06
2	0	0	1	0	10.6035	0.54384	0.543556	-0.00692499	1	9.90215e-05	42	3.7281	-3.76412e-06
2	0	0	1	0	10.6335	0.537843	0.537569	-0.00705513	1	9.88115e-05	42	3.7581	-3.79262e-06
2	0	0	1	0	10.6634	0.531846	0.531591	-0.00719322	1	9.85983e-05	42	3.788	-3.82385e-06
2	0	0	1	0	10.6934	0.525849	0.525596	-0.00723764	1	9.83821e-05	42	3.818	-3.80407e-06
2	0	0	1	0	10.7234	0.519852	0.5196	-0.00724535	1	9.81645e-05	42	3.848	-3.76468e-06
2	0	0	1	0	10.7534	0.513855	0.513586	-0.00725507	1	9.79464e-05	42	3.878	-3.7261e-06
2	0	0	1	0	10.7834	0.507858	0.507582	-0.00725886	1	9.77281e-05	42	3.908	-3.68446e-06
2	0	0	1	0	10.8134	0.501861	0.501575	-0.00728107	1	9.75096e-05	42	3.938	-3.652e-06
2	0	0	1	0	10.8434	0.495864	0.495592	-0.00729611	1	9.72905e-05	42	3.968	-3.6159e-06
2	0	0	1	0	10.8733	0.489867	0.489637	-0.00735673	1	9.70712e-05	42	3.9979	-3.60212e-06
2	0	0	1	0	10.9033	0.48387	0.483598	-0.00738309	1	9.68498e-05	42	4.0279	-3.57045e-06
2	0	0	1	0	10.9333	0.477873	0.477621	-0.00745249	1	9.6627e-05	42	4.0579	-3.55946e-06
2	0	0	1	0	10.9633	0.471876	0.471611	-0.00751715	1	9.64022e-05	42	4.0879	-3.54517e-06
2	0	0	1	0	10.9933	0.465879	0.465625	-0.00757731	1	9.61756e-05	42	4.1179	-3.52819e-06
2	0	0	1	0	11.0233	0.459882	0.45963	-0.00763894	1	9.59467e-05	42	4.1479	-3.51109e-06
2	0	0	1	0	11.0533	0.453885	0.453623	-0.00771934	1	9.57157e-05	42	4.1779	-3.50167e-06
2	0	0	1	0	11.0832	0.447888	0.447621	-0.00780518	1	9.54826e-05	42	4.2078	-3.49376e-06
2	0	0	1	0	11.1132	0.441891	0.441615	-0.00788281	1	9.52464e-05	42	4.2378	-3.48117e-06
2	0	0	1	0	11.1432	0.435894	0.435612	-0.0079922	1	9.50075e-05	42	4.2678	-3.4815e-06
2	0	0	1	0	11.1732	0.429897	0.429616	-0.00810397	1	9.47658e-05	42	4.2978	-3.4816e-06
2	0	0	1	0	11.2032	0.4239	0.423629	-0.00819639	1	9.45209e-05	42	4.3278	-3.47223e-06
2	0	0	1	0	11.2332	0.417903	0.417624	-0.00829803	1	9.4273e-05	42	4.3578	-3.46546e-06
2	0	0	1	0	11.2631	0.411906	0.411607	-0.00838663	1	9.40225e-05	42	4.3877	-3.45199e-06
2	0	0	1	0	11.2931	0.405909	0.405626	-0.00851731	1	9.37681e-05	42	4.4177	-3.45485e-06
2	0	0	1	0	11.3231	0.399912	0.399635	-0.00862862	1	9.35105e-05	42	4.4477	-3.44829e-06
2	0	0	1	0	11.3531	0.393916	0.393618	-0.00874246	1	9.32498e-05	42	4.4777	-3.44119e-06
2	0	0	1	0	11.3831	0.387919	0.387633	-0.00882025	1	9.29859e-05	42	4.5077	-3.41902e-06
2	0	0	1	0	11.4131	0.381922	0.381642	-0.00891781	1	9.27191e-05	42	4.5377	-3.40341e-06
2	0	0	1	0	11.4431	0.375925	0.375645	-0.00901971	1	9.24491e-05	42	4.5677	-3.38821e-06
2	0	0	1	0	11.473	0.369928	0.36965	-0.0091153	1	9.21771e-05	42	4.5976	-3.36947e-06
2	0	0	1	0	11.503	0.363931	0.363633	-0.0092128	1	9.19014e-05	42	4.6276	-3.35008e-06
2	0	0	1	0	11.533	0.357934	0.357671	-0.00929882	1	9.16232e-05	42	4.6576	-3.32591e-06
2	0	0	1	0	11.563	0.351937	0.351671	-0.00937313	1	9.13423e-05	42	4.6876	-3.29626e-06
2	0	0	1	0	11.593	0.34594	0.345672	-0.00944836	1	9.10592e-05	42	4.7176	-3.26604e-06
2	0	0	1	0	11.623	0.339943	0.33967	-0.00952059	1	9.07735e-05	42	4.7476	-3.23386e-06
2	0	0	1	0	11.6529	0.333946	0.333694	-0.00962982	1	9.04869e-05	42	4.7775	-3.21341e-06
2	0	0	1	0	11.6829	0.327949	0.327677	-0.0096731	1	9.01971e-05	42	4.8075	-3.16966e-06
2	0	0	1	0	11.7129	0.321952	0.321683	-0.00972495	1	8.99059e-05	42	4.8375	-3.12835e-06
2	0	0	1	0	11.7429	0.315955	0.315692	-0.00976049	1	8.96128e-05	42	4.8675	-3.08131e-06
2	0	0	1	0	11.7729	0.309958	0.30971	-0.00981159	1	8.93186e-05	42	4.8975	-3.03875e-06
2	0	0	1	0	11.8029	0.303961	0.303667	-0.00985172	1	8.90228e-05	42	4.9275	-2.99164e-06
2	0	0	1	0	11.8329	0.297964	0.297692	-0.00986725	1	8.87262e-05	42	4.9575	-2.9374e-06
2	0	0	1	0	11.8628	0.291967	0.291712	-0.00994154	1	8.84291e-05	42	4.9874	-2.90006e-06
2	0	0	1	0	11.8928	0.28597	0.285696	-0.00995674	1	8.81304e-05	42	5.0174	-2.8446e-06
2	0	0	1	0	11.9228	0.279973	0.279692	-0.00997498	1	8.78309e-05	42	5.0474	-2.78992e-06
2	0	0	1	0	11.9528	0.273976	0.273728	-0.0100009	1	8.75309e-05	42	5.0774	-2.73751e-06
2	0	0	1	0	11.9828	0.267979	0.267687	-0.0100168	1	8.72302e-05	42	5.1074	-2.68137e-06
2	0	0	1	0	12.0128	0.261982	0.261695	-0.0100211	1	8.69289e-05	42	5.1374	-2.62247e-06
2	0	0	1	0	12.0428	0.255985	0.255729	-0.010029	1	8.66272e-05	42	5.1674	-2.56471e-06
2	0	0	1	0	12.0727	0.249988	0.249736	-0.0100456	1	8.63258e-05	42	5.1973	-2.50874e-06
2	0	0	1	0	12.1027	0.243991	0.243715	-0.0100751	1	8.60231e-05	42	5.2273	-2.45547e-06
2	0	0	1	0	12.1327	0.237994	0.237706	-0.0100859	1	8.572e-05	42	5.2573	-2.39749e-06
2	0	0	1	0	12.1627	0.231997	0.231714	-0.0101157	1	8.54164e-05	42	5.2873	-2.34394e-06
2	0	0	1	0	12.1927	0.226	0.22573	-0.0101232	1	8.5112e-05	42	5.3173	-2.28512e-06
2	0	0	1	0	12.2227	0.220003	0.219737	-0.0101352	1	8.48073e-05	42	5.3473	-2.22708e-06
2	0	0	1	0	12.2526	0.214006	0.213737	-0.0101297	1	8.45029e-05	42	5.3772	-2.1651e-06
2	0	0	1	0	12.2826	0.208009	0.207769	-0.0101896	1	8.4197e-05	42	5.4072	-2.11708e-06
2	0	0	1	0	12.3126	0.202012	0.201721	-0.0102119	1	8.38906e-05	42	5.4372	-2.05995e-06
2	0	0	1	0	12.3426	0.196015	0.195739	-0.010229	1	8.35836e-05	42	5.4672	-2.00221e-06
2	0	0	1	0	12.3726	0.190019	0.189729	-0.0102529	1	8.3276e-05	42	5.4972	-1.94526e-06
2	0	0	1	0	12.4026	0.184022	0.183738	-0.010272	1	8.29676e-05	42	5.5272	-1.88736e-06
2	0	0	1	0	12.4326	0.178025	0.177753	-0.0102666	1	8.26586e-05	42	5.5572	-1.82492e-06
2	0	0	1	0	12.4625	0.172028	0.17176	-0.0103103	1	8.23494e-05	42	5.5871	-1.7709e-06
2	0	0	1	0	12.4925	0.166031	0.165776	-0.0103592	1	8.20387e-05	42	5.6171	-1.71731e-06
2	0	0	1	0	12.5225	0.160034	0.159753	-0.010392	1	8.17268e-05	42	5.6471	-1.66015e-06
2	0	0	1	0	12.5525	0.154037	0.153746	-0.0104098	1	8.14141e-05	42	5.6771	-1.60047e-06
2	0	0	1	0	12.5825	0.14804	0.147768	-0.0104444	1	8.11003e-05	42	5.7071	-1.54334e-06
2	0	0	1	0	12.6125	0.142043	0.141748	-0.0104721	1	8.07854e-05	42	5.7371	-1.48439e-06
2	0	0	1	0	12.6424	0.13605	0.13577	-0.0105586	1	8.04702e-05	42	5.767	-1.43353e-06
2	0	0	1	0	12.6724	0.130049	0.129759	-0.0105681	1	8.01527e-05	42	5.797	-1.3713e-06
2	0	0	1	0	12.7024	0.124052	0.123767	-0.0106253	1	7.98341e-05	42	5.827	-1.31506e-06
2	0	0	1	0	12.7324	0.118055	0.117766	-0.0106618	1	7.95142e-05	42	5.857	-1.2556e-06
2	0	0	1	0	12.7624	0.112058	0.111762	-0.0107077	1	7.91928e-05	42	5.887	-1.19672e-06
2	0	0	1	0	12.7924	0.106061	0.10578	-0.010743	1	7.88702e-05	42	5.917	-1.1364e-06
2	0	0	1	0	12.8224	0.100064	0.0997799	-0.0108015	1	7.85461e-05	42	5.947	-1.07777e-06
2	0	0	1	0	12.8523	0.094067	0.0937849	-0.0108395	1	7.82216e-05	42	5.9769	-1.01658e-06
2	0	0	1	0	12.8823	0.08807	0.0877862	-0.010914	1	7.78946e-05	42	6.0069	-9.58101e-07
2	0	0	1	0	12.9423	0.076076	0.0757742	-0.0110053	1	7.72357e-05	41	6.0669	-8.33915e-07
2	0	0	1	0	12.9723	0.0700791	0.0697891	-0.0110534	1	7.69049e-05	41	6.0969	-7.71408e-07
2	0	0	1	0	13.0023	0.0640821	0.0637996	-0.0111032	1	7.65727e-05	41	6.1269	-7.08381e-07
2	0	0	1	0	13.0323	0.0580851	0.0578114	-0.0111428	1	7.62388e-05	41	6.1569	-6.44183e-07
2	0	0	1	0	13.0622	0.0520882	0.0518013	-0.0111955	1	7.59045e-05	41	6.1868	-5.79941e-07
2	0	0	1	0	13.0922	0.0460912	0.04581	-0.0112352	1	7.55679e-05	41	6.2168	-5.14683e-07
2	0	0	1	0	13.1222	0.0400942	0.0398282	-0.0112884	1	7.523e-05	41	6.2468	-4.49599e-07
2	0	0	1	0	13.1522	0.0340973	0.0337967	-0.0113254	1	7.48906e-05	41	6.2768	-3.82762e-07
2	0	0	1	0	13.1822	0.0281003	0.0278169	-0.0113639	1	7.455e-05	41	6.3068	-3.16107e-07
2	0	0	1	0	13.2122	0.0221033	0.0218315	-0.0114132	1	7.4208e-05	41	6.3368	-2.49168e-07
2	0	0	1	0	13.2421	0.0161063	0.0158188	-0.0114576	1	7.38657e-05	41	6.3667	-1.81245e-07
2	0	0	1	0	13.2721	0.0101094	0.00982394	-0.0115021	1	7.3521e-05	41	6.3967	-1.12996e-07
2	0	0	1	0	13.3021	0.00411239	0.003818	-0.0115543	1	7.31751e-05	41	6.4267	-4.41145e-08
2	0	0	1	0	13.3321	-0.00188458	-0.00218587	-0.011608	1	7.28279e-05	41	6.4567	2.53736e-08
2	0	0	1	0	13.3621	-0.00788155	-0.00817762	-0.0116321	1	7.24794e-05	41	6.4867	9.51229e-08
2	0	0	1	0	13.3921	-0.0138785	-0.0141627	-0.0116702	1	7.21298e-05	41	6.5167	1.65281e-07
2	0	0	1	0	13.4221	-0.0198755	-0.0201651	-0.0117081	1	7.17787e-05	41	6.5467	2.36095e-07
2	0	0	1	0	13.452	-0.0258725	-0.0261668	-0.0117476	1	7.14275e-05	41	6.5766	3.07397e-07
2	0	0	1	0	13.482	-0.0318695	-0.0321782	-0.0118017	1	7.1074e-05	41	6.6066	3.79756e-07
2	0	0	1	0	13.512	-0.0378664	-0.0381561	-0.0118254	1	7.07193e-05	41	6.6366	4.51211e-07
2	0	0	1	0	13.542	-0.0438634	-0.0441567	-0.0118761	1	7.03633e-05	41	6.6666	5.24411e-07
2	0	0	1	0	13.572	-0.0498604	-0.0501351	-0.0119057	1	7.00061e-05	41	6.6966	5.96895e-07
2	0	0	1	0	13.602	-0.0558573	-0.0561662	-0.0119588	1	6.96476e-05	41	6.7266	6.71679e-07
2	0	0	1	0	13.632	-0.0618679	-0.062166	-0.0120418	1	6.92878e-05	41	6.7566	7.48591e-07
2	0	0	1	0	13.6619	-0.0678513	-0.0681447	-0.012053	1	6.89277e-05	41	6.7865	8.2135e-07
2	0	0	1	0	13.6919	-0.0738483	-0.0741446	-0.0120845	1	6.85654e-05	41	6.8165	8.95997e-07
2	0	0	1	0	13.7219	-0.0798453	-0.0801329	-0.0121306	1	6.82017e-05	41	6.8465	9.72058e-07
2	0	0	1	0	13.7519	-0.0858422	-0.0861304	-0.0121726	1	6.78368e-05	41	6.8765	1.04843e-06
2	0	0	1	0	13.7819	-0.0918392	-0.0921319	-0.0122226	1	6.74704e-05	41	6.9065	1.12609e-06
2	0	0	1	0	13.8119	-0.0978362	-0.0981155	-0.0122624	1	6.71028e-05	41	6.9365	1.20313e-06
2	0	0	1	0	13.8418	-0.103833	-0.104144	-0.0123266	1	6.67349e-05	41	6.9664	1.28374e-06
2	0	0	1	0	13.8718	-0.10983	-0.110124	-0.0123648	1	6.63644e-05	41	6.9964	1.36166e-06
2	0	0	1	0	13.9018	-0.115827	-0.116095	-0.0124231	1	6.59924e-05	41	7.0264	1.44226e-06
2	0	0	1	0	13.9318	-0.121824	-0.122091	-0.0124467	1	6.5619e-05	41	7.0564	1.51963e-06
2	0	0	1	0	13.9618	-0.127821	-0.128122	-0.0125047	1	6.52443e-05	41	7.0864	1.60213e-06
2	0	0	1	0	13.9918	-0.133818	-0.134103	-0.0125446	1	6.4868e-05	41	7.1164	1.68227e-06
2	0	0	1	0	14.0218	-0.139815	-0.140111	-0.0125995	1	6.44902e-05	41	7.1464	1.76533e-06
2	0	0	1	0	14.0517	-0.145812	-0.146107	-0.0126369	1	6.41119e-05	41	7.1763	1.84634e-06
2	0	0	1	0	14.0817	-0.151809	-0.152098	-0.0127123	1	6.37311e-05	41	7.2063	1.93352e-06
2	0	0	1	0	14.1117	-0.157806	-0.158099	-0.0127403	1	6.33489e-05	41	7.2363	2.01424e-06
2	0	0	1	0	14.1417	-0.163803	-0.164065	-0.0128059	1	6.29652e-05	41	7.2663	2.101e-06
2	0	0	1	0	14.1717	-0.1698	-0.170113	-0.0128475	1	6.25799e-05	41	7.2963	2.18552e-06
2	0	0	1	0	14.2017	-0.175797	-0.176091	-0.0129002	1	6.21931e-05	41	7.3263	2.27161e-06
2	0	0	1	0	14.2316	-0.181794	-0.182086	-0.0129621	1	6.18059e-05	41	7.3562	2.36022e-06
2	0	0	1	0	14.2616	-0.187791	-0.188079	-0.0130236	1	6.14157e-05	41	7.3862	2.44946e-06
2	0	0	1	0	14.2916	-0.193788	-0.194086	-0.0130717	1	6.10239e-05	41	7.4162	2.53703e-06
2	0	0	1	0	14.3216	-0.199785	-0.2001	-0.0131616	1	6.06301e-05	41	7.4462	2.63364e-06
2	0	0	1	0	14.3516	-0.205782	-0.206079	-0.0132199	1	6.02345e-05	41	7.4762	2.72435e-06
2	0	0	1	0	14.3816	-0.211779	-0.212106	-0.0132852	1	5.98368e-05	41	7.5062	2.81787e-06
2	0	0	1	0	14.4116	-0.217776	-0.218081	-0.013323	1	5.94372e-05	41	7.5362	2.90549e-06
2	0	0	1	0	14.4415	-0.223773	-0.224068	-0.0134354	1	5.90363e-05	41	7.5661	3.01046e-06
2	0	0	1	0	14.4715	-0.22977	-0.230076	-0.0134961	1	5.86322e-05	41	7.5961	3.10513e-06
2	0	0	1	0	14.5015	-0.235767	-0.236079	-0.0135883	1	5.82255e-05	41	7.6261	3.20791e-06
2	0	0	1	0	14.5315	-0.241764	-0.242057	-0.0136573	1	5.78165e-05	41	7.6561	3.30583e-06
2	0	0	1	0	14.5615	-0.24776	-0.248048	-0.0137695	1	5.74047e-05	41	7.6861	3.4155e-06
2	0	0	1	0	14.5915	-0.253758	-0.254051	-0.0138403	1	5.69902e-05	41	7.7161	3.51614e-06
2	0	0	1	0	14.6214	-0.259741	-0.260052	-0.0139872	1	5.65741e-05	41	7.746	3.63741e-06
2	0	0	1	0	14.6514	-0.265751	-0.266046	-0.0140437	1	5.61533e-05	41	7.776	3.73627e-06
2	0	0	1	0	14.6814	-0.271748	-0.272044	-0.0141777	1	5.57294e-05	41	7.806	3.85697e-06
2	0	0	1	0	14.7114	-0.277745	-0.278047	-0.0142863	1	5.5302e-05	41	7.836	3.97227e-06
2	0	0	1	0	14.7414	-0.283742	-0.284031	-0.0144317	1	5.48708e-05	41	7.866	4.09906e-06
2	0	0	1	0	14.7714	-0.289739	-0.290019	-0.014546	1	5.44358e-05	41	7.896	4.21861e-06
2	0	0	1	0	14.8014	-0.295736	-0.296045	-0.0147028	1	5.39966e-05	41	7.926	4.35268e-06
2	0	0	1	1	14.8256	-0.299439	-0.299697	-0.0116694	1	5.36467e-05	41	7.9502	3.49727e-06
2	0	0	1	1	14.8556	-0.293437	-0.29367	-0.00861107	1	5.33503e-05	41	7.9802	2.52882e-06
2	0	0	1	1	14.8856	-0.287441	-0.287684	-0.00689585	1	5.31197e-05	41	8.0102	1.98383e-06
2	0	0	1	1	14.9156	-0.281444	-0.281686	-0.00566676	1	5.29327e-05	41	8.0402	1.59625e-06
2	0	0	1	1	14.9456	-0.275447	-0.275691	-0.00470452	1	5.27783e-05	41	8.0702	1.297e-06
2	0	0	1	1	14.9756	-0.26945	-0.269707	-0.00391153	1	5.26499e-05	41	8.1002	1.05497e-06
2	0	0	1	1	15.0056	-0.263453	-0.263686	-0.00326774	1	5.25426e-05	41	8.1302	8.61658e-07
2	0	0	1	1	15.0655	-0.251459	-0.251773	-0.00253021	1	5.23688e-05	42	8.1901	6.37038e-07
2	0	0	1	1	15.0955	-0.245462	-0.245715	-0.00183436	1	5.23074e-05	42	8.2201	4.5073e-07
2	0	0	1	1	15.1255	-0.239465	-0.239716	-0.00147445	1	5.22572e-05	42	8.2501	3.53449e-07
2	0	0	1	1	15.1555	-0.233468	-0.233713	-0.00115785	1	5.22172e-05	42	8.2801	2.70605e-07
2	0	0	1	1	15.1855	-0.227471	-0.22772	-0.000868376	1	5.2186e-05	42	8.3101	1.97746e-07
2	0	0	1	1	15.2155	-0.221474	-0.221743	-0.000624198	1	5.21629e-05	42	8.3401	1.38412e-07
2	0	0	1	1	15.2454	-0.215477	-0.215731	-0.000385346	1	5.21473e-05	42	8.37	8.3131e-08
2	0	0	1	1	15.2754	-0.20948	-0.209738	-0.000182479	1	5.21381e-05	42	8.4	3.82729e-08
2	0	0	1	1	15.3054	-0.203483	-0.203731	2.64075e-05	1	5.21348e-05	42	8.43	-5.38003e-09
2	1	0	1	1	15.3354	-0.197486	-0.197716	0.000192605	1	5.21372e-05	42	0.025	-3.80811e-08
2	1	0	1	1	15.3654	-0.191489	-0.19173	0.000342319	1	5.21446e-05	42	0.055	-6.56331e-08
2	1	0	1	1	15.3954	-0.185492	-0.185724	0.000506122	1	5.21568e-05	42	0.085	-9.39992e-08
2	1	0	1	1	15.4253	-0.179495	-0.179723	0.000658763	1	5.21734e-05	42	0.1149	-1.18395e-07
2	1	0	1	1	15.4553	-0.173498	-0.173714	0.000791872	1	5.21942e-05	42	0.1449	-1.37559e-07
2	1	0	1	1	15.4853	-0.167501	-0.167735	0.000928283	1	5.22188e-05	42	0.1749	-1.55705e-07
2	1	0	1	1	15.5153	-0.161504	-0.161743	0.00104414	1	5.22472e-05	42	0.2049	-1.68883e-07
2	1	0	1	1	15.5453	-0.155507	-0.155761	0.00114175	1	5.22789e-05	42	0.2349	-1.7784e-07
2	1	0	1	1	15.5753	-0.14951	-0.149712	0.00126433	1	5.23141e-05	42	0.2649	-1.89286e-07
2	1	0	1	1	15.6053	-0.143513	-0.143734	0.00136247	1	5.23523e-05	42	0.2949	-1.95833e-07
2	1	0	1	1	15.6352	-0.137516	-0.137748	0.00146032	1	5.23937e-05	42	0.3248	-2.01156e-07
2	1	0	1	1	15.6652	-0.131519	-0.131774	0.00155453	1	5.24378e-05	42	0.3548	-2.04847e-07
2	1	0	1	1	15.6952	-0.125522	-0.125752	0.00163475	1	5.24848e-05	42	0.3848	-2.05574e-07
2	1	0	1	1	15.7252	-0.119525	-0.119772	0.00170405	1	5.25343e-05	42	0.4148	-2.04098e-07
2	1	0	1	1	15.7552	-0.113528	-0.113774	0.00180051	1	5.25864e-05	42	0.4448	-2.0485e-07
2	1	0	1	1	15.7852	-0.107531	-0.107776	0.00188421	1	5.26408e-05	42	0.4748	-2.03072e-07
2	1	0	1	1	15.8152	-0.101525	-0.101773	0.00198876	1	5.26977e-05	42	0.5048	-2.02402e-07
2	1	0	1	1	15.8451	-0.0955373	-0.095766	0.00202788	1	5.27566e-05	42	0.5347	-1.94202e-07
2	1	0	1	1	15.8751	-0.0895404	-0.0897715	0.0021113	1	5.2818e-05	42	0.5647	-1.89535e-07
2	1	0	1	1	15.9051	-0.0835434	-0.0837728	0.0021656	1	5.28812e-05	42	0.5947	-1.81419e-07
2	1	0	1	1	15.9351	-0.0775464	-0.0777697	0.00225671	1	5.29466e-05	42	0.6247	-1.75503e-07
2	1	0	1	1	15.9651	-0.0715494	-0.0717895	0.00229972	1	5.30137e-05	42	0.6547	-1.65096e-07
2	1	0	1	1	15.9951	-0.0655525	-0.0657872	0.00238274	1	5.30829e-05	42	0.6847	-1.56754e-07
2	1	0	1	1	16.025	-0.0595555	-0.0597971	0.00242756	1	5.31538e-05	42	0.7146	-1.45161e-07
2	1	0	1	1	16.055	-0.0535585	-0.0537942	0.00249132	1	5.32266e-05	42	0.7446	-1.34019e-07
2	1	0	1	1	16.085	-0.0475615	-0.0477928	0.00254557	1	5.33011e-05	42	0.7746	-1.2166e-07
2	1	0	1	1	16.115	-0.0415646	-0.0418071	0.00260529	1	5.33773e-05	42	0.8046	-1.0892e-07
2	1	0	1	1	16.145	-0.0355676	-0.0358203	0.00265945	1	5.34552e-05	42	0.8346	-9.52622e-08
2	1	0	1	1	16.175	-0.0295706	-0.0298297	0.00272421	1	5.35347e-05	42	0.8646	-8.12625e-08
2	1	0	1	1	16.205	-0.0235736	-0.0238175	0.0027655	1	5.36157e-05	42	0.8946	-6.58672e-08
2	1	0	1	1	16.2349	-0.0175767	-0.017813	0.00281632	1	5.36982e-05	42	0.9245	-5.0167e-08
2	1	0	1	1	16.2649	-0.0115797	-0.0118144	0.00286959	1	5.37824e-05	42	0.9545	-3.39025e-08
2	1	0	1	1	16.2949	-0.00558271	-0.00584024	0.00290999	1	5.38681e-05	42	0.9845	-1.69951e-08
2	1	0	1	1	16.3249	0.000414261	0.000169107	0.00294456	1	5.39553e-05	42	1.0145	4.97947e-10
2	1	0	1	1	16.3549	0.00641123	0.00618858	0.00299964	1	5.40439e-05	42	1.0445	1.85635e-08
2	1	0	1	1	16.3849	0.0124082	0.0121831	0.00306329	1	5.41339e-05	42	1.0745	3.73202e-08
2	1	0	1	1	16.4148	0.0184052	0.0181926	0.00315349	1	5.42252e-05	42	1.1044	5.73703e-08
2	1	0	1	1	16.4448	0.0244021	0.0241831	0.00315368	1	5.43179e-05	42	1.1344	7.62658e-08
2	1	0	1	1	16.4748	0.0303991	0.0301628	0.00319307	1	5.44121e-05	42	1.1644	9.63121e-08
2	1	0	1	1	16.5048	0.0363961	0.0361555	0.00323675	1	5.45075e-05	42	1.1944	1.17026e-07
2	1	0	1	1	16.5348	0.0423931	0.0421664	0.00327709	1	5.46044e-05	42	1.2244	1.38183e-07
2	1	0	1	1	16.5648	0.04839	0.0481513	0.00331596	1	5.47024e-05	42	1.2544	1.59668e-07
2	1	0	1	1	16.5948	0.054387	0.0541742	0.00338356	1	5.48019e-05	42	1.2844	1.83302e-07
2	1	0	1	1	16.6247	0.060384	0.0601434	0.00342184	1	5.49023e-05	42	1.3143	2.05801e-07
2	1	0	1	1	16.6547	0.0663809	0.0661444	0.00345524	1	5.50044e-05	42	1.3443	2.28545e-07
2	1	0	1	1	16.6847	0.0723779	0.0721303	0.00347513	1	5.51076e-05	42	1.3743	2.50662e-07
2	1	0	1	1	16.7147	0.0783749	0.078134	0.0035375	1	5.52122e-05	42	1.4043	2.76399e-07
2	1	0	1	1	16.7447	0.0843718	0.0841119	0.00356706	1	5.53179e-05	42	1.4343	3.00032e-07
2	1	0	1	1	16.7747	0.0903688	0.0901181	0.00363695	1	5.54249e-05	42	1.4643	3.27755e-07
2	1	0	1	1	16.8046	0.0963522	0.0960919	0.00366294	1	5.55328e-05	42	1.4942	3.51978e-07
2	1	0	1	1	16.8346	0.102363	0.10213	0.00372767	1	5.56425e-05	42	1.5242	3.80708e-07
2	1	0	1	1	16.8646	0.10836	0.108112	0.00372927	1	5.57531e-05	42	1.5542	4.0318e-07
2	1	0	1	1	16.8946	0.114357	0.114117	0.00380251	1	5.58652e-05	42	1.5842	4.33931e-07
2	1	0	1	1	16.9246	0.120354	0.120106	0.00381663	1	5.59783e-05	42	1.6142	4.58402e-07
2	1	0	1	1	16.9546	0.126351	0.126111	0.00387496	1	5.60928e-05	42	1.6442	4.88676e-07
2	1	0	1	1	16.9846	0.132348	0.132104	0.00391365	1	5.62084e-05	42	1.6742	5.17008e-07
2	1	0	1	1	17.0145	0.138345	0.138077	0.00395987	1	5.63251e-05	42	1.7041	5.46767e-07
2	1	0	1	1	17.0445	0.144342	0.144087	0.00398497	1	5.64432e-05	42	1.7341	5.74182e-07
2	1	0	1	1	17.0745	0.150339	0.150096	0.00404261	1	5.65626e-05	42	1.7641	6.06778e-07
2	1	0	1	1	17.1045	0.156336	0.156097	0.00406832	1	5.66832e-05	42	1.7941	6.35053e-07
2	1	0	1	1	17.1345	0.162332	0.162066	0.00410542	1	5.6805e-05	42	1.8241	6.6535e-07
2	1	0	1	1	17.1645	0.168329	0.168081	0.00413482	1	5.6928e-05	42	1.8541	6.94984e-07
2	1	0	1	1	17.1945	0.174326	0.174094	0.00419699	1	5.70523e-05	42	1.8841	7.30672e-07
2	1	0	1	1	17.2244	0.180323	0.180086	0.00421803	1	5.71775e-05	42	1.914	7.59609e-07
2	1	0	1	1	17.2544	0.18632	0.186072	0.00427536	1	5.73043e-05	42	1.944	7.95526e-07
2	1	0	1	1	17.2844	0.192317	0.192081	0.00429183	1	5.74325e-05	42	1.974	8.24379e-07
2	1	0	1	1	17.3144	0.198314	0.198057	0.00435724	1	5.75621e-05	42	2.004	8.62983e-07
2	1	0	1	1	17.3444	0.204311	0.204065	0.00439481	1	5.76931e-05	42	2.034	8.96827e-07
2	1	0	1	1	17.3744	0.210308	0.210073	0.00448602	1	5.78257e-05	42	2.064	9.42391e-07
2	1	0	1	1	17.4043	0.216305	0.216063	0.00455864	1	5.79594e-05	42	2.0939	9.84955e-07
2	1	0	1	1	17.4343	0.222302	0.222067	0.0045665	1	5.80953e-05	42	2.1239	1.01407e-06
2	1	0	1	1	17.4643	0.228299	0.228038	0.00461122	1	5.82327e-05	42	2.1539	1.05153e-06
2	1	0	1	1	17.4943	0.234296	0.234055	0.00468118	1	5.8372e-05	42	2.1839	1.09565e-06
2	1	0	1	1	17.5243	0.240293	0.24004	0.00472438	1	5.8513e-05	42	2.2139	1.13404e-06
2	1	0	1	1	17.5543	0.24629	0.246051	0.00480714	1	5.86558e-05	42	2.2439	1.1828e-06
2	1	0	1	1	17.5843	0.252287	0.252021	0.00486471	1	5.88004e-05	42	2.2739	1.22601e-06
2	1	0	1	1	17.6142	0.258284	0.258025	0.00495835	1	5.89468e-05	42	2.3038	1.27938e-06
2	1	0	1	1	17.6442	0.264281	0.264017	0.00497615	1	5.90953e-05	42	2.3338	1.31379e-06
2	1	0	1	1	17.6742	0.270278	0.270032	0.00506177	1	5.92459e-05	42	2.3638	1.36684e-06
2	1	0	1	1	17.7042	0.276275	0.276005	0.00510553	1	5.93984e-05	42	2.3938	1.40915e-06
2	1	0	1	1	17.7342	0.282272	0.282003	0.00519405	1	5.9553e-05	42	2.4238	1.46474e-06
2	1	0	1	1	17.7642	0.288269	0.287999	0.0052404	1	5.97096e-05	42	2.4538	1.50923e-06
2	1	0	1	1	17.7942	0.294266	0.294019	0.00533042	1	5.98683e-05	42	2.4838	1.56724e-06
2	1	0	1	1	17.8241	0.300263	0.300006	0.00539521	1	6.00286e-05	42	2.5137	1.6186e-06
2	1	0	1	1	17.8541	0.30626	0.30602	0.00548043	1	6.01914e-05	42	2.5437	1.67712e-06
2	1	0	1	1	17.8841	0.312257	0.312012	0.00549931	1	6.03562e-05	42	2.5737	1.71585e-06
2	1	0	1	1	17.9141	0.318254	0.317996	0.00561242	1	6.0523e-05	42	2.6037	1.78473e-06
2	1	0	1	1	17.9441	0.324251	0.323996	0.00564405	1	6.06919e-05	42	2.6337	1.82865e-06
2	1	0	1	1	17.9741	0.330248	0.329995	0.00572316	1	6.08627e-05	42	2.6637	1.88861e-06
2	1	0	0	1	17.9956	0.334596	0.334314	0.00583746	1	6.09863e-05	42	2.6852	1.95154e-06