File: Python/Data/GoldElectrode/240319/Carbon/240319-CVEIS_Activation-0p5H2SO4-Ag_AgCl_BLF8-GC_RDE-80cycles_08_PEIS_C15.mpt
EC-Lab ASCII FILE
Nb header lines : 66

Potentio Electrochemical Impedance Spectroscopy

Run on channel : 15 (SN 19485)
User :
Electrode connection : standard
Potential control : Ewe
Ewe ctrl range : min = -2.50 V, max = 2.50 V
Ewe,I filtering : 50 kHz
Safety Limits :
	Do not start on E overload
Channel : Floating
Acquisition started on : 03/19/2024 14:45:18.810
Loaded Setting File :  C:\Data\mathias\GoldElectrode\240313-CVEIS_Activation-0p5H2SO4-Ag_AgCl_BLF8-Au_RDE-80cycles.mps
Saved on :
	File : 240319-CVEIS_Activation-0p5H2SO4-Ag_AgCl_BLF8-GC_RDE-80cycles_08_PEIS_C15.mpr
	Directory : C:\Data\mathias\GoldElectrode\
	Host : 192.168.0.1
Device : VMP-300 (SN 0826)
Address : USB
EC-Lab for windows v11.52 (software)
Internet server v11.52 (firmware)
Command interpretor v11.52 (firmware)
Electrode material :
Initial state :
Electrolyte :
Comments :
Cable : special
Electrode surface area : 0.001 cm²
Characteristic mass : 0.001 g
Equivalent Weight : 0.000 g/eq.
Density : 0.000 g/cm3
Volume (V) : 0.001 cm³
Record EIS quality indicators
Cycle Definition : Charge/Discharge alternance
Mode                Single sine
E (V)               0.0000
vs.                 Eoc
tE (h:m:s)          0:00:0.0000
record              0
dI                  0.000
unit dI             mA
dt (s)              0.000
fi                  100.000
unit fi             kHz
ff                  100.000
unit ff             Hz
Nd                  10
Points              per decade
spacing             Logarithmic
Va (mV)             5.0
pw                  0.10
Na                  2
corr                0
E range min (V)     -2.500
E range max (V)     2.500
I Range             Auto
Bandwidth           8
nc cycles           0
goto Ns'            0
nr cycles           0
inc. cycle          0

freq/Hz	Re(Z)/Ohm	-Im(Z)/Ohm	|Z|/Ohm	Phase(Z)/deg	time/s	<Ewe>/V	<I>/mA	Cs/µF	Cp/µF	cycle number	I Range	|Ewe|/V	|I|/A	Ns	(Q-Qo)/mA.h	THD Ewe/%	NSD Ewe/%	NSR Ewe/%	|Ewe h2|/V	|Ewe h3|/V	|Ewe h4|/V	|Ewe h5|/V	|Ewe h6|/V	|Ewe h7|/V	THD I/%	NSD I/%	NSR I/%	|I h2|/A	|I h3|/A	|I h4|/A	|I h5|/A	|I h6|/A	|I h7|/A	Re(Y)/Ohm-1	Im(Y)/Ohm-1	|Y|/Ohm-1	Phase(Y)/deg	Re(C)/nF	Im(C)/nF	|C|/nF	Phase(C)/deg	Re(M)	Im(M)	|M|	Phase(M)/deg	Re(Permittivity)	Im(Permittivity)	|Permittivity|	Phase(Permittivity)/deg	Re(Resistivity)/Ohm.cm	Im(Resistivity)/Ohm.cm	|Resistivity|/Ohm.cm	Phase(Resistivity)/deg	Re(Conductivity)/mS/cm	Im(Conductivity)/mS/cm	|Conductivity|/mS/cm	Phase(Conductivity)/deg	Tan(Delta)	Loss Angle(Delta)/deg	dq/mA.h
100004	7.84442	0.800084	7.88511	-5.82369	1163.73	0.334477	-0.019722	1.98915	0.0204797	1	38	0.00483547	0.000613241	0	-5.60832e-06	3.14618	0.923671	82.772	9.16841e-05	2.81268e-05	5.20049e-05	8.35024e-05	3.81663e-05	4.93812e-05	0.334638	0.182785	6.15101	1.09528e-06	7.70438e-07	6.75395e-07	7.87685e-07	3.40621e-07	8.06405e-07	0.126167	0.0128683	0.126821	5.82369	20.4797	200.793	201.835	-84.1763	0.0000000E+000	0.0000000E+000	0.0000000E+000	84.1763	0.0000000E+000	0.0000000E+000	0.0000000E+000	-84.1763	0.0000000E+000	0.0000000E+000	0.0000000E+000	-5.82369	0.0000000E+000	0.0000000E+000	0.0000000E+000	5.82369	9.80449	84.1763	-5.60832e-06
79433.3	7.9675	0.74085	8.00186	-5.31232	1164.54	0.334466	-0.0108982	2.7045	0.0231828	1	38	0.00516262	0.000645177	0	-8.16574e-06	3.50665	2.45279	78.2908	9.71074e-05	2.41482e-05	9.37475e-05	4.37376e-05	4.68585e-05	6.87349e-05	0.315542	0.149721	5.9192	5.47538e-07	1.20882e-06	5.7523e-07	6.10238e-07	9.66657e-07	6.63346e-07	0.124434	0.0115704	0.124971	5.31232	23.1828	249.32	250.395	-84.6877	0.0000000E+000	0.0000000E+000	0.0000000E+000	84.6877	0.0000000E+000	0.0000000E+000	0.0000000E+000	-84.6877	0.0000000E+000	0.0000000E+000	0.0000000E+000	-5.31232	0.0000000E+000	0.0000000E+000	0.0000000E+000	5.31232	10.7545	84.6877	-2.55741e-06
63093.8	8.00633	0.762066	8.04251	-5.4372	1165.36	0.334442	-0.00951478	3.3101	0.0297196	1	38	0.00516899	0.000642709	0	-9.56116e-06	4.78676	2.58623	77.6031	0.000189424	4.39101e-05	8.16897e-05	4.81487e-05	4.29454e-05	5.39315e-05	0.406318	0.220215	5.88628	1.53954e-06	7.87683e-07	1.15013e-06	5.65855e-07	9.73504e-07	5.53478e-07	0.12378	0.0117817	0.124339	5.4372	29.7196	312.236	313.647	-84.5628	0.0000000E+000	0.0000000E+000	0.0000000E+000	84.5628	0.0000000E+000	0.0000000E+000	0.0000000E+000	-84.5628	0.0000000E+000	0.0000000E+000	0.0000000E+000	-5.4372	0.0000000E+000	0.0000000E+000	0.0000000E+000	5.4372	10.5061	84.5628	-1.39543e-06
50122.5	8.05382	0.96961	8.11197	-6.86488	1166.17	0.334381	-0.0100249	3.27484	0.0467877	1	38	0.00519715	0.000640676	0	-1.13448e-05	2.88754	2.35365	77.1699	3.12312e-05	6.99726e-05	5.20919e-05	4.5609e-05	8.41844e-05	5.5092e-05	0.387332	0.172442	5.9039	5.73949e-07	1.50555e-06	3.03978e-07	1.33782e-06	8.64432e-07	6.20227e-07	0.122391	0.0147348	0.123275	6.86488	46.7877	388.63	391.436	-83.1351	0.0000000E+000	0.0000000E+000	0.0000000E+000	83.1351	0.0000000E+000	0.0000000E+000	0.0000000E+000	-83.1351	0.0000000E+000	0.0000000E+000	0.0000000E+000	-6.86488	0.0000000E+000	0.0000000E+000	0.0000000E+000	6.86488	8.30624	83.1351	-1.78363e-06
39814.1	8.072	0.911651	8.12331	-6.44368	1166.98	0.334411	-0.0100808	4.38485	0.0552263	1	38	0.00518596	0.000638404	0	-1.40437e-05	2.53168	1.44523	76.4271	9.45755e-05	4.00493e-05	3.51648e-05	4.73462e-05	3.10884e-05	4.18506e-05	0.244839	0.169183	5.87374	9.18119e-07	6.04456e-07	5.89126e-07	4.5341e-07	4.51144e-07	3.9498e-07	0.122325	0.0138154	0.123102	6.44368	55.2263	488.988	492.097	-83.5563	0.0000000E+000	0.0000000E+000	0.0000000E+000	83.5563	0.0000000E+000	0.0000000E+000	0.0000000E+000	-83.5563	0.0000000E+000	0.0000000E+000	0.0000000E+000	-6.44368	0.0000000E+000	0.0000000E+000	0.0000000E+000	6.44368	8.85426	83.5563	-2.6989e-06
31621.1	8.14254	0.929913	8.19547	-6.5152	1167.8	0.33448	-0.010712	5.41253	0.0696848	1	38	0.00518211	0.000632314	0	-1.66089e-05	3.98826	1.68062	77.8186	4.83075e-05	0.000132014	9.78719e-05	7.86041e-05	5.75111e-05	4.03424e-05	0.365823	0.0748497	6.02822	1.26375e-06	9.70033e-07	5.06108e-07	1.10159e-06	7.75517e-07	8.13419e-07	0.121231	0.0138451	0.122019	6.5152	69.6847	610.176	614.142	-83.4848	0.0000000E+000	0.0000000E+000	0.0000000E+000	83.4848	0.0000000E+000	0.0000000E+000	0.0000000E+000	-83.4848	0.0000000E+000	0.0000000E+000	0.0000000E+000	-6.5152	0.0000000E+000	0.0000000E+000	0.0000000E+000	6.5152	8.75623	83.4848	-2.56521e-06
25116.9	8.20359	0.990252	8.26314	-6.88284	1168.61	0.334472	-0.00911633	6.39895	0.0918986	1	38	0.00515855	0.000624284	0	-1.99082e-05	4.56383	4.32818	76.8276	5.87338e-05	6.93289e-05	0.000114016	0.000154606	7.26553e-05	1.68248e-05	0.407048	0.252843	5.97928	7.90498e-07	1.006e-06	1.10425e-06	1.65388e-06	4.84166e-07	2.25041e-07	0.120147	0.0145029	0.121019	6.88284	91.8986	761.32	766.847	-83.1172	0.0000000E+000	0.0000000E+000	0.0000000E+000	83.1172	0.0000000E+000	0.0000000E+000	0.0000000E+000	-83.1172	0.0000000E+000	0.0000000E+000	0.0000000E+000	-6.88284	0.0000000E+000	0.0000000E+000	0.0000000E+000	6.88284	8.28435	83.1172	-3.29925e-06
19948.8	8.32903	1.36723	8.4405	-9.32212	1169.43	0.334392	-0.00960043	5.83527	0.153112	1	38	0.00518779	0.00061463	0	-2.27012e-05	5.73582	1.46254	78.0197	4.87454e-05	7.01205e-05	0.000142908	4.80473e-05	0.000114173	0.00020726	0.443343	0.20707	6.28715	9.77826e-07	1.91925e-07	1.37471e-06	8.57766e-07	1.06478e-06	1.52778e-06	0.116912	0.0191914	0.118476	9.32212	153.112	932.742	945.225	-80.6779	0.0000000E+000	0.0000000E+000	0.0000000E+000	80.6779	0.0000000E+000	0.0000000E+000	0.0000000E+000	-80.6779	0.0000000E+000	0.0000000E+000	0.0000000E+000	-9.32212	0.0000000E+000	0.0000000E+000	0.0000000E+000	9.32212	6.09189	80.6779	-2.79305e-06
15847.7	8.39247	1.40024	8.50848	-9.47227	1170.24	0.334465	-0.00960043	7.17218	0.194247	1	38	0.00511237	0.000600855	0	-2.42578e-05	3.48871	2.37868	79.3504	5.71956e-05	4.0065e-05	3.25279e-05	0.000110869	6.68029e-05	7.47165e-05	0.350638	0.17061	6.34741	5.29043e-07	6.36865e-07	1.27398e-06	6.81276e-07	1.01031e-06	3.64013e-07	0.115927	0.0193419	0.11753	9.47227	194.247	1164.23	1180.33	-80.5277	0.0000000E+000	0.0000000E+000	0.0000000E+000	80.5277	0.0000000E+000	0.0000000E+000	0.0000000E+000	-80.5277	0.0000000E+000	0.0000000E+000	0.0000000E+000	-9.47227	0.0000000E+000	0.0000000E+000	0.0000000E+000	9.47227	5.99359	80.5277	-1.55662e-06
12590.9	8.77156	1.8097	8.9563	-11.6574	1171.05	0.334438	-0.00884262	6.98481	0.285176	1	38	0.00542937	0.000606207	0	-2.70408e-05	2.93862	2.9685	73.8392	4.58079e-05	6.20925e-05	5.22047e-05	8.34434e-05	4.65365e-05	7.72262e-05	0.293653	0.244047	6.21613	7.29587e-07	8.91929e-07	6.45031e-07	8.58771e-07	5.84859e-07	4.61662e-07	0.10935	0.0225606	0.111653	11.6574	285.176	1382.24	1411.35	-78.3426	0.0000000E+000	0.0000000E+000	0.0000000E+000	78.3426	0.0000000E+000	0.0000000E+000	0.0000000E+000	-78.3426	0.0000000E+000	0.0000000E+000	0.0000000E+000	-11.6574	0.0000000E+000	0.0000000E+000	0.0000000E+000	11.6574	4.84695	78.3426	-2.78298e-06
10002.2	8.67241	2.02287	8.90521	-13.1297	1171.87	0.334467	-0.00916846	7.86603	0.405885	1	38	0.00510138	0.000572853	0	-2.88089e-05	4.00514	2.14842	79.9861	6.74907e-05	0.000103686	5.71686e-05	6.39515e-05	0.000111834	3.1603e-05	0.310834	0.14562	6.60078	3.98355e-07	9.30155e-07	6.01792e-07	5.82612e-07	5.54361e-07	1.04805e-06	0.109358	0.0255082	0.112294	13.1297	405.885	1740.1	1786.81	-76.8703	0.0000000E+000	0.0000000E+000	0.0000000E+000	76.8703	0.0000000E+000	0.0000000E+000	0.0000000E+000	-76.8703	0.0000000E+000	0.0000000E+000	0.0000000E+000	-13.1297	0.0000000E+000	0.0000000E+000	0.0000000E+000	13.1297	4.28718	76.8703	-1.7681e-06
7944	8.75672	2.34153	9.06438	-14.9705	1172.72	0.334307	-0.00890965	8.55621	0.570959	1	38	0.00518754	0.000572299	0	-3.06051e-05	3.97924	2.02076	76.9291	2.18272e-05	6.70622e-05	4.95567e-05	8.85922e-05	0.000134592	7.65409e-05	0.2684	0.163225	6.44019	2.09521e-07	8.30743e-07	6.6622e-07	2.92339e-07	6.13092e-07	6.7029e-07	0.106578	0.0284986	0.110322	14.9705	570.958	2135.24	2210.26	-75.0295	0.0000000E+000	0.0000000E+000	0.0000000E+000	75.0295	0.0000000E+000	0.0000000E+000	0.0000000E+000	-75.0295	0.0000000E+000	0.0000000E+000	0.0000000E+000	-14.9705	0.0000000E+000	0.0000000E+000	0.0000000E+000	14.9705	3.73975	75.0295	-1.79619e-06
6307.74	8.92992	2.84911	9.37341	-17.6954	1173.62	0.334301	-0.00905488	8.85601	0.8182	1	38	0.0051359	0.000547922	0	-3.28588e-05	3.60799	3.42	77.1962	5.03879e-05	9.57563e-05	4.20308e-05	9.98119e-05	6.49031e-05	2.22395e-05	0.312261	0.387572	7.04068	3.78074e-07	4.44623e-07	8.67769e-07	8.66559e-07	3.85755e-07	8.21532e-07	0.101637	0.0324275	0.106685	17.6954	818.2	2564.48	2691.84	-72.3046	0.0000000E+000	0.0000000E+000	0.0000000E+000	72.3046	0.0000000E+000	0.0000000E+000	0.0000000E+000	-72.3046	0.0000000E+000	0.0000000E+000	0.0000000E+000	-17.6954	0.0000000E+000	0.0000000E+000	0.0000000E+000	17.6954	3.13429	72.3046	-2.25367e-06
5011.6	9.06036	3.36063	9.66353	-20.3506	1174.37	0.334372	-0.00953526	9.44981	1.14286	1	38	0.00542688	0.000561583	0	-3.51879e-05	3.02867	1.8027	71.6646	7.12555e-05	5.44793e-05	8.41442e-05	4.64175e-05	7.19321e-05	4.61981e-05	0.387036	0.191108	6.68711	1.04067e-06	7.28436e-07	1.08125e-06	8.4658e-07	5.08875e-07	5.79116e-07	0.0970227	0.0359872	0.103482	20.3506	1142.86	3081.18	3286.3	-69.6494	0.0000000E+000	0.0000000E+000	0.0000000E+000	69.6494	0.0000000E+000	0.0000000E+000	0.0000000E+000	-69.6494	0.0000000E+000	0.0000000E+000	0.0000000E+000	-20.3506	0.0000000E+000	0.0000000E+000	0.0000000E+000	20.3506	2.69603	69.6494	-2.32916e-06
3981.28	9.2189	4.05127	10.0698	-23.7232	1175.34	0.33441	-0.00846838	9.86749	1.59715	1	38	0.00513893	0.000510331	0	-3.75691e-05	5.19712	1.10619	78.9421	0.00011272	3.03322e-05	8.87451e-05	0.00016991	9.04703e-05	5.21363e-05	0.366318	0.335944	7.291	5.48097e-07	7.29863e-07	3.22786e-07	1.2625e-06	5.56827e-07	5.36176e-07	0.0909154	0.039953	0.0993068	23.7232	1597.15	3634.42	3969.87	-66.2768	0.0000000E+000	0.0000000E+000	0.0000000E+000	66.2768	0.0000000E+000	0.0000000E+000	0.0000000E+000	-66.2768	0.0000000E+000	0.0000000E+000	0.0000000E+000	-23.7232	0.0000000E+000	0.0000000E+000	0.0000000E+000	23.7232	2.27556	66.2768	-2.38118e-06
3163.04	9.31988	4.8217	10.4933	-27.3551	1176.08	0.334283	-0.00880352	10.4355	2.2034	1	38	0.00517536	0.000493207	0	-3.91078e-05	4.4804	2.2942	75.9182	5.37311e-05	6.2912e-05	6.09791e-05	8.56208e-05	9.46559e-05	0.000159155	0.498682	0.184162	7.84024	6.31364e-07	9.88168e-07	9.16056e-07	9.4328e-07	1.41871e-06	8.23777e-07	0.0846423	0.0437903	0.095299	27.3551	2203.4	4258.95	4795.17	-62.6449	0.0000000E+000	0.0000000E+000	0.0000000E+000	62.6449	0.0000000E+000	0.0000000E+000	0.0000000E+000	-62.6449	0.0000000E+000	0.0000000E+000	0.0000000E+000	-27.3551	0.0000000E+000	0.0000000E+000	0.0000000E+000	27.3551	1.9329	62.6449	-1.53874e-06
2512.41	9.58514	5.99019	11.303	-32.0031	1176.82	0.334332	-0.00849444	10.5752	2.97019	1	38	0.00524876	0.00046437	0	-4.10958e-05	4.60279	4.13609	76.3272	7.2601e-05	0.000103281	0.000155511	7.62164e-05	7.21509e-05	6.92527e-05	0.39524	0.254608	8.25898	1.04357e-06	7.28591e-07	3.36467e-07	6.17844e-07	5.14147e-07	8.50979e-07	0.0750261	0.0468872	0.0884722	32.0031	2970.19	4752.72	5604.5	-57.9969	0.0000000E+000	0.0000000E+000	0.0000000E+000	57.9969	0.0000000E+000	0.0000000E+000	0.0000000E+000	-57.9969	0.0000000E+000	0.0000000E+000	0.0000000E+000	-32.0031	0.0000000E+000	0.0000000E+000	0.0000000E+000	32.0031	1.60014	57.9969	-1.98791e-06
1995.64	9.7859	7.1933	12.1453	-36.3184	1177.57	0.334322	-0.00866016	11.0869	3.88913	1	38	0.00521696	0.000429547	0	-4.25429e-05	2.3442	2.15289	76.4791	3.71237e-05	3.74398e-05	3.28938e-05	7.00501e-05	3.7188e-05	6.05274e-05	0.479966	0.170962	8.92582	9.00459e-07	2.25686e-07	1.33099e-06	5.47289e-07	5.28191e-07	7.00092e-07	0.0663417	0.0487657	0.0823366	36.3184	3889.14	5290.85	6566.46	-53.6816	0.0000000E+000	0.0000000E+000	0.0000000E+000	53.6816	0.0000000E+000	0.0000000E+000	0.0000000E+000	-53.6816	0.0000000E+000	0.0000000E+000	0.0000000E+000	-36.3184	0.0000000E+000	0.0000000E+000	0.0000000E+000	36.3184	1.36042	53.6816	-1.44715e-06
1584.49	10.2638	8.74902	13.4867	-40.4448	1178.31	0.334265	-0.00805131	11.4808	4.83147	1	38	0.00524813	0.000389134	0	-4.39974e-05	3.88094	1.34685	76.4566	6.99634e-05	9.71204e-05	8.63515e-05	8.14532e-05	7.05682e-05	5.93361e-05	0.544555	0.209797	10.1483	4.83525e-07	1.16977e-06	5.99154e-07	3.2109e-07	9.41826e-07	5.94365e-07	0.0564283	0.0481004	0.0741472	40.4448	4831.47	5667.96	7447.74	-49.5552	0.0000000E+000	0.0000000E+000	0.0000000E+000	49.5552	0.0000000E+000	0.0000000E+000	0.0000000E+000	-49.5552	0.0000000E+000	0.0000000E+000	0.0000000E+000	-40.4448	0.0000000E+000	0.0000000E+000	0.0000000E+000	40.4448	1.17314	49.5552	-1.45448e-06
1258.79	10.4012	10.5424	14.8097	-45.3862	1179.05	0.33436	-0.00858568	11.993	6.07734	1	38	0.00512187	0.000345846	0	-4.58568e-05	3.53267	3.60843	78.2793	4.29346e-05	4.14405e-05	5.25392e-05	0.000105034	7.81455e-05	8.18696e-05	0.646067	0.423301	11.0559	1.01923e-06	7.64931e-07	7.64355e-07	1.40074e-06	2.60908e-07	7.7267e-07	0.0474232	0.048067	0.0675233	45.3862	6077.34	5995.95	8537.3	-44.6138	0.0000000E+000	0.0000000E+000	0.0000000E+000	44.6138	0.0000000E+000	0.0000000E+000	0.0000000E+000	-44.6138	0.0000000E+000	0.0000000E+000	0.0000000E+000	-45.3862	0.0000000E+000	0.0000000E+000	0.0000000E+000	45.3862	0.986607	44.6138	-1.85945e-06
999.682	11.2704	13.0952	17.2774	-49.283	1179.8	0.334395	-0.00752997	12.1575	6.98418	1	38	0.00523757	0.000303146	0	-4.73396e-05	3.87117	2.06475	75.1411	9.77712e-05	5.62601e-05	6.77051e-05	5.67519e-05	7.89835e-05	7.75513e-05	0.628169	0.377843	12.8027	4.84324e-07	8.56541e-07	5.84982e-07	4.84276e-07	1.21447e-06	4.52466e-07	0.0377559	0.0438689	0.0578791	49.283	6984.18	6010.96	9214.68	-40.717	0.0000000E+000	0.0000000E+000	0.0000000E+000	40.717	0.0000000E+000	0.0000000E+000	0.0000000E+000	-40.717	0.0000000E+000	0.0000000E+000	0.0000000E+000	-49.283	0.0000000E+000	0.0000000E+000	0.0000000E+000	49.283	0.860653	40.717	-1.48275e-06
794.239	11.5086	15.8685	19.6025	-54.0486	1180.54	0.334372	-0.00803642	12.6279	8.27527	1	38	0.00512629	0.000261512	0	-4.90925e-05	4.41762	2.77493	78.4818	0.000100513	8.91147e-05	5.88138e-05	0.000130738	8.21342e-05	5.85497e-05	0.633569	0.437041	14.5718	5.71265e-07	6.72283e-07	5.08146e-07	7.39117e-07	7.68297e-07	5.66914e-07	0.0299502	0.0412965	0.0510139	54.0486	8275.27	6001.61	10222.5	-35.9514	0.0000000E+000	0.0000000E+000	0.0000000E+000	35.9514	0.0000000E+000	0.0000000E+000	0.0000000E+000	-35.9514	0.0000000E+000	0.0000000E+000	0.0000000E+000	-54.0486	0.0000000E+000	0.0000000E+000	0.0000000E+000	54.0486	0.725247	35.9514	-1.75294e-06
631.01	12.6287	19.2757	23.0443	-56.7687	1181.29	0.334411	-0.00376141	13.085	9.15522	1	38	0.00512858	0.000222554	0	-5.01714e-05	4.7481	2.74825	78.2843	9.16411e-05	8.96229e-05	0.000102079	0.000125277	8.30412e-05	6.3913e-05	0.972062	0.409162	17.5309	8.01816e-07	1.05996e-06	7.24612e-07	8.88777e-07	6.10621e-07	7.96137e-07	0.0237812	0.0362981	0.0433947	56.7687	9155.21	5998.16	10945.1	-33.2313	0.0000000E+000	0.0000000E+000	0.0000000E+000	33.2313	0.0000000E+000	0.0000000E+000	0.0000000E+000	-33.2313	0.0000000E+000	0.0000000E+000	0.0000000E+000	-56.7687	0.0000000E+000	0.0000000E+000	0.0000000E+000	56.7687	0.655163	33.2314	-1.07886e-06
501.122	12.5427	24.0617	27.1345	-62.4681	1182.03	0.334395	-0.00530496	13.1993	10.379	1	38	0.00511042	0.000188336	0	-5.1203e-05	3.82841	2.53849	78.2892	4.9985e-05	8.45756e-05	8.62797e-05	4.42198e-05	5.51673e-05	0.000115168	0.951108	0.600006	20.325	5.92547e-07	4.64961e-07	7.92934e-07	8.32097e-07	9.05417e-07	4.27202e-07	0.0170352	0.0326799	0.0368534	62.4681	10379	5410.33	11704.5	-27.5319	0.0000000E+000	0.0000000E+000	0.0000000E+000	27.5319	0.0000000E+000	0.0000000E+000	0.0000000E+000	-27.5319	0.0000000E+000	0.0000000E+000	0.0000000E+000	-62.4681	0.0000000E+000	0.0000000E+000	0.0000000E+000	62.4681	0.521275	27.5319	-1.03159e-06
398.089	14.5336	29.2515	32.663	-63.5796	1183.03	0.334339	-0.000980568	13.6676	10.9616	1	39	0.00533331	0.000163283	0	-5.18054e-05	3.35303	2.61808	72.0112	4.4446e-05	7.2049e-05	6.48163e-05	8.29274e-05	5.43705e-05	8.1912e-05	0.629617	0.443179	10.9978	1.83144e-07	7.11735e-07	3.90733e-07	3.1596e-07	2.15252e-07	4.25624e-07	0.0136226	0.027418	0.0306157	63.5796	10961.6	5446.27	12240.1	-26.4204	0.0000000E+000	0.0000000E+000	0.0000000E+000	26.4204	0.0000000E+000	0.0000000E+000	0.0000000E+000	-26.4204	0.0000000E+000	0.0000000E+000	0.0000000E+000	-63.5796	0.0000000E+000	0.0000000E+000	0.0000000E+000	63.5796	0.496849	26.4204	-6.02394e-07
316.316	14.8901	36.1332	39.081	-67.604	1183.77	0.334331	-0.000655523	13.9249	11.9035	1	39	0.00524092	0.000134104	0	-5.20294e-05	4.1062	1.33891	73.5202	9.8332e-05	4.44023e-05	8.45207e-05	0.0001069	0.000104092	4.19333e-05	0.720632	0.305055	13.7148	2.57393e-07	3.67497e-07	4.53651e-07	5.36471e-07	1.75132e-07	3.44938e-07	0.00974916	0.0236579	0.0255879	67.604	11903.5	4905.31	12874.6	-22.396	0.0000000E+000	0.0000000E+000	0.0000000E+000	22.396	0.0000000E+000	0.0000000E+000	0.0000000E+000	-22.396	0.0000000E+000	0.0000000E+000	0.0000000E+000	-67.604	0.0000000E+000	0.0000000E+000	0.0000000E+000	67.604	0.412089	22.396	-2.24005e-07
251.206	16.6974	43.9111	46.9786	-69.1804	1184.51	0.3344	-0.00059756	14.4283	12.6056	1	39	0.00513667	0.000109341	0	-5.21009e-05	4.11493	2.20478	73.8742	6.00604e-05	9.0452e-05	6.77198e-05	9.55236e-05	9.51131e-05	9.20515e-05	1.05226	0.495263	15.9101	3.31252e-07	4.32969e-07	1.96536e-07	4.70361e-07	3.01577e-07	7.44072e-07	0.0075657	0.0198964	0.0212863	69.1804	12605.6	4793.35	13486.2	-20.8195	0.0000000E+000	0.0000000E+000	0.0000000E+000	20.8195	0.0000000E+000	0.0000000E+000	0.0000000E+000	-20.8195	0.0000000E+000	0.0000000E+000	0.0000000E+000	-69.1804	0.0000000E+000	0.0000000E+000	0.0000000E+000	69.1804	0.380255	20.8195	-7.15177e-08
199.553	18.4463	53.7215	56.8002	-71.0491	1185.26	0.334353	-0.000506607	14.8461	13.2803	1	39	0.00507401	8.93308e-05	0	-5.23793e-05	3.75022	1.69024	75.4498	5.62154e-05	4.10288e-05	7.38051e-05	0.00011266	7.56449e-05	3.66353e-05	1.00078	0.620983	20.1094	3.67972e-07	4.28947e-07	3.04773e-07	3.91516e-07	3.33563e-07	1.38444e-07	0.00571753	0.0166513	0.0176056	71.0491	13280.3	4560.05	14041.4	-18.9509	0.0000000E+000	0.0000000E+000	0.0000000E+000	18.9509	0.0000000E+000	0.0000000E+000	0.0000000E+000	-18.9509	0.0000000E+000	0.0000000E+000	0.0000000E+000	-71.0491	0.0000000E+000	0.0000000E+000	0.0000000E+000	71.0491	0.343368	18.9509	-2.78438e-07
158.529	19.7434	65.8577	68.7534	-73.3119	1186.01	0.334359	-0.000764557	15.2442	13.9871	1	39	0.00506967	7.3737e-05	0	-5.25758e-05	3.11373	1.95636	76.3689	6.11585e-05	4.03774e-05	9.2032e-05	6.20921e-05	7.11219e-05	2.90583e-05	1.38224	1.07538	24.3271	4.53986e-07	4.30182e-07	3.09281e-07	3.03433e-07	4.92309e-07	3.73709e-07	0.00417669	0.0139321	0.0145447	73.3119	13987.1	4193.18	14602.2	-16.6881	0.0000000E+000	0.0000000E+000	0.0000000E+000	16.6881	0.0000000E+000	0.0000000E+000	0.0000000E+000	-16.6881	0.0000000E+000	0.0000000E+000	0.0000000E+000	-73.3119	0.0000000E+000	0.0000000E+000	0.0000000E+000	73.3119	0.299788	16.6881	-1.9644e-07
125.927	22.5911	82.1202	85.1709	-74.6185	1186.75	0.334375	-0.000313519	15.3905	14.3077	1	39	0.00510397	5.99262e-05	0	-5.26078e-05	3.71056	1.58362	76.6835	3.34898e-05	6.56162e-05	5.67651e-05	7.3131e-05	0.000126678	6.87998e-05	1.34033	0.759467	29.8905	2.82428e-07	3.80225e-07	2.8831e-07	2.30265e-07	4.64268e-07	2.18009e-07	0.00311426	0.0113205	0.0117411	74.6185	14307.7	3936.02	14839.2	-15.3815	0.0000000E+000	0.0000000E+000	0.0000000E+000	15.3815	0.0000000E+000	0.0000000E+000	0.0000000E+000	-15.3815	0.0000000E+000	0.0000000E+000	0.0000000E+000	-74.6185	0.0000000E+000	0.0000000E+000	0.0000000E+000	74.6185	0.275098	15.3815	-3.19879e-08
99.9682	26.2359	99.6053	103.003	-75.2435	1187.48	0.334381	-0.000952614	15.9836	14.9467	1	39	0.00504079	4.89384e-05	0	-5.27244e-05	4.4213	2.69192	77.3952	5.49128e-05	4.57559e-05	0.000111981	9.47628e-05	8.21294e-05	0.00010368	2.08234	1.10444	36.5344	4.50374e-07	4.0989e-07	2.94461e-07	5.30564e-07	2.9345e-07	3.79481e-07	0.00247286	0.00938827	0.00970849	75.2435	14946.7	3936.94	15456.5	-14.7565	0.0000000E+000	0.0000000E+000	0.0000000E+000	14.7565	0.0000000E+000	0.0000000E+000	0.0000000E+000	-14.7565	0.0000000E+000	0.0000000E+000	0.0000000E+000	-75.2435	0.0000000E+000	0.0000000E+000	0.0000000E+000	75.2435	0.263399	14.7565	-1.16654e-07