File: Python/Data/GoldElectrode/240319/Carbon/240319-CVEIS_Activation-0p5H2SO4-Ag_AgCl_BLF8-GC_RDE-80cycles_06_PEIS_C15.mpt
EC-Lab ASCII FILE
Nb header lines : 66

Potentio Electrochemical Impedance Spectroscopy

Run on channel : 15 (SN 19485)
User :
Electrode connection : standard
Potential control : Ewe
Ewe ctrl range : min = -2.50 V, max = 2.50 V
Ewe,I filtering : 50 kHz
Safety Limits :
	Do not start on E overload
Channel : Floating
Acquisition started on : 03/19/2024 14:45:18.810
Loaded Setting File :  C:\Data\mathias\GoldElectrode\240313-CVEIS_Activation-0p5H2SO4-Ag_AgCl_BLF8-Au_RDE-80cycles.mps
Saved on :
	File : 240319-CVEIS_Activation-0p5H2SO4-Ag_AgCl_BLF8-GC_RDE-80cycles_06_PEIS_C15.mpr
	Directory : C:\Data\mathias\GoldElectrode\
	Host : 192.168.0.1
Device : VMP-300 (SN 0826)
Address : USB
EC-Lab for windows v11.52 (software)
Internet server v11.52 (firmware)
Command interpretor v11.52 (firmware)
Electrode material :
Initial state :
Electrolyte :
Comments :
Cable : special
Electrode surface area : 0.001 cm²
Characteristic mass : 0.001 g
Equivalent Weight : 0.000 g/eq.
Density : 0.000 g/cm3
Volume (V) : 0.001 cm³
Record EIS quality indicators
Cycle Definition : Charge/Discharge alternance
Mode                Single sine
E (V)               0.0000
vs.                 Eoc
tE (h:m:s)          0:00:0.0000
record              0
dI                  0.000
unit dI             mA
dt (s)              0.000
fi                  100.000
unit fi             kHz
ff                  100.000
unit ff             Hz
Nd                  10
Points              per decade
spacing             Logarithmic
Va (mV)             5.0
pw                  0.10
Na                  2
corr                0
E range min (V)     -2.500
E range max (V)     2.500
I Range             Auto
Bandwidth           8
nc cycles           0
goto Ns'            0
nr cycles           0
inc. cycle          0

freq/Hz	Re(Z)/Ohm	-Im(Z)/Ohm	|Z|/Ohm	Phase(Z)/deg	time/s	<Ewe>/V	<I>/mA	Cs/µF	Cp/µF	cycle number	I Range	|Ewe|/V	|I|/A	Ns	(Q-Qo)/mA.h	THD Ewe/%	NSD Ewe/%	NSR Ewe/%	|Ewe h2|/V	|Ewe h3|/V	|Ewe h4|/V	|Ewe h5|/V	|Ewe h6|/V	|Ewe h7|/V	THD I/%	NSD I/%	NSR I/%	|I h2|/A	|I h3|/A	|I h4|/A	|I h5|/A	|I h6|/A	|I h7|/A	Re(Y)/Ohm-1	Im(Y)/Ohm-1	|Y|/Ohm-1	Phase(Y)/deg	Re(C)/nF	Im(C)/nF	|C|/nF	Phase(C)/deg	Re(M)	Im(M)	|M|	Phase(M)/deg	Re(Permittivity)	Im(Permittivity)	|Permittivity|	Phase(Permittivity)/deg	Re(Resistivity)/Ohm.cm	Im(Resistivity)/Ohm.cm	|Resistivity|/Ohm.cm	Phase(Resistivity)/deg	Re(Conductivity)/mS/cm	Im(Conductivity)/mS/cm	|Conductivity|/mS/cm	Phase(Conductivity)/deg	Tan(Delta)	Loss Angle(Delta)/deg	dq/mA.h
100004	8.03739	0.898681	8.08748	-6.37988	776.66	0.334453	-0.0202135	1.77092	0.0218667	1	38	0.0047885	0.000592088	0	-5.80726e-06	3.82505	1.87266	84.2727	5.67837e-06	8.8663e-05	4.61833e-05	0.000118639	8.13265e-05	3.56091e-05	0.270597	0.173181	6.57389	5.65866e-07	7.18095e-07	8.31946e-07	4.81022e-07	6.9802e-07	3.17297e-07	0.122882	0.0137398	0.123648	6.37988	21.8667	195.566	196.784	-83.6201	0.0000000E+000	0.0000000E+000	0.0000000E+000	83.6201	0.0000000E+000	0.0000000E+000	0.0000000E+000	-83.6201	0.0000000E+000	0.0000000E+000	0.0000000E+000	-6.37988	0.0000000E+000	0.0000000E+000	0.0000000E+000	6.37988	8.94355	83.6201	-5.80726e-06
79433.3	7.96692	0.820377	8.00905	-5.87919	777.473	0.334449	-0.00999702	2.44233	0.0256253	1	38	0.00511129	0.000638189	0	-8.09513e-06	2.69493	1.48081	79.8351	6.0769e-05	3.52918e-05	4.80694e-05	3.14443e-05	7.67505e-05	5.86555e-05	0.292438	0.134023	5.92411	6.79503e-07	7.28124e-07	1.30256e-06	5.48e-07	5.10657e-07	3.05416e-07	0.124202	0.0127894	0.124859	5.87919	25.6253	248.855	250.171	-84.1208	0.0000000E+000	0.0000000E+000	0.0000000E+000	84.1208	0.0000000E+000	0.0000000E+000	0.0000000E+000	-84.1208	0.0000000E+000	0.0000000E+000	0.0000000E+000	-5.87919	0.0000000E+000	0.0000000E+000	0.0000000E+000	5.87919	9.71129	84.1208	-2.28787e-06
63093.8	7.98551	0.899132	8.03597	-6.42418	778.287	0.334494	-0.0102018	2.8055	0.035122	1	38	0.00507635	0.000631704	0	-1.09521e-05	4.76093	1.64687	78.8446	9.4816e-05	8.13359e-05	9.84026e-05	9.46766e-05	0.000108886	4.58818e-05	0.296931	0.209502	5.98956	7.32454e-07	7.62415e-07	8.00477e-07	4.32828e-07	7.11431e-07	5.59818e-07	0.123659	0.0139234	0.12444	6.42418	35.122	311.931	313.903	-83.5758	0.0000000E+000	0.0000000E+000	0.0000000E+000	83.5758	0.0000000E+000	0.0000000E+000	0.0000000E+000	-83.5758	0.0000000E+000	0.0000000E+000	0.0000000E+000	-6.42418	0.0000000E+000	0.0000000E+000	0.0000000E+000	6.42418	8.88136	83.5758	-2.857e-06
50122.5	8.08793	0.941878	8.14258	-6.64245	779.101	0.334467	-0.0101031	3.37126	0.0451084	1	38	0.00517412	0.000635439	0	-1.32604e-05	4.15016	2.07849	77.0404	0.000103941	8.57016e-05	6.16457e-05	5.09007e-05	9.0084e-05	7.97962e-05	0.315114	0.227705	5.89278	7.66492e-07	9.10625e-07	3.32379e-07	6.48617e-07	1.06977e-06	8.34074e-07	0.121987	0.0142059	0.122811	6.64245	45.1085	387.347	389.965	-83.3575	0.0000000E+000	0.0000000E+000	0.0000000E+000	83.3575	0.0000000E+000	0.0000000E+000	0.0000000E+000	-83.3575	0.0000000E+000	0.0000000E+000	0.0000000E+000	-6.64245	0.0000000E+000	0.0000000E+000	0.0000000E+000	6.64245	8.58702	83.3575	-2.30831e-06
39814.1	8.03672	1.1003	8.11169	-7.79582	779.915	0.334394	-0.0103098	3.63307	0.0668452	1	38	0.00507618	0.000625785	0	-1.68675e-05	4.30898	2.54478	77.5572	0.000156523	0.000107516	2.88182e-05	2.48244e-05	6.0397e-05	6.95168e-05	0.361739	0.224662	6.06552	1.08052e-06	1.33649e-06	7.6897e-07	8.37114e-07	7.12572e-07	3.37617e-07	0.12214	0.0167219	0.123279	7.79582	66.8452	488.247	492.802	-82.2042	0.0000000E+000	0.0000000E+000	0.0000000E+000	82.2042	0.0000000E+000	0.0000000E+000	0.0000000E+000	-82.2042	0.0000000E+000	0.0000000E+000	0.0000000E+000	-7.79582	0.0000000E+000	0.0000000E+000	0.0000000E+000	7.79582	7.30415	82.2042	-3.60705e-06
31621.1	8.23193	1.28027	8.33089	-8.84009	780.729	0.334443	-0.00977917	3.93135	0.0928455	1	38	0.00514944	0.000618114	0	-1.98064e-05	5.02533	1.83221	77.3084	0.000181902	4.6697e-05	7.58866e-05	6.13424e-05	9.90035e-05	9.12569e-05	0.350143	0.155353	6.16172	1.04213e-06	7.28745e-07	1.228e-06	9.02767e-07	4.15726e-07	2.88622e-07	0.118609	0.0184467	0.120035	8.84009	92.8455	596.982	604.159	-81.1599	0.0000000E+000	0.0000000E+000	0.0000000E+000	81.1599	0.0000000E+000	0.0000000E+000	0.0000000E+000	-81.1599	0.0000000E+000	0.0000000E+000	0.0000000E+000	-8.84009	0.0000000E+000	0.0000000E+000	0.0000000E+000	8.84009	6.42985	81.1599	-2.9389e-06
25116.9	8.09145	1.35297	8.20378	-9.49258	781.544	0.3344	-0.0103154	4.68346	0.127383	1	38	0.00490877	0.000598355	0	-2.17576e-05	3.36416	3.73331	81.6404	5.69659e-05	9.34316e-05	5.06451e-05	9.0393e-05	2.11406e-05	5.56609e-05	0.318073	0.16749	6.30194	7.70823e-07	4.57873e-07	6.3455e-07	8.08336e-07	7.86126e-07	6.21098e-07	0.120226	0.0201029	0.121895	9.49258	127.383	761.819	772.396	-80.5074	0.0000000E+000	0.0000000E+000	0.0000000E+000	80.5074	0.0000000E+000	0.0000000E+000	0.0000000E+000	-80.5074	0.0000000E+000	0.0000000E+000	0.0000000E+000	-9.49258	0.0000000E+000	0.0000000E+000	0.0000000E+000	9.49258	5.98052	80.5074	-1.9512e-06
19948.8	8.35239	1.63233	8.5104	-11.0581	782.358	0.334443	-0.009768	4.8876	0.179809	1	38	0.00519295	0.000610189	0	-2.32332e-05	5.87765	2.19717	77.2774	6.97304e-05	5.85625e-05	9.11529e-05	5.68964e-05	6.07577e-05	0.000234981	0.367986	0.211904	6.41807	7.91402e-07	5.04774e-07	8.24134e-07	8.00665e-07	5.55066e-07	1.48595e-06	0.115322	0.0225376	0.117503	11.0581	179.809	920.057	937.462	-78.9419	0.0000000E+000	0.0000000E+000	0.0000000E+000	78.9419	0.0000000E+000	0.0000000E+000	0.0000000E+000	-78.9419	0.0000000E+000	0.0000000E+000	0.0000000E+000	-11.0581	0.0000000E+000	0.0000000E+000	0.0000000E+000	11.0581	5.11685	78.9419	-1.47566e-06
15847.7	8.55887	1.80414	8.74695	-11.9032	783.172	0.334433	-0.00960974	5.56652	0.236816	1	38	0.00518733	0.000593044	0	-2.5796e-05	3.22194	2.04577	76.324	5.83696e-05	4.67996e-05	2.20553e-05	7.6298e-05	8.80977e-05	8.0119e-05	0.299568	0.177915	6.46204	3.42522e-07	6.98898e-07	3.63458e-07	7.25207e-07	6.80274e-07	9.07147e-07	0.111867	0.0235807	0.114326	11.9032	236.816	1123.46	1148.15	-78.0968	0.0000000E+000	0.0000000E+000	0.0000000E+000	78.0968	0.0000000E+000	0.0000000E+000	0.0000000E+000	-78.0968	0.0000000E+000	0.0000000E+000	0.0000000E+000	-11.9032	0.0000000E+000	0.0000000E+000	0.0000000E+000	11.9032	4.74401	78.0968	-2.56276e-06
12590.9	8.60904	2.14627	8.87255	-13.9987	783.986	0.334423	-0.00964512	5.88948	0.344628	1	38	0.00519111	0.000585076	0	-2.83956e-05	4.68768	3.43073	76.9039	8.0491e-05	8.06105e-05	0.000108562	0.000128147	5.85374e-05	0.000116149	0.34282	0.267077	6.57027	9.41843e-07	4.70439e-07	1.01965e-06	3.89767e-07	1.02839e-06	3.76119e-07	0.10936	0.0272639	0.112707	13.9987	344.628	1382.36	1424.67	-76.0013	0.0000000E+000	0.0000000E+000	0.0000000E+000	76.0013	0.0000000E+000	0.0000000E+000	0.0000000E+000	-76.0013	0.0000000E+000	0.0000000E+000	0.0000000E+000	-13.9987	0.0000000E+000	0.0000000E+000	0.0000000E+000	13.9987	4.01116	76.0013	-2.59961e-06
10002.2	8.89192	2.53818	9.24709	-15.9313	784.8	0.334411	-0.0102056	6.26903	0.47232	1	38	0.00519126	0.000561394	0	-3.0591e-05	3.62486	2.13106	75.4519	4.64061e-05	0.000110152	8.36377e-05	6.77282e-05	1.89453e-05	7.82742e-05	0.313198	0.202968	6.77295	7.21716e-07	7.38174e-07	7.99703e-07	5.38951e-07	7.65888e-07	4.38249e-07	0.103989	0.0296834	0.108142	15.9313	472.32	1654.66	1720.75	-74.0687	0.0000000E+000	0.0000000E+000	0.0000000E+000	74.0687	0.0000000E+000	0.0000000E+000	0.0000000E+000	-74.0687	0.0000000E+000	0.0000000E+000	0.0000000E+000	-15.9313	0.0000000E+000	0.0000000E+000	0.0000000E+000	15.9313	3.50326	74.0687	-2.19541e-06
7944	8.98814	2.90976	9.4474	-17.9385	785.649	0.33432	-0.0091517	6.88531	0.653152	1	38	0.00524067	0.000554721	0	-3.22272e-05	3.55668	2.19899	75.5371	5.86828e-05	0.000101823	4.95306e-05	3.46632e-05	8.34437e-05	8.58662e-05	0.292971	0.22033	6.97474	4.96647e-07	8.07575e-07	5.66736e-07	5.102e-07	8.49646e-07	4.40434e-07	0.100704	0.0326012	0.105849	17.9385	653.152	2017.56	2120.65	-72.0615	0.0000000E+000	0.0000000E+000	0.0000000E+000	72.0615	0.0000000E+000	0.0000000E+000	0.0000000E+000	-72.0615	0.0000000E+000	0.0000000E+000	0.0000000E+000	-17.9385	0.0000000E+000	0.0000000E+000	0.0000000E+000	17.9385	3.08896	72.0615	-1.63622e-06
6307.74	9.0637	3.45582	9.70017	-20.8709	786.551	0.334253	-0.0099542	7.30123	0.926699	1	38	0.00506928	0.000522597	0	-3.4777e-05	3.22718	2.58409	80.2053	3.0753e-05	6.78695e-05	6.1737e-05	9.25469e-05	7.55652e-05	4.77533e-05	0.381228	0.254804	7.32027	6.67316e-07	7.72607e-07	1.17352e-06	6.52506e-07	6.93756e-07	6.25865e-07	0.0963267	0.0367276	0.103091	20.8709	926.699	2430.49	2601.16	-69.1291	0.0000000E+000	0.0000000E+000	0.0000000E+000	69.1291	0.0000000E+000	0.0000000E+000	0.0000000E+000	-69.1291	0.0000000E+000	0.0000000E+000	0.0000000E+000	-20.8709	0.0000000E+000	0.0000000E+000	0.0000000E+000	20.8709	2.62274	69.1291	-2.54973e-06
5011.6	9.25593	4.39085	10.2446	-25.3789	787.307	0.334372	-0.0090102	7.2326	1.32862	1	38	0.00541247	0.000528324	0	-3.63047e-05	3.84959	1.10539	73.0301	9.41545e-05	6.24646e-05	7.66354e-05	9.42429e-05	9.80113e-05	3.214e-05	0.367445	0.192041	7.1316	8.7924e-07	8.06983e-07	1.04938e-06	5.80431e-07	3.7718e-07	4.00164e-07	0.0881922	0.0418368	0.0976124	25.3789	1328.62	2800.74	3099.91	-64.6211	0.0000000E+000	0.0000000E+000	0.0000000E+000	64.6211	0.0000000E+000	0.0000000E+000	0.0000000E+000	-64.6211	0.0000000E+000	0.0000000E+000	0.0000000E+000	-25.3789	0.0000000E+000	0.0000000E+000	0.0000000E+000	25.3789	2.108	64.6211	-1.52771e-06
3981.28	9.46472	5.06799	10.7362	-28.1673	788.272	0.33439	-0.0081053	7.88791	1.75766	1	38	0.00505076	0.000470443	0	-3.81349e-05	5.68532	1.87236	78.2226	3.48823e-05	0.000104032	7.1057e-05	0.000216948	0.000108518	6.34172e-05	0.58494	0.294677	7.98574	6.54921e-07	1.18276e-06	5.7246e-07	2.13463e-06	6.50459e-07	3.99005e-07	0.0821124	0.043968	0.0931431	28.1673	1757.66	3282.51	3723.47	-61.8327	0.0000000E+000	0.0000000E+000	0.0000000E+000	61.8327	0.0000000E+000	0.0000000E+000	0.0000000E+000	-61.8327	0.0000000E+000	0.0000000E+000	0.0000000E+000	-28.1673	0.0000000E+000	0.0000000E+000	0.0000000E+000	28.1673	1.86755	61.8327	-1.83027e-06
3163.04	9.81764	6.09082	11.5535	-31.8153	789.015	0.33432	-0.00899158	8.26113	2.29595	1	38	0.00513072	0.000444082	0	-3.98029e-05	3.33742	2.72509	77.5229	4.48824e-05	7.96348e-05	3.02876e-05	9.10912e-05	2.94544e-05	0.000100704	0.499997	0.349614	8.53103	9.24646e-07	1.00969e-06	7.17192e-07	5.09716e-07	9.08533e-07	1.02606e-06	0.0735491	0.0456296	0.0865536	31.8153	2295.95	3700.78	4355.13	-58.1847	0.0000000E+000	0.0000000E+000	0.0000000E+000	58.1847	0.0000000E+000	0.0000000E+000	0.0000000E+000	-58.1847	0.0000000E+000	0.0000000E+000	0.0000000E+000	-31.8153	0.0000000E+000	0.0000000E+000	0.0000000E+000	31.8153	1.61187	58.1847	-1.66795e-06
2512.41	10.2721	7.65854	12.8129	-36.7069	789.758	0.33438	-0.00828963	8.27149	2.95517	1	38	0.00525021	0.000409761	0	-4.16705e-05	3.57255	3.24274	74.3447	7.59692e-05	5.01708e-05	7.26829e-05	4.82018e-05	0.000106936	6.98854e-05	0.485125	0.609303	9.49451	6.81368e-07	8.86941e-07	6.7403e-07	6.73252e-07	9.29289e-07	4.73001e-07	0.0625702	0.0466501	0.0780465	36.7069	2955.17	3963.66	4944.05	-53.2931	0.0000000E+000	0.0000000E+000	0.0000000E+000	53.2931	0.0000000E+000	0.0000000E+000	0.0000000E+000	-53.2931	0.0000000E+000	0.0000000E+000	0.0000000E+000	-36.7069	0.0000000E+000	0.0000000E+000	0.0000000E+000	36.7069	1.34126	53.2931	-1.86758e-06
1995.64	10.5559	9.1227	13.9517	-40.8344	790.501	0.334355	-0.00965443	8.74208	3.73771	1	38	0.00515715	0.000369642	0	-4.36454e-05	2.75504	2.23841	76.6365	4.88489e-05	4.98263e-05	4.31966e-05	6.37034e-05	6.36187e-05	5.39424e-05	0.486579	0.302266	10.5717	2.3073e-07	9.09004e-07	7.1533e-07	1.12596e-06	3.85395e-07	4.56436e-07	0.05423	0.0468669	0.0716757	40.8344	3737.71	4324.91	5716.23	-49.1656	0.0000000E+000	0.0000000E+000	0.0000000E+000	49.1656	0.0000000E+000	0.0000000E+000	0.0000000E+000	-49.1656	0.0000000E+000	0.0000000E+000	0.0000000E+000	-40.8344	0.0000000E+000	0.0000000E+000	0.0000000E+000	40.8344	1.1571	49.1656	-1.97496e-06
1584.49	10.88	10.9182	15.4137	-45.1004	791.245	0.334259	-0.00895435	9.19983	4.61604	1	38	0.0050511	0.000327703	0	-4.57444e-05	3.77819	3.00241	77.9851	5.15055e-05	0.000131624	4.1991e-05	5.22978e-05	7.36337e-05	7.45464e-05	0.636242	0.330548	11.7023	5.79883e-07	1.07438e-06	8.97352e-07	6.17212e-07	7.71844e-07	8.22807e-07	0.0457949	0.0459557	0.0648776	45.1004	4616.04	4599.88	6516.65	-44.8996	0.0000000E+000	0.0000000E+000	0.0000000E+000	44.8996	0.0000000E+000	0.0000000E+000	0.0000000E+000	-44.8996	0.0000000E+000	0.0000000E+000	0.0000000E+000	-45.1004	0.0000000E+000	0.0000000E+000	0.0000000E+000	45.1004	0.996501	44.8996	-2.099e-06
1258.79	11.3783	12.761	17.0971	-48.2783	791.988	0.334384	-0.00810531	9.90789	5.51961	1	38	0.00487796	0.00028531	0	-4.75315e-05	4.53704	3.72146	81.2644	7.58469e-05	5.95918e-05	8.28037e-05	0.000112748	5.87734e-05	0.000123679	0.480482	0.556441	13.1427	5.95157e-07	3.66896e-07	8.1951e-07	5.60708e-07	1.9871e-07	3.78567e-07	0.0389256	0.0436558	0.0584895	48.2783	5519.61	4921.54	7395.11	-41.7217	0.0000000E+000	0.0000000E+000	0.0000000E+000	41.7217	0.0000000E+000	0.0000000E+000	0.0000000E+000	-41.7217	0.0000000E+000	0.0000000E+000	0.0000000E+000	-48.2783	0.0000000E+000	0.0000000E+000	0.0000000E+000	48.2783	0.891647	41.7217	-1.78704e-06
999.682	11.9762	16.1333	20.0926	-53.4125	792.731	0.334463	-0.00818165	9.86815	6.36223	1	38	0.0049599	0.000246852	0	-4.91211e-05	3.01334	2.6763	81.927	3.81205e-05	4.2295e-05	3.40792e-05	9.64026e-05	4.51556e-05	7.16656e-05	0.901269	0.546598	15.3816	6.85013e-07	8.72777e-07	8.79891e-07	1.26674e-06	2.4523e-07	9.5707e-07	0.0296652	0.0399623	0.0497696	53.4125	6362.23	4722.86	7923.6	-36.5875	0.0000000E+000	0.0000000E+000	0.0000000E+000	36.5875	0.0000000E+000	0.0000000E+000	0.0000000E+000	-36.5875	0.0000000E+000	0.0000000E+000	0.0000000E+000	-53.4125	0.0000000E+000	0.0000000E+000	0.0000000E+000	53.4125	0.742328	36.5875	-1.58958e-06
794.239	12.8558	20.1227	23.8788	-57.4266	793.474	0.334325	-0.00776085	9.95825	7.07182	1	38	0.00500719	0.000209692	0	-5.06737e-05	3.17834	2.42058	78.4868	9.18817e-05	6.32246e-05	4.85479e-05	5.20737e-05	5.38192e-05	5.62525e-05	1.31793	0.374215	18.1998	1.95042e-07	7.49141e-07	1.01014e-06	2.09461e-06	8.67923e-07	8.5274e-07	0.0225464	0.0352909	0.0418782	57.4266	7071.82	4518	8391.84	-32.5734	0.0000000E+000	0.0000000E+000	0.0000000E+000	32.5734	0.0000000E+000	0.0000000E+000	0.0000000E+000	-32.5734	0.0000000E+000	0.0000000E+000	0.0000000E+000	-57.4266	0.0000000E+000	0.0000000E+000	0.0000000E+000	57.4266	0.638873	32.5734	-1.55269e-06
631.01	14.0263	24.3192	28.0742	-60.0255	794.217	0.334383	-0.00640536	10.3713	7.7825	1	38	0.0050024	0.000178185	0	-5.16838e-05	5.11713	2.04613	80.0656	6.03724e-05	0.000200823	8.33158e-05	3.30533e-05	7.31793e-05	5.14917e-05	1.32829	0.493348	21.3743	1.06556e-06	6.98036e-07	1.06486e-06	8.01741e-07	9.45601e-07	1.0063e-06	0.0177962	0.0308557	0.0356199	60.0255	7782.5	4488.6	8984.14	-29.9745	0.0000000E+000	0.0000000E+000	0.0000000E+000	29.9745	0.0000000E+000	0.0000000E+000	0.0000000E+000	-29.9745	0.0000000E+000	0.0000000E+000	0.0000000E+000	-60.0255	0.0000000E+000	0.0000000E+000	0.0000000E+000	60.0255	0.576756	29.9745	-1.01009e-06
501.122	15.2328	29.8363	33.4999	-62.9536	795.212	0.334356	-0.000398879	10.6447	8.44374	1	39	0.00522027	0.000155829	0	-5.22273e-05	3.39824	2.1486	73.0096	3.41968e-05	6.50413e-05	7.57705e-05	4.9474e-05	0.000102658	6.56643e-05	0.686449	0.4043	11.4231	3.00597e-07	5.25287e-07	5.72926e-07	5.86892e-07	2.07443e-07	2.42232e-07	0.0135735	0.0265863	0.0298509	62.9536	8443.74	4310.91	9480.54	-27.0464	0.0000000E+000	0.0000000E+000	0.0000000E+000	27.0464	0.0000000E+000	0.0000000E+000	0.0000000E+000	-27.0464	0.0000000E+000	0.0000000E+000	0.0000000E+000	-62.9536	0.0000000E+000	0.0000000E+000	0.0000000E+000	62.9536	0.510545	27.0464	-5.43446e-07
398.089	16.4497	36.2896	39.8438	-65.6158	795.957	0.334364	-0.000541832	11.0169	9.13905	1	39	0.00510404	0.000128101	0	-5.22473e-05	2.97529	3.33877	77.5079	5.92063e-05	6.80015e-05	4.15583e-05	5.9907e-05	6.165e-05	5.55673e-05	0.750053	0.705216	13.7878	4.65303e-07	2.37108e-07	2.54195e-07	2.75662e-07	4.90395e-07	4.15022e-07	0.0103618	0.0228592	0.025098	65.6158	9139.05	4142.63	10034.1	-24.3842	0.0000000E+000	0.0000000E+000	0.0000000E+000	24.3842	0.0000000E+000	0.0000000E+000	0.0000000E+000	-24.3842	0.0000000E+000	0.0000000E+000	0.0000000E+000	-65.6158	0.0000000E+000	0.0000000E+000	0.0000000E+000	65.6158	0.453289	24.3842	-2.0011e-08
316.316	18.376	44.9041	48.5186	-67.7442	796.699	0.334379	-0.000880111	11.205	9.59773	1	39	0.00508924	0.000104893	0	-5.22823e-05	2.90922	1.39144	75.2217	4.82466e-05	6.58269e-05	2.12217e-05	6.75563e-05	5.32356e-05	6.27942e-05	0.960654	0.603154	16.3324	2.98823e-07	5.64349e-07	3.43857e-07	4.88875e-07	3.14445e-07	2.65104e-07	0.00780612	0.0190752	0.0206107	67.7442	9597.73	3927.66	10370.3	-22.2558	0.0000000E+000	0.0000000E+000	0.0000000E+000	22.2558	0.0000000E+000	0.0000000E+000	0.0000000E+000	-22.2558	0.0000000E+000	0.0000000E+000	0.0000000E+000	-67.7442	0.0000000E+000	0.0000000E+000	0.0000000E+000	67.7442	0.409228	22.2558	-3.50202e-08
251.206	20.5716	53.7348	57.538	-69.0514	797.442	0.334323	-0.00067584	11.7906	10.2834	1	39	0.00496545	8.62986e-05	0	-5.24213e-05	3.78367	1.36397	76.8484	3.74769e-05	6.50688e-05	6.66692e-05	8.35991e-05	0.000116211	6.04613e-05	1.03488	0.424528	20.4385	3.73884e-07	4.87816e-07	3.21641e-07	1.7343e-07	2.36879e-07	4.20094e-07	0.00621382	0.016231	0.0173798	69.0514	10283.4	3936.85	11011.2	-20.9486	0.0000000E+000	0.0000000E+000	0.0000000E+000	20.9486	0.0000000E+000	0.0000000E+000	0.0000000E+000	-20.9486	0.0000000E+000	0.0000000E+000	0.0000000E+000	-69.0514	0.0000000E+000	0.0000000E+000	0.0000000E+000	69.0514	0.382836	20.9486	-1.39022e-07
199.553	21.5802	65.452	68.9179	-71.7521	798.187	0.33437	-0.000900427	12.1853	10.9906	1	39	0.00488034	7.08138e-05	0	-5.24772e-05	4.28672	2.095	77.5377	0.00012899	5.57337e-05	3.54379e-05	5.18515e-05	0.000114741	5.17955e-05	1.67284	1.10571	25.1275	6.56857e-07	4.74021e-07	3.35062e-07	1.86829e-07	6.50266e-07	1.94176e-07	0.00454351	0.0137803	0.01451	71.7521	10990.6	3623.7	11572.6	-18.2479	0.0000000E+000	0.0000000E+000	0.0000000E+000	18.2479	0.0000000E+000	0.0000000E+000	0.0000000E+000	-18.2479	0.0000000E+000	0.0000000E+000	0.0000000E+000	-71.7521	0.0000000E+000	0.0000000E+000	0.0000000E+000	71.7521	0.32971	18.2479	-5.58618e-08
158.529	25.0057	81.2132	84.9757	-72.8863	798.935	0.334349	-0.000343713	12.3619	11.2914	1	39	0.00493977	5.81316e-05	0	-5.25741e-05	3.55413	1.39644	78.6493	4.92644e-05	0.000112071	6.69444e-05	4.9725e-05	5.88682e-05	2.10975e-05	1.53593	0.826624	30.2364	4.95193e-07	1.87585e-07	4.15992e-07	2.5321e-07	3.80945e-07	1.67797e-07	0.00346298	0.011247	0.0117681	72.8863	11291.4	3476.65	11814.5	-17.1137	0.0000000E+000	0.0000000E+000	0.0000000E+000	17.1137	0.0000000E+000	0.0000000E+000	0.0000000E+000	-17.1137	0.0000000E+000	0.0000000E+000	0.0000000E+000	-72.8863	0.0000000E+000	0.0000000E+000	0.0000000E+000	72.8863	0.307902	17.1137	-9.69299e-08
125.927	28.5251	98.9988	103.026	-73.9264	799.675	0.334342	-0.000651239	12.7665	11.7879	1	39	0.00492672	4.782e-05	0	-5.27109e-05	4.18106	2.24116	77.7991	6.29883e-05	6.26457e-05	5.29499e-05	0.000128025	8.40799e-05	7.19529e-05	2.49969	1.16268	37.535	5.04803e-07	3.31432e-07	4.97446e-07	4.71005e-07	5.43781e-07	4.90518e-07	0.00268739	0.0093268	0.00970625	73.9264	11787.9	3396.51	12267.4	-16.0736	0.0000000E+000	0.0000000E+000	0.0000000E+000	16.0736	0.0000000E+000	0.0000000E+000	0.0000000E+000	-16.0736	0.0000000E+000	0.0000000E+000	0.0000000E+000	-73.9264	0.0000000E+000	0.0000000E+000	0.0000000E+000	73.9264	0.288136	16.0736	-1.36759e-07
99.9682	33.15	121.743	126.175	-74.7679	800.407	0.334301	-0.000638006	13.0772	12.1745	1	39	0.00491387	3.89448e-05	0	-5.28236e-05	2.84525	2.78521	77.2372	4.44264e-05	6.04959e-05	3.32611e-05	4.03556e-05	6.36919e-05	6.84252e-05	1.98556	1.46517	44.4155	2.90884e-07	3.0141e-07	4.38409e-07	1.86802e-07	3.00105e-07	2.6126e-07	0.00208226	0.00764705	0.00792548	74.7679	12174.5	3315.07	12617.8	-15.2321	0.0000000E+000	0.0000000E+000	0.0000000E+000	15.2321	0.0000000E+000	0.0000000E+000	0.0000000E+000	-15.2321	0.0000000E+000	0.0000000E+000	0.0000000E+000	-74.7679	0.0000000E+000	0.0000000E+000	0.0000000E+000	74.7679	0.272296	15.2321	-1.1276e-07