File: Python/Experiments/Baichen/Data/SGL 2.5EA carbon felt_ve=2 cms.mpt
EC-Lab ASCII FILE
Nb header lines : 79

Potentio Electrochemical Impedance Spectroscopy

Run on channel : 1 (SN 5680)
User :
Electrode connection : standard
Potential control : Ewe
Ewe ctrl range : min = 0.00 V, max = 5.00 V
Ewe,I filtering : 50 kHz
Safety Limits :
	Do not start on E overload
Channel : Floating
Acquisition started on : 01/21/2022 12:10:31.015
Loaded Setting File :  C:\Data\baili\Compression Ratio Tests\final\SGL 2.5 Felt ve=2\EIS_fullcell_CR20_flowthrough_C01.mpr
Saved on :
	File : EIS_fullcell_CR30_flowthrough_C01.mpr
	Directory : C:\Data\baili\Compression Ratio Tests\final\SGL 2.5 Felt ve=2\
	Host : 192.168.0.1
Device : SP-300 (SN 0955)
Address : 192.168.0.4
EC-Lab for windows v11.36 (software)
Internet server v11.36 (firmware)
Command interpretor v11.36 (firmware)
Electrode material :
Initial state :
Electrolyte :
Comments :
Current amplifier : B-10A5V
Cable : standard
Electrode surface area : 0.001 cm²
Characteristic mass : 0.001 g
Equivalent Weight : 0.000 g/eq.
Density : 0.000 g/cm3
Volume (V) : 0.000 m³
Record Power
Cycle Definition : Charge/Discharge alternance
External device configuration :
   device type : Other
   device name : Other
   Analog OUT :
      mode : E/V
      unit : speed/rpm
      max : 150.000 at 5.000 V
      min : 0.000 at 0.000 V
      current : 32.000
Mode                Single sine
E (V)               0.0000
vs.                 Eoc
tE (h:m:s)          0:00:0.0000
record              0
dI                  0.000
unit dI             mA
dt (s)              0.000
fi                  200.000
unit fi             kHz
ff                  30.000
unit ff             mHz
Nd                  12
Points              per decade
spacing             Logarithmic
Va (mV)             10.0
pw                  0.10
Na                  3
corr                0
E range min (V)     0.000
E range max (V)     5.000
I Range             Auto
Bandwidth           8
nc cycles           3
goto Ns'            0
nr cycles           0
inc. cycle          0

Modify on : 01/21/2022 12:13
nc cycles           4

freq/Hz	Re(Z)/Ohm	-Im(Z)/Ohm	|Z|/Ohm	Phase(Z)/deg	time/s	<Ewe>/V	<I>/mA	Cs/µF	Cp/µF	cycle number	I Range	|Ewe|/V	|I|/A	Ns	(Q-Qo)/mA.h	Analog OUT/V	P/W	Re(Y)/Ohm-1	Im(Y)/Ohm-1	|Y|/Ohm-1	Phase(Y)/deg	Re(C)/nF	Im(C)/nF	|C|/nF	Phase(C)/deg	Re(M)	Im(M)	|M|	Phase(M)/deg	Re(Permittivity)	Im(Permittivity)	|Permittivity|	Phase(Permittivity)/deg	Re(Resistivity)/Ohm.cm	Im(Resistivity)/Ohm.cm	|Resistivity|/Ohm.cm	Phase(Resistivity)/deg	Re(Conductivity)/mS/cm	Im(Conductivity)/mS/cm	|Conductivity|/mS/cm	Phase(Conductivity)/deg	Tan(Delta)	Loss Angle(Delta)/deg	dq/mA.h
199998	0.0794829	-0.0232711	0.0828196	16.319	1.78349	1.38988	-13.6449	-34.1962	-2.69988	1	65	0.00958679	0.115755	0	-0.00256658	32	-0.0189647	11.588	-3.39274	12.0744	-16.319	-2699.88	9221.51	9608.63	-106.319	0.0000000E+000	0.0000000E+000	0.0000000E+000	106.319	0.0000000E+000	0.0000000E+000	0.0000000E+000	-106.319	0.0000000E+000	0.0000000E+000	0.0000000E+000	16.319	0.0000000E+000	0.0000000E+000	0.0000000E+000	-16.319	3.41552	73.681	-0.00256658
111760	0.0827875	-0.00944559	0.0833246	6.50898	3.50249	1.38986	3.96711	-150.767	-1.93739	1	65	0.0105649	0.126793	0	-0.00182543	32	0.00551373	11.9239	-1.36045	12.0013	-6.50898	-1937.39	16980.6	17090.8	-96.509	0.0000000E+000	0.0000000E+000	0.0000000E+000	96.509	0.0000000E+000	0.0000000E+000	0.0000000E+000	-96.509	0.0000000E+000	0.0000000E+000	0.0000000E+000	6.50898	0.0000000E+000	0.0000000E+000	0.0000000E+000	-6.50898	8.76467	83.491	0.00049151
62453.6	0.0852843	-0.000864581	0.0852886	0.580824	5.22147	1.38987	4.02618	-2947.52	-0.302891	1	65	0.0105009	0.123122	0	0.000484048	32	0.00559584	11.7243	-0.118857	11.7249	-0.580824	-302.892	29877.8	29879.4	-90.5808	0.0000000E+000	0.0000000E+000	0.0000000E+000	90.5808	0.0000000E+000	0.0000000E+000	0.0000000E+000	-90.5808	0.0000000E+000	0.0000000E+000	0.0000000E+000	0.580824	0.0000000E+000	0.0000000E+000	0.0000000E+000	-0.580824	98.6423	89.4192	-0.000104183
34896.4	0.0883165	0.00517194	0.0884678	-3.3515	6.94048	1.38988	4.06363	881.831	3.01385	1	65	0.010419	0.117772	0	0.0017554	32	0.00564795	11.2842	0.66082	11.3035	3.3515	3013.85	51464.8	51553	-86.6485	0.0000000E+000	0.0000000E+000	0.0000000E+000	86.6485	0.0000000E+000	0.0000000E+000	0.0000000E+000	-86.6485	0.0000000E+000	0.0000000E+000	0.0000000E+000	-3.3515	0.0000000E+000	0.0000000E+000	0.0000000E+000	3.3515	17.0761	86.6485	0.000585279
19503.4	0.0926194	0.00978085	0.0931344	-6.02824	8.65949	1.38987	4.11133	834.32	9.20165	1	65	0.0103611	0.111249	0	0.00441599	32	0.00571421	10.6778	1.1276	10.7372	6.02824	9201.65	87134.7	87619.2	-83.9718	0.0000000E+000	0.0000000E+000	0.0000000E+000	83.9718	0.0000000E+000	0.0000000E+000	0.0000000E+000	-83.9718	0.0000000E+000	0.0000000E+000	0.0000000E+000	-6.02824	0.0000000E+000	0.0000000E+000	0.0000000E+000	6.02824	9.46946	83.9718	-0.000295169
10902.2	0.0979164	0.0134045	0.0988296	-7.79517	10.3775	1.38986	4.094	1089.07	20.0346	1	65	0.0102567	0.103782	0	0.00763039	32	0.00569007	10.0249	1.37238	10.1184	7.79517	20034.6	146348	147712	-82.2048	0.0000000E+000	0.0000000E+000	0.0000000E+000	82.2048	0.0000000E+000	0.0000000E+000	0.0000000E+000	-82.2048	0.0000000E+000	0.0000000E+000	0.0000000E+000	-7.79517	0.0000000E+000	0.0000000E+000	0.0000000E+000	7.79517	7.30475	82.2048	0.00165083
6087.59	0.104256	0.0158439	0.105453	-8.64117	12.4624	1.38978	3.59578	1650.11	37.2492	1	65	0.0102075	0.0967966	0	0.00927165	32	0.00499733	9.37521	1.42476	9.48286	8.64117	37249.2	245107	247922	-81.3588	0.0000000E+000	0.0000000E+000	0.0000000E+000	81.3588	0.0000000E+000	0.0000000E+000	0.0000000E+000	-81.3588	0.0000000E+000	0.0000000E+000	0.0000000E+000	-8.64117	0.0000000E+000	0.0000000E+000	0.0000000E+000	8.64117	6.58021	81.3588	0.00062996
3403.91	0.111302	0.0174892	0.112668	-8.93001	15.0028	1.38975	3.42884	2673.46	64.4187	1	65	0.0107507	0.0954198	0	0.0121218	32	0.00476523	8.76807	1.37775	8.87566	8.93001	64418.7	409965	414995	-81.07	0.0000000E+000	0.0000000E+000	0.0000000E+000	81.07	0.0000000E+000	0.0000000E+000	0.0000000E+000	-81.07	0.0000000E+000	0.0000000E+000	0.0000000E+000	-8.93001	0.0000000E+000	0.0000000E+000	0.0000000E+000	8.93001	6.36406	81.07	0.000960507
1901.83	0.119161	0.0181689	0.120538	-8.66932	17.3086	1.38976	3.47653	4605.97	104.648	1	65	0.0104583	0.0867633	0	0.0144448	32	0.00483154	8.20136	1.25049	8.29614	8.66932	104648	686333	694265	-81.3307	0.0000000E+000	0.0000000E+000	0.0000000E+000	81.3307	0.0000000E+000	0.0000000E+000	0.0000000E+000	-81.3307	0.0000000E+000	0.0000000E+000	0.0000000E+000	-8.66932	0.0000000E+000	0.0000000E+000	0.0000000E+000	8.66932	6.55852	81.3307	0.000649875
1062.62	0.127072	0.0172139	0.128232	-7.71466	19.3802	1.38977	3.56299	8700.9	156.793	1	65	0.0105716	0.0824412	0	0.0170831	32	0.00495175	7.72775	1.04685	7.79834	7.71466	156793	1.15744e+06	1.16801e+06	-82.2853	0.0000000E+000	0.0000000E+000	0.0000000E+000	82.2853	0.0000000E+000	0.0000000E+000	0.0000000E+000	-82.2853	0.0000000E+000	0.0000000E+000	0.0000000E+000	-7.71466	0.0000000E+000	0.0000000E+000	0.0000000E+000	7.71466	7.38193	82.2853	0.000733519
593.67	0.134005	0.0142099	0.134756	-6.05304	21.4522	1.38975	3.48436	18866.2	209.783	1	65	0.0105515	0.078301	0	0.0192467	32	0.00484238	7.37945	0.782519	7.42082	6.05304	209783	1.97833e+06	1.98942e+06	-83.947	0.0000000E+000	0.0000000E+000	0.0000000E+000	83.947	0.0000000E+000	0.0000000E+000	0.0000000E+000	-83.947	0.0000000E+000	0.0000000E+000	0.0000000E+000	-6.05304	0.0000000E+000	0.0000000E+000	0.0000000E+000	6.05304	9.43038	83.947	0.000742126
331.805	0.138771	0.0107429	0.139186	-4.42672	23.5267	1.38975	3.5179	44649.3	265.992	1	65	0.0105227	0.0756018	0	0.0211898	32	0.00488899	7.1632	0.554538	7.18463	4.42672	265992	3.43593e+06	3.44621e+06	-85.5733	0.0000000E+000	0.0000000E+000	0.0000000E+000	85.5733	0.0000000E+000	0.0000000E+000	0.0000000E+000	-85.5733	0.0000000E+000	0.0000000E+000	0.0000000E+000	-4.42672	0.0000000E+000	0.0000000E+000	0.0000000E+000	4.42672	12.9174	85.5733	0.000760793
185.415	0.141632	0.00757549	0.141834	-3.06168	25.6013	1.38975	3.42045	113309	323.239	1	65	0.0105084	0.0740891	0	0.0238522	32	0.00475356	7.04042	0.376573	7.05049	3.06168	323239	6.04329e+06	6.05193e+06	-86.9383	0.0000000E+000	0.0000000E+000	0.0000000E+000	86.9383	0.0000000E+000	0.0000000E+000	0.0000000E+000	-86.9383	0.0000000E+000	0.0000000E+000	0.0000000E+000	-3.06168	0.0000000E+000	0.0000000E+000	0.0000000E+000	3.06168	18.696	86.9383	0.000991292
103.641	0.14334	0.00527012	0.143437	-2.10563	27.6864	1.38975	3.6159	291387	393.361	1	65	0.0104998	0.0732015	0	0.0260337	32	0.00502519	6.96701	0.256154	6.97172	2.10563	393360	1.06988e+07	1.07061e+07	-87.8944	0.0000000E+000	0.0000000E+000	0.0000000E+000	87.8944	0.0000000E+000	0.0000000E+000	0.0000000E+000	-87.8944	0.0000000E+000	0.0000000E+000	0.0000000E+000	-2.10563	0.0000000E+000	0.0000000E+000	0.0000000E+000	2.10563	27.1986	87.8944	0.000561881
57.9061	0.144525	0.00349006	0.144568	-1.38333	29.777	1.38973	3.65447	787522	458.973	1	65	0.0105039	0.0726571	0	0.0279405	32	0.00507874	6.91517	0.16699	6.91718	1.38333	458972	1.90063e+07	1.90119e+07	-88.6167	0.0000000E+000	0.0000000E+000	0.0000000E+000	88.6167	0.0000000E+000	0.0000000E+000	0.0000000E+000	-88.6167	0.0000000E+000	0.0000000E+000	0.0000000E+000	-1.38333	0.0000000E+000	0.0000000E+000	0.0000000E+000	1.38333	41.4106	88.6167	0.00103604
32.3499	0.145094	0.00254283	0.145116	-1.00403	31.8452	1.38974	3.63397	1.93478e+06	594.065	1	65	0.0104996	0.0723533	0	0.0297477	32	0.00505027	6.88999	0.12075	6.89105	1.00403	594064	3.38973e+07	3.39025e+07	-88.996	0.0000000E+000	0.0000000E+000	0.0000000E+000	88.996	0.0000000E+000	0.0000000E+000	0.0000000E+000	-88.996	0.0000000E+000	0.0000000E+000	0.0000000E+000	-1.00403	0.0000000E+000	0.0000000E+000	0.0000000E+000	1.00403	57.06	88.996	0.000750165
18.0845	0.147899	0.00181255	0.14791	-0.702143	34.1749	1.38975	5.32358	4.85539e+06	729.136	1	37	0.0105039	0.0710153	0	0.0317518	32	0.00739844	6.76036	0.0828504	6.76087	0.702143	729133	5.94954e+07	5.94999e+07	-89.2979	0.0000000E+000	0.0000000E+000	0.0000000E+000	89.2979	0.0000000E+000	0.0000000E+000	0.0000000E+000	-89.2979	0.0000000E+000	0.0000000E+000	0.0000000E+000	-0.702143	0.0000000E+000	0.0000000E+000	0.0000000E+000	0.702143	81.5972	89.2979	0.00101284
10.1067	0.148181	0.0014404	0.148188	-0.556927	36.1336	1.38974	3.62301	1.09327e+07	1032.91	1	37	0.0104957	0.0708269	0	0.0331929	32	0.00503505	6.74784	0.0655925	6.74816	0.556927	1.03292e+06	1.06261e+08	1.06266e+08	-89.4431	0.0000000E+000	0.0000000E+000	0.0000000E+000	89.4431	0.0000000E+000	0.0000000E+000	0.0000000E+000	-89.4431	0.0000000E+000	0.0000000E+000	0.0000000E+000	-0.556927	0.0000000E+000	0.0000000E+000	0.0000000E+000	0.556927	102.875	89.4431	0.000520439
5.64487	0.148452	0.00107799	0.148456	-0.416047	38.0989	1.38976	3.69034	2.61548e+07	1379.06	1	37	0.0105005	0.0707315	0	0.0348148	32	0.00512869	6.73583	0.0489124	6.736	0.416047	1.37906e+06	1.89914e+08	1.89919e+08	-89.584	0.0000000E+000	0.0000000E+000	0.0000000E+000	89.584	0.0000000E+000	0.0000000E+000	0.0000000E+000	-89.584	0.0000000E+000	0.0000000E+000	0.0000000E+000	-0.416047	0.0000000E+000	0.0000000E+000	0.0000000E+000	0.416047	137.712	89.584	-0.000236649
3.15529	0.148716	0.00101679	0.14872	-0.391733	40.7617	1.38974	3.53135	4.96076e+07	2318.87	1	37	0.0105033	0.0706249	0	0.0376096	32	0.00490764	6.7239	0.0459722	6.72406	0.391733	2.31886e+06	3.39158e+08	3.39166e+08	-89.6083	0.0000000E+000	0.0000000E+000	0.0000000E+000	89.6083	0.0000000E+000	0.0000000E+000	0.0000000E+000	-89.6083	0.0000000E+000	0.0000000E+000	0.0000000E+000	-0.391733	0.0000000E+000	0.0000000E+000	0.0000000E+000	0.391733	146.26	89.6083	0.00125898
1.76354	0.148732	0.000882208	0.148734	-0.339848	45.3511	1.38975	3.79686	1.02297e+08	3598.99	1	37	0.0105097	0.0706607	0	0.0411592	32	0.00527668	6.72327	0.0398793	6.72339	0.339848	3.59903e+06	6.06756e+08	6.06767e+08	-89.6601	0.0000000E+000	0.0000000E+000	0.0000000E+000	89.6601	0.0000000E+000	0.0000000E+000	0.0000000E+000	-89.6601	0.0000000E+000	0.0000000E+000	0.0000000E+000	-0.339848	0.0000000E+000	0.0000000E+000	0.0000000E+000	0.339848	168.59	89.6601	-5.11194e-05
0.985309	0.148981	0.00117836	0.148986	-0.453168	53.4082	1.38974	3.89808	1.37079e+08	8575.01	1	37	0.0105011	0.0704842	0	0.054603	32	0.00541732	6.71184	0.0530869	6.71205	0.453168	8.57506e+06	1.08415e+09	1.08418e+09	-89.5468	0.0000000E+000	0.0000000E+000	0.0000000E+000	89.5468	0.0000000E+000	0.0000000E+000	0.0000000E+000	-89.5468	0.0000000E+000	0.0000000E+000	0.0000000E+000	-0.453168	0.0000000E+000	0.0000000E+000	0.0000000E+000	0.453168	126.431	89.5468	0.00576323
0.550486	0.149285	0.00168801	0.149295	-0.647829	67.6792	1.38974	4.2133	1.71277e+08	21895.6	1	37	0.0105018	0.0703423	0	0.0629794	32	0.0058554	6.69772	0.0757326	6.69815	0.647829	2.18955e+07	1.93642e+09	1.93655e+09	-89.3522	0.0000000E+000	0.0000000E+000	0.0000000E+000	89.3522	0.0000000E+000	0.0000000E+000	0.0000000E+000	-89.3522	0.0000000E+000	0.0000000E+000	0.0000000E+000	-0.647829	0.0000000E+000	0.0000000E+000	0.0000000E+000	0.647829	88.439	89.3522	0.0023944
0.307821	0.150139	0.0018906	0.150151	-0.721448	93.064	1.38974	4.62239	2.73477e+08	43357.4	1	37	0.0105021	0.0699432	0	0.102968	32	0.00642394	6.65942	0.0838575	6.65995	0.721448	4.33575e+07	3.44316e+09	3.44344e+09	-89.2785	0.0000000E+000	0.0000000E+000	0.0000000E+000	89.2785	0.0000000E+000	0.0000000E+000	0.0000000E+000	-89.2785	0.0000000E+000	0.0000000E+000	0.0000000E+000	-0.721448	0.0000000E+000	0.0000000E+000	0.0000000E+000	0.721448	79.4136	89.2785	0.0198808
0.172002	0.150401	0.00139637	0.150408	-0.531934	138.374	1.38974	5.48914	6.62656e+08	57114.5	1	37	0.0105035	0.0698335	0	0.170776	32	0.00762847	6.64831	0.0617247	6.6486	0.531934	5.71147e+07	6.15175e+09	6.15201e+09	-89.4681	0.0000000E+000	0.0000000E+000	0.0000000E+000	89.4681	0.0000000E+000	0.0000000E+000	0.0000000E+000	-89.4681	0.0000000E+000	0.0000000E+000	0.0000000E+000	-0.531934	0.0000000E+000	0.0000000E+000	0.0000000E+000	0.531934	107.709	89.4681	0.0213533
0.0960805	0.149843	0.00108525	0.149847	-0.414961	219.348	1.38974	6.73014	1.52635e+09	80060.4	1	37	0.0105013	0.07008	0	0.268472	32	0.00935315	6.67329	0.0483318	6.67346	0.414961	8.00606e+07	1.10541e+10	1.10544e+10	-89.585	0.0000000E+000	0.0000000E+000	0.0000000E+000	89.585	0.0000000E+000	0.0000000E+000	0.0000000E+000	-89.585	0.0000000E+000	0.0000000E+000	0.0000000E+000	-0.414961	0.0000000E+000	0.0000000E+000	0.0000000E+000	0.414961	138.073	89.585	0.0478976
0.0536897	0.148515	0.000261586	0.148515	-0.100917	364.104	1.38975	8.53927	1.13322e+10	35156.1	1	37	0.0105015	0.0707097	0	0.643769	32	0.0118674	6.7333	0.0118596	6.73331	0.100917	3.51549e+07	1.99598e+10	1.99599e+10	-89.8991	0.0000000E+000	0.0000000E+000	0.0000000E+000	89.8991	0.0000000E+000	0.0000000E+000	0.0000000E+000	-89.8991	0.0000000E+000	0.0000000E+000	0.0000000E+000	-0.100917	0.0000000E+000	0.0000000E+000	0.0000000E+000	0.100917	567.749	89.8991	0.170343
0.0299919	0.145801	8.904e-05	0.145801	-0.0349902	622.98	1.38977	12.3088	5.9598e+10	22226.9	1	37	0.0105069	0.0720633	0	1.41577	32	0.0171065	6.85865	0.00418854	6.85866	0.0349902	2.22258e+07	3.63962e+10	3.63962e+10	-89.965	0.0000000E+000	0.0000000E+000	0.0000000E+000	89.965	0.0000000E+000	0.0000000E+000	0.0000000E+000	-89.965	0.0000000E+000	0.0000000E+000	0.0000000E+000	-0.0349902	0.0000000E+000	0.0000000E+000	0.0000000E+000	0.0349902	1637.48	89.965	0.306918
135689	0.078012	-0.0135987	0.0791884	9.8882	625.141	1.38988	12.9022	-86.2538	-2.54361	2	65	0.0105599	0.133352	0	1.41786	32	0.0179326	12.4405	-2.16858	12.6281	-9.8882	-2543.61	14592	14812	-99.8882	0.0000000E+000	0.0000000E+000	0.0000000E+000	99.8882	0.0000000E+000	0.0000000E+000	0.0000000E+000	-99.8882	0.0000000E+000	0.0000000E+000	0.0000000E+000	9.8882	0.0000000E+000	0.0000000E+000	0.0000000E+000	-9.8882	5.73672	80.1118	0.000528636
75823.9	0.0804661	-0.00392	0.0805615	2.78902	626.862	1.38987	12.8633	-535.461	-1.26778	2	65	0.0105809	0.131339	0	1.4271	32	0.0178784	12.3982	-0.603991	12.4129	-2.78902	-1267.78	26023.8	26054.7	-92.789	0.0000000E+000	0.0000000E+000	0.0000000E+000	92.789	0.0000000E+000	0.0000000E+000	0.0000000E+000	-92.789	0.0000000E+000	0.0000000E+000	0.0000000E+000	2.78902	0.0000000E+000	0.0000000E+000	0.0000000E+000	-2.78902	20.5271	87.211	0.00286342
42374.9	0.0829587	0.00267307	0.0830018	-1.84553	628.58	1.38989	13.0232	1405.08	1.45729	2	65	0.0105305	0.12687	0	1.43313	32	0.0181007	12.0417	0.388003	12.0479	1.84553	1457.29	45227.1	45250.5	-88.1545	0.0000000E+000	0.0000000E+000	0.0000000E+000	88.1545	0.0000000E+000	0.0000000E+000	0.0000000E+000	-88.1545	0.0000000E+000	0.0000000E+000	0.0000000E+000	-1.84553	0.0000000E+000	0.0000000E+000	0.0000000E+000	1.84553	31.035	88.1545	0.00239177
23678.7	0.0864488	0.00756359	0.0867791	-5.0002	630.299	1.38989	13.1614	888.656	6.75087	2	65	0.0104503	0.120424	0	1.44016	32	0.0182929	11.4797	1.00438	11.5235	5.0002	6750.87	77159.7	77454.5	-84.9998	0.0000000E+000	0.0000000E+000	0.0000000E+000	84.9998	0.0000000E+000	0.0000000E+000	0.0000000E+000	-84.9998	0.0000000E+000	0.0000000E+000	0.0000000E+000	-5.0002	0.0000000E+000	0.0000000E+000	0.0000000E+000	5.0002	11.4296	84.9998	0.00231627
13231.1	0.091106	0.0114249	0.0918196	-7.1477	632.02	1.38989	13.1866	1052.86	16.3006	2	65	0.0103136	0.112325	0	1.44709	32	0.0183278	10.8063	1.35513	10.8909	7.1477	16300.6	129987	131005	-82.8523	0.0000000E+000	0.0000000E+000	0.0000000E+000	82.8523	0.0000000E+000	0.0000000E+000	0.0000000E+000	-82.8523	0.0000000E+000	0.0000000E+000	0.0000000E+000	-7.1477	0.0000000E+000	0.0000000E+000	0.0000000E+000	7.1477	7.97435	82.8523	0.0026528
7394.87	0.096799	0.0143499	0.0978568	-8.43237	633.876	1.38977	12.4366	1499.82	32.252	2	65	0.0101979	0.104212	0	1.45327	32	0.017284	10.1085	1.49853	10.219	8.43237	32252	217559	219937	-81.5676	0.0000000E+000	0.0000000E+000	0.0000000E+000	81.5676	0.0000000E+000	0.0000000E+000	0.0000000E+000	-81.5676	0.0000000E+000	0.0000000E+000	0.0000000E+000	-8.43237	0.0000000E+000	0.0000000E+000	0.0000000E+000	8.43237	6.74562	81.5676	0.00263586
4131.32	0.103191	0.0163079	0.104472	-8.98049	636.092	1.38977	12.4806	2362.29	57.5611	2	65	0.0104369	0.0999014	0	1.46041	32	0.0173452	9.45461	1.49416	9.57195	8.98049	57561.1	364229	368749	-81.0195	0.0000000E+000	0.0000000E+000	0.0000000E+000	81.0195	0.0000000E+000	0.0000000E+000	0.0000000E+000	-81.0195	0.0000000E+000	0.0000000E+000	0.0000000E+000	-8.98049	0.0000000E+000	0.0000000E+000	0.0000000E+000	8.98049	6.3277	81.0195	0.00197537
2309.26	0.110487	0.0174177	0.111852	-8.95864	638.166	1.38975	12.3131	3956.9	95.9516	2	65	0.0107056	0.0957124	0	1.46873	32	0.0171121	8.83134	1.39221	8.9404	8.95864	95951.6	608658	616175	-81.0414	0.0000000E+000	0.0000000E+000	0.0000000E+000	81.0414	0.0000000E+000	0.0000000E+000	0.0000000E+000	-81.0414	0.0000000E+000	0.0000000E+000	0.0000000E+000	-8.95864	0.0000000E+000	0.0000000E+000	0.0000000E+000	8.95864	6.34339	81.0414	0.00282467
1290.41	0.118374	0.0171226	0.119606	-8.23068	640.237	1.38975	12.3895	7203.13	147.624	2	65	0.0106823	0.0893123	0	1.47647	32	0.0172183	8.27468	1.19692	8.3608	8.23068	147624	1.02057e+06	1.03119e+06	-81.7693	0.0000000E+000	0.0000000E+000	0.0000000E+000	81.7693	0.0000000E+000	0.0000000E+000	0.0000000E+000	-81.7693	0.0000000E+000	0.0000000E+000	0.0000000E+000	-8.23068	0.0000000E+000	0.0000000E+000	0.0000000E+000	8.23068	6.91329	81.7693	0.00244757
721.157	0.125777	0.0150517	0.126675	-6.82409	642.308	1.38976	12.3928	14662.4	207.012	2	65	0.0106424	0.0840137	0	1.48366	32	0.017223	7.83831	0.938005	7.89424	6.82409	207012	1.72987e+06	1.74221e+06	-83.1759	0.0000000E+000	0.0000000E+000	0.0000000E+000	83.1759	0.0000000E+000	0.0000000E+000	0.0000000E+000	-83.1759	0.0000000E+000	0.0000000E+000	0.0000000E+000	-6.82409	0.0000000E+000	0.0000000E+000	0.0000000E+000	6.82409	8.35637	83.1759	0.00252208
402.809	0.131182	0.0116419	0.131698	-5.07146	644.387	1.38975	12.499	33939	265.208	2	65	0.0105941	0.0804426	0	1.4904	32	0.0173706	7.56342	0.67122	7.59314	5.07146	265208	2.9884e+06	3.00015e+06	-84.9285	0.0000000E+000	0.0000000E+000	0.0000000E+000	84.9285	0.0000000E+000	0.0000000E+000	0.0000000E+000	-84.9285	0.0000000E+000	0.0000000E+000	0.0000000E+000	-5.07146	0.0000000E+000	0.0000000E+000	0.0000000E+000	5.07146	11.2682	84.9285	0.00255744
225.072	0.134595	0.00834313	0.134854	-3.54704	646.459	1.38975	12.4458	84755.7	324.415	2	65	0.0105823	0.0784725	0	1.49681	32	0.0172965	7.40124	0.458779	7.41544	3.54704	324415	5.23362e+06	5.24367e+06	-86.453	0.0000000E+000	0.0000000E+000	0.0000000E+000	86.453	0.0000000E+000	0.0000000E+000	0.0000000E+000	-86.453	0.0000000E+000	0.0000000E+000	0.0000000E+000	-3.54704	0.0000000E+000	0.0000000E+000	0.0000000E+000	3.54704	16.1325	86.453	0.00209853
125.764	0.136535	0.00577831	0.136658	-2.42336	648.535	1.38975	12.5784	219009	391.557	2	65	0.0105805	0.0774231	0	1.50463	32	0.0174809	7.31101	0.309409	7.31756	2.42336	391557	9.2521e+06	9.26038e+06	-87.5766	0.0000000E+000	0.0000000E+000	0.0000000E+000	87.5766	0.0000000E+000	0.0000000E+000	0.0000000E+000	-87.5766	0.0000000E+000	0.0000000E+000	0.0000000E+000	-2.42336	0.0000000E+000	0.0000000E+000	0.0000000E+000	2.42336	23.629	87.5766	0.00255919
70.2925	0.137741	0.00392536	0.137797	-1.63238	650.61	1.38975	12.4977	576808	468.073	2	65	0.0105712	0.0767159	0	1.51115	32	0.0173688	7.25413	0.20673	7.25707	1.63238	468073	1.64247e+07	1.64313e+07	-88.3676	0.0000000E+000	0.0000000E+000	0.0000000E+000	88.3676	0.0000000E+000	0.0000000E+000	0.0000000E+000	-88.3676	0.0000000E+000	0.0000000E+000	0.0000000E+000	-1.63238	0.0000000E+000	0.0000000E+000	0.0000000E+000	1.63238	35.0899	88.3676	0.00205169
39.2835	0.138562	0.00273937	0.138589	-1.13259	652.744	1.38975	12.6671	1.47897e+06	577.834	2	65	0.0105763	0.0763137	0	1.51855	32	0.0176041	7.21417	0.142624	7.21558	1.13259	577834	2.92278e+07	2.92335e+07	-88.8674	0.0000000E+000	0.0000000E+000	0.0000000E+000	88.8674	0.0000000E+000	0.0000000E+000	0.0000000E+000	-88.8674	0.0000000E+000	0.0000000E+000	0.0000000E+000	-1.13259	0.0000000E+000	0.0000000E+000	0.0000000E+000	1.13259	50.5816	88.8674	0.00237068
21.9452	0.139181	0.00204402	0.139196	-0.841392	654.682	1.38974	12.6047	3.54809e+06	765.093	2	65	0.0105756	0.0759763	0	1.52498	32	0.0175173	7.18336	0.105496	7.18414	0.841392	765094	5.20964e+07	5.2102e+07	-89.1586	0.0000000E+000	0.0000000E+000	0.0000000E+000	89.1586	0.0000000E+000	0.0000000E+000	0.0000000E+000	-89.1586	0.0000000E+000	0.0000000E+000	0.0000000E+000	-0.841392	0.0000000E+000	0.0000000E+000	0.0000000E+000	0.841392	68.0916	89.1586	0.00181498
12.2645	0.141887	0.00143075	0.141894	-0.577736	656.975	1.38974	12.6553	9.06996e+06	922.155	2	37	0.0105824	0.0745793	0	1.53291	32	0.0175876	7.04716	0.0710617	7.04752	0.577736	922156	9.14498e+07	9.14544e+07	-89.4223	0.0000000E+000	0.0000000E+000	0.0000000E+000	89.4223	0.0000000E+000	0.0000000E+000	0.0000000E+000	-89.4223	0.0000000E+000	0.0000000E+000	0.0000000E+000	-0.577736	0.0000000E+000	0.0000000E+000	0.0000000E+000	0.577736	99.1696	89.4223	0.00173795
6.85307	0.142106	0.00124366	0.142111	-0.501422	659.002	1.38974	12.7463	1.86738e+07	1430.15	2	37	0.0105765	0.0744243	0	1.54036	32	0.017714	7.03648	0.061581	7.03675	0.501422	1.43014e+06	1.63414e+08	1.63421e+08	-89.4986	0.0000000E+000	0.0000000E+000	0.0000000E+000	89.4986	0.0000000E+000	0.0000000E+000	0.0000000E+000	-89.4986	0.0000000E+000	0.0000000E+000	0.0000000E+000	-0.501422	0.0000000E+000	0.0000000E+000	0.0000000E+000	0.501422	114.264	89.4986	0.00213571
3.82966	0.142366	0.00110135	0.142371	-0.443233	661.241	1.38976	12.8305	3.77341e+07	2258.11	2	37	0.0105821	0.0743279	0	1.54818	32	0.0178313	7.02371	0.0543356	7.02392	0.443233	2.25809e+06	2.91895e+08	2.91904e+08	-89.5568	0.0000000E+000	0.0000000E+000	0.0000000E+000	89.5568	0.0000000E+000	0.0000000E+000	0.0000000E+000	-89.5568	0.0000000E+000	0.0000000E+000	0.0000000E+000	-0.443233	0.0000000E+000	0.0000000E+000	0.0000000E+000	0.443233	129.265	89.5568	0.00296391
2.14159	0.142571	0.000940842	0.142574	-0.378095	665.058	1.38974	12.7545	7.89891e+07	3439.68	2	37	0.0105782	0.0741943	0	1.56289	32	0.0177253	7.01373	0.0462843	7.01388	0.378095	3.4397e+06	5.21235e+08	5.21246e+08	-89.6219	0.0000000E+000	0.0000000E+000	0.0000000E+000	89.6219	0.0000000E+000	0.0000000E+000	0.0000000E+000	-89.6219	0.0000000E+000	0.0000000E+000	0.0000000E+000	-0.378095	0.0000000E+000	0.0000000E+000	0.0000000E+000	0.378095	151.536	89.6219	0.00641117
1.19622	0.142705	0.00102921	0.142709	-0.413218	671.729	1.38973	12.7487	1.29272e+08	6723.74	2	37	0.0105762	0.0741102	0	1.58319	32	0.0177173	7.00708	0.0505361	7.00727	0.413218	6.72369e+06	9.3228e+08	9.32304e+08	-89.5868	0.0000000E+000	0.0000000E+000	0.0000000E+000	89.5868	0.0000000E+000	0.0000000E+000	0.0000000E+000	-89.5868	0.0000000E+000	0.0000000E+000	0.0000000E+000	-0.413218	0.0000000E+000	0.0000000E+000	0.0000000E+000	0.413218	138.655	89.5868	0.00979141
0.668478	0.142962	0.00146438	0.142969	-0.586869	683.515	1.38973	12.8709	1.62585e+08	17057	2	37	0.01058	0.0740019	0	1.63105	32	0.0178872	6.99416	0.0716422	6.99452	0.586869	1.7057e+07	1.66521e+09	1.66529e+09	-89.4131	0.0000000E+000	0.0000000E+000	0.0000000E+000	89.4131	0.0000000E+000	0.0000000E+000	0.0000000E+000	-89.4131	0.0000000E+000	0.0000000E+000	0.0000000E+000	-0.586869	0.0000000E+000	0.0000000E+000	0.0000000E+000	0.586869	97.6262	89.4131	0.0168523
0.373732	0.143823	0.00196982	0.143837	-0.78468	704.458	1.38973	13.1281	2.16189e+08	40545.7	2	37	0.0105783	0.0735437	0	1.69448	32	0.0182446	6.95166	0.0952107	6.95232	0.78468	4.05459e+07	2.96039e+09	2.96066e+09	-89.2153	0.0000000E+000	0.0000000E+000	0.0000000E+000	89.2153	0.0000000E+000	0.0000000E+000	0.0000000E+000	-89.2153	0.0000000E+000	0.0000000E+000	0.0000000E+000	-0.78468	0.0000000E+000	0.0000000E+000	0.0000000E+000	0.78468	73.0135	89.2153	0.0272652
0.208645	0.144645	0.00164528	0.144654	-0.65169	741.809	1.38974	13.4863	4.6363e+08	59977.8	2	37	0.0105756	0.0731097	0	1.85314	32	0.0187424	6.91258	0.078628	6.91302	0.65169	5.99775e+07	5.27294e+09	5.27328e+09	-89.3483	0.0000000E+000	0.0000000E+000	0.0000000E+000	89.3483	0.0000000E+000	0.0000000E+000	0.0000000E+000	-89.3483	0.0000000E+000	0.0000000E+000	0.0000000E+000	-0.65169	0.0000000E+000	0.0000000E+000	0.0000000E+000	0.65169	87.9149	89.3483	0.0659991
0.116619	0.144731	0.001011	0.144734	-0.400226	808.529	1.38974	14.2698	1.3499e+09	65865.8	2	37	0.0105801	0.0730999	0	2.10237	32	0.0198314	6.90905	0.0482623	6.90922	0.400226	6.58652e+07	9.42909e+09	9.42932e+09	-89.5998	0.0000000E+000	0.0000000E+000	0.0000000E+000	89.5998	0.0000000E+000	0.0000000E+000	0.0000000E+000	-89.5998	0.0000000E+000	0.0000000E+000	0.0000000E+000	-0.400226	0.0000000E+000	0.0000000E+000	0.0000000E+000	0.400226	143.156	89.5998	0.0914379
0.0651868	0.144902	0.000485521	0.144903	-0.19198	927.792	1.38973	15.3952	5.02866e+09	56456.7	2	37	0.0105857	0.0730536	0	2.54491	32	0.0213952	6.90114	0.0231236	6.90118	0.19198	5.64564e+07	1.68493e+10	1.68494e+10	-89.808	0.0000000E+000	0.0000000E+000	0.0000000E+000	89.808	0.0000000E+000	0.0000000E+000	0.0000000E+000	-89.808	0.0000000E+000	0.0000000E+000	0.0000000E+000	-0.19198	0.0000000E+000	0.0000000E+000	0.0000000E+000	0.19198	298.446	89.808	0.193716
0.036443	0.142984	0.000212791	0.142984	-0.0852684	1141	1.38974	17.3179	2.05235e+10	45455.2	2	37	0.0105764	0.0739689	0	3.63386	32	0.0240674	6.99376	0.0104082	6.99377	0.0852684	4.54539e+07	3.05434e+10	3.05434e+10	-89.9147	0.0000000E+000	0.0000000E+000	0.0000000E+000	89.9147	0.0000000E+000	0.0000000E+000	0.0000000E+000	-89.9147	0.0000000E+000	0.0000000E+000	0.0000000E+000	-0.0852684	0.0000000E+000	0.0000000E+000	0.0000000E+000	0.0852684	671.946	89.9147	0.457167
164731	0.0748261	-0.0180882	0.0769813	13.5898	1246.09	1.38984	19.0953	-53.4135	-2.94897	3	65	0.0104146	0.135287	0	4.18972	32	0.0265395	12.6265	-3.05228	12.9902	-13.5898	-2948.97	12199.1	12550.5	-103.59	0.0000000E+000	0.0000000E+000	0.0000000E+000	103.59	0.0000000E+000	0.0000000E+000	0.0000000E+000	-103.59	0.0000000E+000	0.0000000E+000	0.0000000E+000	13.5898	0.0000000E+000	0.0000000E+000	0.0000000E+000	-13.5898	4.13674	76.4102	0.00327015
92052	0.0775361	-0.00684602	0.0778377	5.04582	1247.81	1.38986	19.1963	-252.551	-1.95364	3	65	0.010585	0.135988	0	4.19969	32	0.0266801	12.7975	-1.12995	12.8472	-5.04582	-1953.64	22126.4	22212.5	-95.0458	0.0000000E+000	0.0000000E+000	0.0000000E+000	95.0458	0.0000000E+000	0.0000000E+000	0.0000000E+000	-95.0458	0.0000000E+000	0.0000000E+000	0.0000000E+000	5.04582	0.0000000E+000	0.0000000E+000	0.0000000E+000	-5.04582	11.3257	84.9542	0.00415501
51440	0.0798082	0.000455033	0.0798095	-0.326673	1249.53	1.38986	19.2404	6799.49	0.22103	3	65	0.0105522	0.132217	0	4.20935	32	0.0267414	12.5296	0.0714386	12.5298	0.326673	221.032	38766.6	38767.2	-89.6733	0.0000000E+000	0.0000000E+000	0.0000000E+000	89.6733	0.0000000E+000	0.0000000E+000	0.0000000E+000	-89.6733	0.0000000E+000	0.0000000E+000	0.0000000E+000	-0.326673	0.0000000E+000	0.0000000E+000	0.0000000E+000	0.326673	175.39	89.6733	0.00203564
28744.8	0.0828762	0.00583954	0.0830816	-4.03046	1251.25	1.38985	19.1337	948.161	4.68414	3	65	0.0105032	0.12642	0	4.21934	32	0.0265929	12.0066	0.845997	12.0364	4.03046	4684.14	66478.4	66643.2	-85.9695	0.0000000E+000	0.0000000E+000	0.0000000E+000	85.9695	0.0000000E+000	0.0000000E+000	0.0000000E+000	-85.9695	0.0000000E+000	0.0000000E+000	0.0000000E+000	-4.03046	0.0000000E+000	0.0000000E+000	0.0000000E+000	4.03046	14.1922	85.9695	0.00348333
16061.1	0.0869626	0.00988637	0.0875228	-6.48584	1252.97	1.38985	19.056	1002.32	12.7891	3	65	0.0103821	0.118622	0	4.22909	32	0.0264849	11.3525	1.29061	11.4256	6.48584	12789.1	112496	113220	-83.5142	0.0000000E+000	0.0000000E+000	0.0000000E+000	83.5142	0.0000000E+000	0.0000000E+000	0.0000000E+000	-83.5142	0.0000000E+000	0.0000000E+000	0.0000000E+000	-6.48584	0.0000000E+000	0.0000000E+000	0.0000000E+000	6.48584	8.79621	83.5142	0.00396708
8974.76	0.0921159	0.0131231	0.093046	-8.10796	1254.71	1.38975	18.1332	1351.33	26.8805	3	65	0.0103493	0.111228	0	4.23997	32	0.0252005	10.6399	1.5158	10.7474	8.10796	26880.5	188685	190590	-81.892	0.0000000E+000	0.0000000E+000	0.0000000E+000	81.892	0.0000000E+000	0.0000000E+000	0.0000000E+000	-81.892	0.0000000E+000	0.0000000E+000	0.0000000E+000	-8.10796	0.0000000E+000	0.0000000E+000	0.0000000E+000	8.10796	7.01938	81.892	0.00264252
5016.6	0.0983129	0.0153756	0.0995079	-8.88872	1256.92	1.38975	18.1741	2063.38	49.2636	3	65	0.0101418	0.10192	0	4.25147	32	0.0252575	9.92876	1.5528	10.0494	8.88872	49263.5	314996	318825	-81.1113	0.0000000E+000	0.0000000E+000	0.0000000E+000	81.1113	0.0000000E+000	0.0000000E+000	0.0000000E+000	-81.1113	0.0000000E+000	0.0000000E+000	0.0000000E+000	-8.88872	0.0000000E+000	0.0000000E+000	0.0000000E+000	8.88872	6.3941	81.1113	0.00484865
2802.31	0.1051	0.0170169	0.106468	-9.19708	1259	1.38973	18.1987	3337.51	85.2597	3	65	0.0106518	0.100046	0	4.26216	32	0.0252914	9.27172	1.50121	9.39247	9.19708	85259.7	526580	533437	-80.8029	0.0000000E+000	0.0000000E+000	0.0000000E+000	80.8029	0.0000000E+000	0.0000000E+000	0.0000000E+000	-80.8029	0.0000000E+000	0.0000000E+000	0.0000000E+000	-9.19708	0.0000000E+000	0.0000000E+000	0.0000000E+000	9.19708	6.17618	80.8029	0.00379957
1566.51	0.112787	0.0173655	0.114116	-8.75292	1261.07	1.38976	18.4601	5850.6	135.482	3	65	0.0106734	0.0935309	0	4.27318	32	0.0256552	8.66093	1.3335	8.76299	8.75292	135481	879939	890308	-81.2471	0.0000000E+000	0.0000000E+000	0.0000000E+000	81.2471	0.0000000E+000	0.0000000E+000	0.0000000E+000	-81.2471	0.0000000E+000	0.0000000E+000	0.0000000E+000	-8.75292	0.0000000E+000	0.0000000E+000	0.0000000E+000	8.75292	6.4949	81.2471	0.0039023
875.279	0.120225	0.0158874	0.12127	-7.52787	1263.14	1.38975	18.4074	11445.1	196.435	3	65	0.0106126	0.0875117	0	4.28338	32	0.0255817	8.17497	1.0803	8.24604	7.52787	196435	1.48648e+06	1.4994e+06	-82.4721	0.0000000E+000	0.0000000E+000	0.0000000E+000	82.4721	0.0000000E+000	0.0000000E+000	0.0000000E+000	-82.4721	0.0000000E+000	0.0000000E+000	0.0000000E+000	-7.52787	0.0000000E+000	0.0000000E+000	0.0000000E+000	7.52787	7.56731	82.4721	0.00320531
489.217	0.126562	0.0127378	0.127202	-5.74714	1265.21	1.38976	18.5313	25540.2	256.11	3	65	0.0105746	0.0831321	0	4.29347	32	0.025754	7.822	0.787241	7.86152	5.74714	256110	2.5447e+06	2.55756e+06	-84.2529	0.0000000E+000	0.0000000E+000	0.0000000E+000	84.2529	0.0000000E+000	0.0000000E+000	0.0000000E+000	-84.2529	0.0000000E+000	0.0000000E+000	0.0000000E+000	-5.74714	0.0000000E+000	0.0000000E+000	0.0000000E+000	5.74714	9.93598	84.2529	0.00366757
273.338	0.130615	0.00945066	0.130956	-4.13843	1267.29	1.38975	18.28	61611	320.87	3	65	0.0105553	0.0806015	0	4.30383	32	0.0254045	7.61622	0.551072	7.63613	4.13843	320870	4.43465e+06	4.44625e+06	-85.8616	0.0000000E+000	0.0000000E+000	0.0000000E+000	85.8616	0.0000000E+000	0.0000000E+000	0.0000000E+000	-85.8616	0.0000000E+000	0.0000000E+000	0.0000000E+000	-4.13843	0.0000000E+000	0.0000000E+000	0.0000000E+000	4.13843	13.8207	85.8616	0.00387371
152.703	0.132939	0.00656295	0.1331	-2.8263	1269.37	1.38975	18.4383	158808	386.111	3	65	0.0105434	0.079214	0	4.31421	32	0.0256247	7.50398	0.370459	7.51312	2.8263	386111	7.82102e+06	7.83055e+06	-87.1737	0.0000000E+000	0.0000000E+000	0.0000000E+000	87.1737	0.0000000E+000	0.0000000E+000	0.0000000E+000	-87.1737	0.0000000E+000	0.0000000E+000	0.0000000E+000	-2.8263	0.0000000E+000	0.0000000E+000	0.0000000E+000	2.8263	20.2559	87.1737	0.0032429
85.3553	0.134338	0.00448512	0.134413	-1.91222	1271.44	1.38976	18.5065	415734	462.897	3	65	0.0105396	0.0784125	0	4.3247	32	0.0257196	7.43564	0.248253	7.43978	1.91222	462896	1.38646e+07	1.38723e+07	-88.0878	0.0000000E+000	0.0000000E+000	0.0000000E+000	88.0878	0.0000000E+000	0.0000000E+000	0.0000000E+000	-88.0878	0.0000000E+000	0.0000000E+000	0.0000000E+000	-1.91222	0.0000000E+000	0.0000000E+000	0.0000000E+000	1.91222	29.9519	88.0878	0.00340457
47.6953	0.135238	0.00316833	0.135276	-1.34206	1273.56	1.38973	18.4315	1.05321e+06	577.744	3	65	0.0105365	0.0778894	0	4.33593	32	0.0256147	7.39029	0.173137	7.39232	1.34206	577744	2.46607e+07	2.46675e+07	-88.6579	0.0000000E+000	0.0000000E+000	0.0000000E+000	88.6579	0.0000000E+000	0.0000000E+000	0.0000000E+000	-88.6579	0.0000000E+000	0.0000000E+000	0.0000000E+000	-1.34206	0.0000000E+000	0.0000000E+000	0.0000000E+000	1.34206	42.6845	88.6579	0.00411274
26.6457	0.135997	0.00203918	0.136012	-0.859049	1275.56	1.38975	18.3852	2.92913e+06	658.409	3	65	0.010545	0.0775302	0	4.34632	32	0.0255508	7.35147	0.110231	7.3523	0.859049	658408	4.39105e+07	4.39154e+07	-89.141	0.0000000E+000	0.0000000E+000	0.0000000E+000	89.141	0.0000000E+000	0.0000000E+000	0.0000000E+000	-89.141	0.0000000E+000	0.0000000E+000	0.0000000E+000	-0.859049	0.0000000E+000	0.0000000E+000	0.0000000E+000	0.859049	66.6918	89.141	0.0035475
14.8904	0.138573	0.00162752	0.138583	-0.6729	1277.92	1.38974	20.1314	6.56728e+06	905.776	3	37	0.0105396	0.0760525	0	4.35888	32	0.0279774	7.2154	0.0847438	7.2159	0.6729	905773	7.71211e+07	7.71264e+07	-89.3271	0.0000000E+000	0.0000000E+000	0.0000000E+000	89.3271	0.0000000E+000	0.0000000E+000	0.0000000E+000	-89.3271	0.0000000E+000	0.0000000E+000	0.0000000E+000	-0.6729	0.0000000E+000	0.0000000E+000	0.0000000E+000	0.6729	85.1437	89.3271	0.00512206
8.31999	0.138956	0.00127219	0.138962	-0.524549	1279.99	1.38973	18.3387	1.50364e+07	1260.26	3	37	0.0105438	0.0758751	0	4.36982	32	0.0254859	7.19591	0.0658812	7.19621	0.524549	1.26026e+06	1.37652e+08	1.37658e+08	-89.4754	0.0000000E+000	0.0000000E+000	0.0000000E+000	89.4754	0.0000000E+000	0.0000000E+000	0.0000000E+000	-89.4754	0.0000000E+000	0.0000000E+000	0.0000000E+000	-0.524549	0.0000000E+000	0.0000000E+000	0.0000000E+000	0.524549	109.226	89.4754	0.00407655
4.65029	0.139068	0.000974298	0.139071	-0.401403	1281.88	1.38974	18.4271	3.51276e+07	1724.08	3	37	0.0105316	0.075728	0	4.37861	32	0.0256089	7.19039	0.0503754	7.19057	0.401403	1.72409e+06	2.46089e+08	2.46095e+08	-89.5986	0.0000000E+000	0.0000000E+000	0.0000000E+000	89.5986	0.0000000E+000	0.0000000E+000	0.0000000E+000	-89.5986	0.0000000E+000	0.0000000E+000	0.0000000E+000	-0.401403	0.0000000E+000	0.0000000E+000	0.0000000E+000	0.401403	142.736	89.5986	0.00254341
2.59897	0.139419	0.000895528	0.139422	-0.368021	1285.07	1.38974	18.3418	6.83816e+07	2821.2	3	37	0.0105407	0.0756029	0	4.39442	32	0.0254904	7.17231	0.0460697	7.17246	0.368021	2.82118e+06	4.39215e+08	4.39225e+08	-89.632	0.0000000E+000	0.0000000E+000	0.0000000E+000	89.632	0.0000000E+000	0.0000000E+000	0.0000000E+000	-89.632	0.0000000E+000	0.0000000E+000	0.0000000E+000	-0.368021	0.0000000E+000	0.0000000E+000	0.0000000E+000	0.368021	155.684	89.632	0.00459264
1.4516	0.139656	0.000945706	0.139659	-0.387982	1290.6	1.38974	18.4583	1.15936e+08	5316.06	3	37	0.0105441	0.0754988	0	4.42581	32	0.0256522	7.16011	0.0484859	7.16028	0.387982	5.3161e+06	7.85044e+08	7.85062e+08	-89.612	0.0000000E+000	0.0000000E+000	0.0000000E+000	89.612	0.0000000E+000	0.0000000E+000	0.0000000E+000	-89.612	0.0000000E+000	0.0000000E+000	0.0000000E+000	-0.387982	0.0000000E+000	0.0000000E+000	0.0000000E+000	0.387982	147.674	89.612	0.0123305
0.811689	0.13986	0.00125443	0.139866	-0.513879	1300.34	1.38974	18.5986	1.5631e+08	12573.3	3	37	0.010542	0.075372	0	4.46964	32	0.0258472	7.14941	0.064124	7.1497	0.513879	1.25733e+07	1.40185e+09	1.4019e+09	-89.4861	0.0000000E+000	0.0000000E+000	0.0000000E+000	89.4861	0.0000000E+000	0.0000000E+000	0.0000000E+000	-89.4861	0.0000000E+000	0.0000000E+000	0.0000000E+000	-0.513879	0.0000000E+000	0.0000000E+000	0.0000000E+000	0.513879	111.494	89.4861	0.018639
0.453687	0.140434	0.00184663	0.140447	-0.753364	1317.62	1.38974	18.8016	1.89969e+08	32841.4	3	37	0.0105388	0.0750379	0	4.57027	32	0.0261293	7.11953	0.0936179	7.12015	0.753364	3.28414e+07	2.49755e+09	2.49777e+09	-89.2466	0.0000000E+000	0.0000000E+000	0.0000000E+000	89.2466	0.0000000E+000	0.0000000E+000	0.0000000E+000	-89.2466	0.0000000E+000	0.0000000E+000	0.0000000E+000	-0.753364	0.0000000E+000	0.0000000E+000	0.0000000E+000	0.753364	76.0489	89.2466	0.0398023
0.253521	0.141611	0.00179754	0.141622	-0.727247	1348.4	1.38975	19.0846	3.49243e+08	56263.1	3	37	0.0105398	0.0744223	0	4.71672	32	0.0265229	7.06048	0.0896225	7.06105	0.727247	5.62632e+07	4.43242e+09	4.43278e+09	-89.2728	0.0000000E+000	0.0000000E+000	0.0000000E+000	89.2728	0.0000000E+000	0.0000000E+000	0.0000000E+000	-89.2728	0.0000000E+000	0.0000000E+000	0.0000000E+000	-0.727247	0.0000000E+000	0.0000000E+000	0.0000000E+000	0.727247	78.7802	89.2728	0.0558445
0.141569	0.142213	0.00123245	0.142218	-0.496528	1403.39	1.38974	19.3716	9.12181e+08	68503.4	3	37	0.0105439	0.0741387	0	5.01235	32	0.0269215	7.03119	0.0609341	7.03146	0.496528	6.85035e+07	7.90461e+09	7.9049e+09	-89.5035	0.0000000E+000	0.0000000E+000	0.0000000E+000	89.5035	0.0000000E+000	0.0000000E+000	0.0000000E+000	-89.5035	0.0000000E+000	0.0000000E+000	0.0000000E+000	-0.496528	0.0000000E+000	0.0000000E+000	0.0000000E+000	0.496528	115.39	89.5035	0.127785
0.0791155	0.142466	0.000984586	0.14247	-0.395965	1501.66	1.38974	20.0199	2.04317e+09	97581.3	3	37	0.0105469	0.0740288	0	5.59731	32	0.0278225	7.01886	0.0485074	7.01903	0.395965	9.75814e+07	1.41197e+10	1.412e+10	-89.604	0.0000000E+000	0.0000000E+000	0.0000000E+000	89.604	0.0000000E+000	0.0000000E+000	0.0000000E+000	-89.604	0.0000000E+000	0.0000000E+000	0.0000000E+000	-0.395965	0.0000000E+000	0.0000000E+000	0.0000000E+000	0.395965	144.697	89.604	0.226773
0.0442372	0.141814	-6.93867e-05	0.141814	0.0280336	1677.33	1.38974	21.069	-5.1851e+10	-12412.8	3	37	0.0105419	0.0743357	0	6.5109	32	0.0292804	7.05148	-0.00345014	7.05148	-0.0280336	-1.24114e+07	2.53696e+10	2.53696e+10	-90.028	0.0000000E+000	0.0000000E+000	0.0000000E+000	90.028	0.0000000E+000	0.0000000E+000	0.0000000E+000	-90.028	0.0000000E+000	0.0000000E+000	0.0000000E+000	0.0280336	0.0000000E+000	0.0000000E+000	0.0000000E+000	-0.0280336	2043.83	89.972	0.36035
199998	0.0729925	-0.0235091	0.0766849	17.8525	1867.18	1.38984	5.72057	-33.85	-3.18134	4	65	0.00956285	0.124703	0	7.61702	32	0.0079507	12.4125	-3.99775	13.0404	-17.8525	-3181.34	9877.62	10377.3	-107.852	0.0000000E+000	0.0000000E+000	0.0000000E+000	107.852	0.0000000E+000	0.0000000E+000	0.0000000E+000	-107.852	0.0000000E+000	0.0000000E+000	0.0000000E+000	17.8525	0.0000000E+000	0.0000000E+000	0.0000000E+000	-17.8525	3.10486	72.1475	0.00419097
111760	0.0759157	-0.0100482	0.0765778	7.53988	1868.9	1.38985	23.5195	-141.725	-2.44017	4	65	0.010561	0.137912	0	7.62925	32	0.0326885	12.9457	-1.7135	13.0586	-7.53988	-2440.17	18435.8	18596.6	-97.5399	0.0000000E+000	0.0000000E+000	0.0000000E+000	97.5399	0.0000000E+000	0.0000000E+000	0.0000000E+000	-97.5399	0.0000000E+000	0.0000000E+000	0.0000000E+000	7.53988	0.0000000E+000	0.0000000E+000	0.0000000E+000	-7.53988	7.55512	82.4601	0.00272073
62453.6	0.0781158	-0.00178517	0.0781362	1.30915	1870.62	1.38987	23.7311	-1427.52	-0.74514	4	65	0.0105622	0.135176	0	7.6407	32	0.0329832	12.7948	-0.292399	12.7982	-1.30915	-745.138	32605.9	32614.5	-91.3091	0.0000000E+000	0.0000000E+000	0.0000000E+000	91.3091	0.0000000E+000	0.0000000E+000	0.0000000E+000	-91.3091	0.0000000E+000	0.0000000E+000	0.0000000E+000	1.30915	0.0000000E+000	0.0000000E+000	0.0000000E+000	-1.30915	43.7581	88.6909	0.00275284
34896.4	0.0808314	0.00414675	0.0809377	-2.93677	1872.34	1.38986	23.624	1099.84	2.88699	4	65	0.0105151	0.129916	0	7.65342	32	0.032834	12.339	0.633004	12.3552	2.93677	2886.99	56275.3	56349.3	-87.0632	0.0000000E+000	0.0000000E+000	0.0000000E+000	87.0632	0.0000000E+000	0.0000000E+000	0.0000000E+000	-87.0632	0.0000000E+000	0.0000000E+000	0.0000000E+000	-2.93677	0.0000000E+000	0.0000000E+000	0.0000000E+000	2.93677	19.4927	87.0632	0.00447183
19503.4	0.0844867	0.00858332	0.0849216	-5.80099	1874.06	1.38984	23.6728	950.724	9.71244	4	65	0.0104264	0.122776	0	7.66321	32	0.0329014	11.7153	1.1902	11.7756	5.80099	9712.44	95600.8	96092.9	-84.199	0.0000000E+000	0.0000000E+000	0.0000000E+000	84.199	0.0000000E+000	0.0000000E+000	0.0000000E+000	-84.199	0.0000000E+000	0.0000000E+000	0.0000000E+000	-5.80099	0.0000000E+000	0.0000000E+000	0.0000000E+000	5.80099	9.84313	84.199	0.0030921
10902.2	0.0893127	0.0120823	0.0901263	-7.70424	1875.78	1.38985	23.4317	1208.24	21.7145	4	65	0.0102635	0.113879	0	7.67445	32	0.0325666	10.9954	1.48746	11.0955	7.70424	21714.6	160515	161977	-82.2958	0.0000000E+000	0.0000000E+000	0.0000000E+000	82.2958	0.0000000E+000	0.0000000E+000	0.0000000E+000	-82.2958	0.0000000E+000	0.0000000E+000	0.0000000E+000	-7.70424	0.0000000E+000	0.0000000E+000	0.0000000E+000	7.70424	7.39204	82.2958	0.00281235
6087.59	0.0950511	0.0145737	0.0961619	-8.71697	1877.86	1.38973	22.6177	1793.93	41.2039	4	65	0.0101156	0.105193	0	7.68765	32	0.0314324	10.279	1.57603	10.3991	8.71697	41203.9	268736	271877	-81.283	0.0000000E+000	0.0000000E+000	0.0000000E+000	81.283	0.0000000E+000	0.0000000E+000	0.0000000E+000	-81.283	0.0000000E+000	0.0000000E+000	0.0000000E+000	-8.71697	0.0000000E+000	0.0000000E+000	0.0000000E+000	8.71697	6.52211	81.283	0.00517105
3403.91	0.101524	0.0164542	0.102848	-9.20603	1880.17	1.38974	22.8459	2841.61	72.7317	4	65	0.0103222	0.100364	0	7.70323	32	0.03175	9.59781	1.55554	9.72305	9.20603	72731.7	448760	454616	-80.794	0.0000000E+000	0.0000000E+000	0.0000000E+000	80.794	0.0000000E+000	0.0000000E+000	0.0000000E+000	-80.794	0.0000000E+000	0.0000000E+000	0.0000000E+000	-9.20603	0.0000000E+000	0.0000000E+000	0.0000000E+000	9.20603	6.17008	80.794	0.00453678
1901.83	0.108816	0.0172309	0.110172	-8.99802	1882.24	1.38974	22.6071	4856.69	118.8	4	65	0.0104716	0.0950477	0	7.71732	32	0.031418	8.96501	1.4196	9.07671	8.99802	118800	750240	759587	-81.002	0.0000000E+000	0.0000000E+000	0.0000000E+000	81.002	0.0000000E+000	0.0000000E+000	0.0000000E+000	-81.002	0.0000000E+000	0.0000000E+000	0.0000000E+000	-8.99802	0.0000000E+000	0.0000000E+000	0.0000000E+000	8.99802	6.31517	81.002	0.00462211
1062.62	0.116589	0.0165098	0.117752	-8.05987	1884.31	1.38972	22.6134	9071.97	178.339	4	65	0.01044	0.0886604	0	7.73083	32	0.0314264	8.40851	1.1907	8.4924	8.05987	178339	1.2594e+06	1.27196e+06	-81.9401	0.0000000E+000	0.0000000E+000	0.0000000E+000	81.9401	0.0000000E+000	0.0000000E+000	0.0000000E+000	-81.9401	0.0000000E+000	0.0000000E+000	0.0000000E+000	-8.05987	0.0000000E+000	0.0000000E+000	0.0000000E+000	8.05987	7.06182	81.9401	0.00402844
593.67	0.123334	0.0137994	0.124104	-6.38407	1886.39	1.38974	22.657	19427.4	240.196	4	65	0.0103909	0.0837275	0	7.74418	32	0.0314874	8.00782	0.895967	8.05779	6.38407	240196	2.14679e+06	2.16018e+06	-83.6159	0.0000000E+000	0.0000000E+000	0.0000000E+000	83.6159	0.0000000E+000	0.0000000E+000	0.0000000E+000	-83.6159	0.0000000E+000	0.0000000E+000	0.0000000E+000	-6.38407	0.0000000E+000	0.0000000E+000	0.0000000E+000	6.38407	8.93763	83.6159	0.00425485
331.805	0.128182	0.0104616	0.128608	-4.66588	1888.46	1.38974	22.5601	45849.9	303.389	4	65	0.01037	0.0806328	0	7.75721	32	0.0313527	7.7498	0.632504	7.77557	4.66588	303389	3.7173e+06	3.72966e+06	-85.3341	0.0000000E+000	0.0000000E+000	0.0000000E+000	85.3341	0.0000000E+000	0.0000000E+000	0.0000000E+000	-85.3341	0.0000000E+000	0.0000000E+000	0.0000000E+000	-4.66588	0.0000000E+000	0.0000000E+000	0.0000000E+000	4.66588	12.2526	85.3341	0.0043189
185.415	0.130967	0.0074609	0.13118	-3.26048	1890.53	1.38972	22.5828	115049	372.162	4	65	0.0103533	0.0789248	0	7.77014	32	0.0313839	7.61079	0.433568	7.62313	3.26048	372163	6.53288e+06	6.54347e+06	-86.7395	0.0000000E+000	0.0000000E+000	0.0000000E+000	86.7395	0.0000000E+000	0.0000000E+000	0.0000000E+000	-86.7395	0.0000000E+000	0.0000000E+000	0.0000000E+000	-3.26048	0.0000000E+000	0.0000000E+000	0.0000000E+000	3.26048	17.5538	86.7395	0.00460711
103.641	0.132682	0.00506835	0.132779	-2.18759	1892.62	1.38973	22.5989	302987	441.467	4	65	0.0103483	0.0779361	0	7.78341	32	0.0314062	7.52582	0.28748	7.53131	2.18759	441468	1.1557e+07	1.15654e+07	-87.8124	0.0000000E+000	0.0000000E+000	0.0000000E+000	87.8124	0.0000000E+000	0.0000000E+000	0.0000000E+000	-87.8124	0.0000000E+000	0.0000000E+000	0.0000000E+000	-2.18759	0.0000000E+000	0.0000000E+000	0.0000000E+000	2.18759	26.1786	87.8124	0.00459339
57.9061	0.133663	0.00350386	0.133708	-1.50162	1894.71	1.38975	22.6723	784420	538.673	4	65	0.0103526	0.0774267	0	7.79619	32	0.0315089	7.47639	0.195988	7.47896	1.50162	538674	2.05489e+07	2.05559e+07	-88.4984	0.0000000E+000	0.0000000E+000	0.0000000E+000	88.4984	0.0000000E+000	0.0000000E+000	0.0000000E+000	-88.4984	0.0000000E+000	0.0000000E+000	0.0000000E+000	-1.50162	0.0000000E+000	0.0000000E+000	0.0000000E+000	1.50162	38.1472	88.4984	0.00462706
32.3499	0.134286	0.00238232	0.134308	-1.01635	1896.77	1.38973	22.6665	2.06513e+06	649.749	4	65	0.0103416	0.0769992	0	7.80941	32	0.0315004	7.44442	0.132068	7.4456	1.01635	649747	3.66251e+07	3.66308e+07	-88.9836	0.0000000E+000	0.0000000E+000	0.0000000E+000	88.9836	0.0000000E+000	0.0000000E+000	0.0000000E+000	-88.9836	0.0000000E+000	0.0000000E+000	0.0000000E+000	-1.01635	0.0000000E+000	0.0000000E+000	0.0000000E+000	1.01635	56.368	88.9836	0.00451163
18.0845	0.134829	0.00180228	0.134841	-0.765835	1898.82	1.38973	22.6774	4.88305e+06	872.35	4	65	0.0103482	0.0767433	0	7.82243	32	0.0315154	7.41546	0.0991236	7.41612	0.765835	872353	6.52607e+07	6.52666e+07	-89.2342	0.0000000E+000	0.0000000E+000	0.0000000E+000	89.2342	0.0000000E+000	0.0000000E+000	0.0000000E+000	-89.2342	0.0000000E+000	0.0000000E+000	0.0000000E+000	-0.765835	0.0000000E+000	0.0000000E+000	0.0000000E+000	0.765835	74.8103	89.2342	0.00470695
10.1067	0.137476	0.00138114	0.137483	-0.575598	1901.01	1.38973	22.5711	1.14018e+07	1150.67	4	37	0.0103479	0.0752666	0	7.83682	32	0.0313678	7.27328	0.0730704	7.27364	0.575598	1.15068e+06	1.14536e+08	1.14541e+08	-89.4244	0.0000000E+000	0.0000000E+000	0.0000000E+000	89.4244	0.0000000E+000	0.0000000E+000	0.0000000E+000	-89.4244	0.0000000E+000	0.0000000E+000	0.0000000E+000	-0.575598	0.0000000E+000	0.0000000E+000	0.0000000E+000	0.575598	99.538	89.4244	0.00448457
5.64487	0.137769	0.0010725	0.137773	-0.446023	1902.97	1.38974	22.6116	2.62887e+07	1593.06	4	37	0.0103491	0.0751167	0	7.84947	32	0.0314241	7.25807	0.0565022	7.25829	0.446023	1.59305e+06	2.04638e+08	2.04645e+08	-89.554	0.0000000E+000	0.0000000E+000	0.0000000E+000	89.554	0.0000000E+000	0.0000000E+000	0.0000000E+000	-89.554	0.0000000E+000	0.0000000E+000	0.0000000E+000	-0.446023	0.0000000E+000	0.0000000E+000	0.0000000E+000	0.446023	128.457	89.554	0.00487808
3.15529	0.138026	0.000950177	0.138029	-0.39442	1905.64	1.38973	22.5405	5.30855e+07	2515.6	4	37	0.0103532	0.0750071	0	7.86616	32	0.0313253	7.24467	0.0498726	7.24484	0.39442	2.51558e+06	3.65426e+08	3.65434e+08	-89.6056	0.0000000E+000	0.0000000E+000	0.0000000E+000	89.6056	0.0000000E+000	0.0000000E+000	0.0000000E+000	-89.6056	0.0000000E+000	0.0000000E+000	0.0000000E+000	-0.39442	0.0000000E+000	0.0000000E+000	0.0000000E+000	0.39442	145.264	89.6056	0.00674999
1.76354	0.138238	0.00102792	0.138241	-0.426036	1910.22	1.38973	22.5441	8.77963e+07	4854.17	4	37	0.010356	0.0749122	0	7.8956	32	0.0313304	7.23353	0.0537875	7.23373	0.426036	4.85414e+06	6.52805e+08	6.52823e+08	-89.574	0.0000000E+000	0.0000000E+000	0.0000000E+000	89.574	0.0000000E+000	0.0000000E+000	0.0000000E+000	-89.574	0.0000000E+000	0.0000000E+000	0.0000000E+000	-0.426036	0.0000000E+000	0.0000000E+000	0.0000000E+000	0.426036	134.483	89.574	0.0135807
0.985309	0.138389	0.00111473	0.138394	-0.461508	1918.28	1.38973	22.5603	1.44903e+08	9401.18	4	37	0.0103514	0.0747965	0	7.94155	32	0.0313527	7.22551	0.0582016	7.22575	0.461508	9.40121e+06	1.16712e+09	1.16716e+09	-89.5385	0.0000000E+000	0.0000000E+000	0.0000000E+000	89.5385	0.0000000E+000	0.0000000E+000	0.0000000E+000	-89.5385	0.0000000E+000	0.0000000E+000	0.0000000E+000	-0.461508	0.0000000E+000	0.0000000E+000	0.0000000E+000	0.461508	124.146	89.5385	0.0171532
0.550486	0.138735	0.00162983	0.138745	-0.673066	1932.55	1.38974	22.6482	1.77391e+08	24478.3	4	37	0.0103476	0.0745802	0	8.03805	32	0.0314751	7.20697	0.0846657	7.20747	0.673066	2.44783e+07	2.08366e+09	2.0838e+09	-89.3269	0.0000000E+000	0.0000000E+000	0.0000000E+000	89.3269	0.0000000E+000	0.0000000E+000	0.0000000E+000	-89.3269	0.0000000E+000	0.0000000E+000	0.0000000E+000	-0.673066	0.0000000E+000	0.0000000E+000	0.0000000E+000	0.673066	85.1227	89.3269	0.0405554
0.307821	0.139819	0.00195367	0.139832	-0.800537	1957.94	1.38974	22.7872	2.64648e+08	51660.5	4	37	0.0103514	0.0740275	0	8.19267	32	0.0316683	7.15073	0.0999165	7.15142	0.800537	5.16605e+07	3.69719e+09	3.69755e+09	-89.1995	0.0000000E+000	0.0000000E+000	0.0000000E+000	89.1995	0.0000000E+000	0.0000000E+000	0.0000000E+000	-89.1995	0.0000000E+000	0.0000000E+000	0.0000000E+000	-0.800537	0.0000000E+000	0.0000000E+000	0.0000000E+000	0.800537	71.567	89.1995	0.0573151
0.253521	0.140215	0.00181522	0.140226	-0.741709	1970.23	1.38974	22.8458	3.45842e+08	57952.9	4	37	0.0103539	0.0738371	0	8.26192	32	0.0317496	7.13073	0.0923143	7.13133	0.741709	5.79528e+07	4.47652e+09	4.47689e+09	-89.2583	0.0000000E+000	0.0000000E+000	0.0000000E+000	89.2583	0.0000000E+000	0.0000000E+000	0.0000000E+000	-89.2583	0.0000000E+000	0.0000000E+000	0.0000000E+000	-0.741709	0.0000000E+000	0.0000000E+000	0.0000000E+000	0.741709	77.2441	89.2583	0.0692436