File: Python/ImpedanceDataOld/different flow rate_NIPS electrode_iron symmetric single-tank tests_0.5 M total iron_choose the cycle number=1/IDFF flow field/NoPattern_IDFF_ve=2 cms_EIS.mpt
EC-Lab ASCII FILE
Nb header lines : 63

Potentio Electrochemical Impedance Spectroscopy

Run on channel : 3 (SN 50730)
User :
CE vs. WE compliance from -10 V to 10 V
Electrode connection : standard
Potential control : Ewe
Ewe ctrl range : min = -10.00 V, max = 10.00 V
Safety Limits :
	Do not start on E overload
Acquisition started on : 02/14/2023 14:26:00.376
Loaded Setting File :  C:\Users\sto063\Documents\EC-Lab\Data\Baichen\Micormolding\20230214_denseNoPatternS4_IDFF\NoPattern_IDFF_05Fe_2MHCL_ve10cms_EIS_PCGA.mps
Saved on :
	File : NoPattern_IDFF_05Fe_2MHCL_ve2cms_EIS_PCGA_01_PEIS_C03.mpr
	Directory : C:\Users\sto063\Documents\EC-Lab\Data\Baichen\Micormolding\20230214_denseNoPatternS4_IDFF\
	Host : 131.155.90.158
Device : VSP-3e (SN .003050)
Address : USB
EC-Lab for windows v11.43 (software)
Internet server v11.40 (firmware)
Command interpretor v11.40 (firmware)
Electrode material :
Initial state :
Electrolyte :
Comments :
Electrode surface area : 0.001 cm2
Characteristic mass : 0.001 g
Equivalent Weight : 0.000 g/eq.
Density : 0.000 g/cm3
Volume (V) : 0.001 cm3
Cycle Definition : Charge/Discharge alternance
Mode                Single sine
E (V)               0.0000
vs.                 Eoc
tE (h:m:s)          0:00:0.0000
record              0
dI                  0.000
unit dI             mA
dt (s)              0.000
fi                  200.000
unit fi             kHz
ff                  20.000
unit ff             mHz
Nd                  8
Points              per decade
spacing             Logarithmic
Va (mV)             10.0
pw                  0.10
Na                  5
corr                0
E range min (V)     -10.000
E range max (V)     10.000
I Range             Auto
Bandwidth           5
nc cycles           0
goto Ns'            0
nr cycles           0
inc. cycle          0

freq/Hz	Re(Z)/Ohm	-Im(Z)/Ohm	|Z|/Ohm	Phase(Z)/deg	time/s	<Ewe>/V	<I>/mA	Cs/uF	Cp/uF	cycle number	I Range	|Ewe|/V	|I|/A	Ns	(Q-Qo)/mA.h	Re(Y)/Ohm-1	Im(Y)/Ohm-1	|Y|/Ohm-1	Phase(Y)/deg	Re(C)/nF	Im(C)/nF	|C|/nF	Phase(C)/deg	Re(M)	Im(M)	|M|	Phase(M)/deg	Re(Permittivity)	Im(Permittivity)	|Permittivity|	Phase(Permittivity)/deg	Re(Resistivity)/Ohm.cm	Im(Resistivity)/Ohm.cm	|Resistivity|/Ohm.cm	Phase(Resistivity)/deg	Re(Conductivity)/mS/cm	Im(Conductivity)/mS/cm	|Conductivity|/mS/cm	Phase(Conductivity)/deg	Tan(Delta)	Loss Angle(Delta)/deg	dq/mA.h
199998	0.188113	-0.0751814	0.20258	21.7846	1.73848	-0.00037791	-1.35347	-10.5848	-1.45784	1	9	0.000827502	0.00408481	0	-0.000513952	4.58379	-1.83196	4.93631	-21.7846	-1457.84	3647.7	3928.23	-111.785	0.0000000E+000	0.0000000E+000	0.0000000E+000	111.785	0.0000000E+000	0.0000000E+000	0.0000000E+000	-111.785	0.0000000E+000	0.0000000E+000	0.0000000E+000	21.7846	0.0000000E+000	0.0000000E+000	0.0000000E+000	-21.7846	-2.50213	-21.7846	-0.000513952
149198	0.19626	-0.0536617	0.203464	15.2921	2.56249	-0.000395953	-1.3289	-19.8789	-1.38275	1	9	0.00175967	0.00864856	0	-0.00083022	4.74085	-1.29625	4.91486	-15.2921	-1382.75	5057.22	5242.85	-105.292	0.0000000E+000	0.0000000E+000	0.0000000E+000	105.292	0.0000000E+000	0.0000000E+000	0.0000000E+000	-105.292	0.0000000E+000	0.0000000E+000	0.0000000E+000	15.2921	0.0000000E+000	0.0000000E+000	0.0000000E+000	-15.2921	-3.65736	-15.2921	-0.000316269
111296	0.199853	-0.0383363	0.203497	10.8587	3.3865	-0.000429801	-1.42248	-37.3019	-1.32384	1	9	0.0046151	0.0226789	0	-0.00112182	4.82609	-0.925751	4.91408	-10.8587	-1323.84	6901.4	7027.22	-100.859	0.0000000E+000	0.0000000E+000	0.0000000E+000	100.859	0.0000000E+000	0.0000000E+000	0.0000000E+000	-100.859	0.0000000E+000	0.0000000E+000	0.0000000E+000	10.8587	0.0000000E+000	0.0000000E+000	0.0000000E+000	-10.8587	-5.21316	-10.8587	-0.000291601
83024	0.201189	-0.0267259	0.202956	7.56686	4.3475	-0.000444973	-1.48989	-71.7272	-1.24378	1	9	0.0225312	0.111015	0	-0.00158738	4.88426	-0.648824	4.92717	-7.56686	-1243.78	9363	9445.25	-97.5669	0.0000000E+000	0.0000000E+000	0.0000000E+000	97.5669	0.0000000E+000	0.0000000E+000	0.0000000E+000	-97.5669	0.0000000E+000	0.0000000E+000	0.0000000E+000	7.56686	0.0000000E+000	0.0000000E+000	0.0000000E+000	-7.56686	-7.52787	-7.56686	-0.000465564
61934	0.202135	-0.0185711	0.202986	5.24931	6.40448	-0.000367267	-1.20185	-138.373	-1.15824	1	9	0.0116078	0.0571854	0	-0.00278589	4.90579	-0.45072	4.92645	-5.24931	-1158.24	12606.7	12659.8	-95.2493	0.0000000E+000	0.0000000E+000	0.0000000E+000	95.2493	0.0000000E+000	0.0000000E+000	0.0000000E+000	-95.2493	0.0000000E+000	0.0000000E+000	0.0000000E+000	5.24931	0.0000000E+000	0.0000000E+000	0.0000000E+000	-5.24931	-10.8843	-5.24931	-0.00119851
46206.9	0.203132	-0.0123225	0.203505	3.47147	7.50248	-0.000324565	-1.03913	-279.52	-1.02485	1	9	0.00944517	0.0464124	0	-0.00284955	4.90486	-0.297542	4.91388	-3.47147	-1024.85	16894.3	16925.3	-93.4715	0.0000000E+000	0.0000000E+000	0.0000000E+000	93.4715	0.0000000E+000	0.0000000E+000	0.0000000E+000	-93.4715	0.0000000E+000	0.0000000E+000	0.0000000E+000	3.47147	0.0000000E+000	0.0000000E+000	0.0000000E+000	-3.47147	-16.4846	-3.47147	-6.36598e-05
34469.6	0.204326	-0.00752137	0.204464	2.10814	8.32648	-0.000314649	-0.991942	-613.884	-0.830701	1	9	0.00934914	0.045725	0	-0.00300845	4.88752	-0.179913	4.89083	-2.10814	-830.7	22566.9	22582.2	-92.1081	0.0000000E+000	0.0000000E+000	0.0000000E+000	92.1081	0.0000000E+000	0.0000000E+000	0.0000000E+000	-92.1081	0.0000000E+000	0.0000000E+000	0.0000000E+000	2.10814	0.0000000E+000	0.0000000E+000	0.0000000E+000	-2.10814	-27.1661	-2.10814	-0.000158894
25710.7	0.205614	-0.00396412	0.205652	1.10449	9.15048	-0.000296811	-0.95494	-1561.56	-0.58021	1	9	0.00997906	0.0485239	0	-0.00316534	4.86167	-0.0937302	4.86257	-1.10449	-580.209	30094.8	30100.4	-91.1045	0.0000000E+000	0.0000000E+000	0.0000000E+000	91.1045	0.0000000E+000	0.0000000E+000	0.0000000E+000	-91.1045	0.0000000E+000	0.0000000E+000	0.0000000E+000	1.10449	0.0000000E+000	0.0000000E+000	0.0000000E+000	-1.10449	-51.8688	-1.10449	-0.000156895
19178.7	0.206736	-0.00142416	0.206741	0.394693	9.97447	-0.000302421	-0.961924	-5826.96	-0.276508	1	9	0.0103058	0.0498489	0	-0.00349879	4.83685	-0.0333201	4.83697	-0.394693	-276.507	40138.8	40139.8	-90.3947	0.0000000E+000	0.0000000E+000	0.0000000E+000	90.3947	0.0000000E+000	0.0000000E+000	0.0000000E+000	-90.3947	0.0000000E+000	0.0000000E+000	0.0000000E+000	0.394693	0.0000000E+000	0.0000000E+000	0.0000000E+000	-0.394693	-145.163	-0.394693	-0.000333446
14307.5	0.208115	0.000392934	0.208115	-0.108178	10.7985	-0.000307174	-0.97399	28309.9	0.100918	1	9	0.0104679	0.0502984	0	-0.00373966	4.80503	0.00907219	4.80503	0.108178	100.918	53450.7	53450.8	-89.8918	0.0000000E+000	0.0000000E+000	0.0000000E+000	89.8918	0.0000000E+000	0.0000000E+000	0.0000000E+000	-89.8918	0.0000000E+000	0.0000000E+000	0.0000000E+000	-0.108178	0.0000000E+000	0.0000000E+000	0.0000000E+000	0.108178	529.643	0.108178	-0.000240872
10670.3	0.209325	0.00171092	0.209332	-0.468296	11.6225	-0.000306093	-0.97954	8717.97	0.582372	1	9	0.0104985	0.0501524	0	-0.00393823	4.77693	0.0390442	4.77709	0.468296	582.368	71251.4	71253.8	-89.5317	0.0000000E+000	0.0000000E+000	0.0000000E+000	89.5317	0.0000000E+000	0.0000000E+000	0.0000000E+000	-89.5317	0.0000000E+000	0.0000000E+000	0.0000000E+000	-0.468296	0.0000000E+000	0.0000000E+000	0.0000000E+000	0.468296	122.347	0.468296	-0.000198567
7959.76	0.210412	0.0024725	0.210426	-0.673239	12.5587	-0.000312766	-0.971346	8086.93	1.11649	1	9	0.010403	0.0494379	0	-0.00410599	4.75193	0.0558389	4.75226	0.673239	1116.5	95014.6	95021.1	-89.3268	0.0000000E+000	0.0000000E+000	0.0000000E+000	89.3268	0.0000000E+000	0.0000000E+000	0.0000000E+000	-89.3268	0.0000000E+000	0.0000000E+000	0.0000000E+000	-0.673239	0.0000000E+000	0.0000000E+000	0.0000000E+000	0.673239	85.1008	0.673239	-0.000167767
5937.5	0.211499	0.00298469	0.21152	-0.808509	13.7395	-0.00029929	-0.884811	8980.86	1.78819	1	9	0.0103093	0.0487394	0	-0.004324	4.72722	0.0667109	4.72769	0.808509	1788.19	126713	126726	-89.1915	0.0000000E+000	0.0000000E+000	0.0000000E+000	89.1915	0.0000000E+000	0.0000000E+000	0.0000000E+000	-89.1915	0.0000000E+000	0.0000000E+000	0.0000000E+000	-0.808509	0.0000000E+000	0.0000000E+000	0.0000000E+000	0.808509	70.8613	0.808509	-0.000218003
4431.42	0.212529	0.00329092	0.212555	-0.887129	15.0777	-0.000297128	-0.860044	10913.4	2.6161	1	9	0.0101682	0.0478381	0	-0.00453155	4.70411	0.0728411	4.70467	0.887129	2616.1	168949	168969	-89.1129	0.0000000E+000	0.0000000E+000	0.0000000E+000	89.1129	0.0000000E+000	0.0000000E+000	0.0000000E+000	-89.1129	0.0000000E+000	0.0000000E+000	0.0000000E+000	-0.887129	0.0000000E+000	0.0000000E+000	0.0000000E+000	0.887129	64.5805	0.887129	-0.000207557
3306.06	0.21345	0.00340108	0.213477	-0.912864	16.1937	-0.000295767	-0.877977	14154.4	3.59272	1	9	0.0107557	0.0503832	0	-0.00478919	4.68374	0.07463	4.68433	0.912864	3592.72	225477	225506	-89.0871	0.0000000E+000	0.0000000E+000	0.0000000E+000	89.0871	0.0000000E+000	0.0000000E+000	0.0000000E+000	-89.0871	0.0000000E+000	0.0000000E+000	0.0000000E+000	-0.912864	0.0000000E+000	0.0000000E+000	0.0000000E+000	0.912864	62.7595	0.912864	-0.00025764
2465.79	0.21423	0.00339675	0.214257	-0.908384	17.5307	-0.000294444	-0.872893	19002	4.77592	1	9	0.0100693	0.0469962	0	-0.00507972	4.6667	0.0739934	4.66729	0.908384	4775.94	301213	301251	-89.0916	0.0000000E+000	0.0000000E+000	0.0000000E+000	89.0916	0.0000000E+000	0.0000000E+000	0.0000000E+000	-89.0916	0.0000000E+000	0.0000000E+000	0.0000000E+000	-0.908384	0.0000000E+000	0.0000000E+000	0.0000000E+000	0.908384	63.0691	0.908384	-0.000290525
1838.24	0.215083	0.00324776	0.215107	-0.865106	18.647	-0.000296214	-0.877977	26658.4	6.07707	1	9	0.0102563	0.0476799	0	-0.00539201	4.64832	0.07019	4.64885	0.865106	6077.07	402453	402499	-89.1349	0.0000000E+000	0.0000000E+000	0.0000000E+000	89.1349	0.0000000E+000	0.0000000E+000	0.0000000E+000	-89.1349	0.0000000E+000	0.0000000E+000	0.0000000E+000	-0.865106	0.0000000E+000	0.0000000E+000	0.0000000E+000	0.865106	66.2248	0.865106	-0.000312288
1372.2	0.215823	0.00310607	0.215846	-0.824528	19.7624	-0.000293866	-0.871422	37341.6	7.73265	1	9	0.0103604	0.0479992	0	-0.00570201	4.63246	0.0666691	4.63294	0.824528	7732.68	537299	537354	-89.1755	0.0000000E+000	0.0000000E+000	0.0000000E+000	89.1755	0.0000000E+000	0.0000000E+000	0.0000000E+000	-89.1755	0.0000000E+000	0.0000000E+000	0.0000000E+000	-0.824528	0.0000000E+000	0.0000000E+000	0.0000000E+000	0.824528	69.4844	0.824528	-0.000310001
1024.02	0.216272	0.00290995	0.216292	-0.770871	20.8779	-0.000303484	-0.873023	53410.5	9.6676	1	9	0.0104073	0.0481169	0	-0.0059618	4.62296	0.0622022	4.62338	0.770871	9667.64	718511	718576	-89.2291	0.0000000E+000	0.0000000E+000	0.0000000E+000	89.2291	0.0000000E+000	0.0000000E+000	0.0000000E+000	-89.2291	0.0000000E+000	0.0000000E+000	0.0000000E+000	-0.770871	0.0000000E+000	0.0000000E+000	0.0000000E+000	0.770871	74.3215	0.770871	-0.000259788
763.29	0.216869	0.00273221	0.216886	-0.7218	21.9972	-0.00029066	-0.863843	76316	12.1111	1	9	0.0104399	0.0481355	0	-0.00625168	4.61035	0.0580833	4.61072	0.7218	12111.1	961312	961388	-89.2782	0.0000000E+000	0.0000000E+000	0.0000000E+000	89.2782	0.0000000E+000	0.0000000E+000	0.0000000E+000	-89.2782	0.0000000E+000	0.0000000E+000	0.0000000E+000	-0.7218	0.0000000E+000	0.0000000E+000	0.0000000E+000	0.7218	79.3748	0.7218	-0.000289879
569.453	0.217354	0.00262902	0.21737	-0.692991	23.113	-0.000298805	-0.842614	106308	15.5509	1	9	0.0104566	0.0481052	0	-0.0065607	4.60011	0.055641	4.60045	0.692991	15551	1.28567e+06	1.28577e+06	-89.307	0.0000000E+000	0.0000000E+000	0.0000000E+000	89.307	0.0000000E+000	0.0000000E+000	0.0000000E+000	-89.307	0.0000000E+000	0.0000000E+000	0.0000000E+000	-0.692991	0.0000000E+000	0.0000000E+000	0.0000000E+000	0.692991	82.6749	0.692991	-0.000309028
425.136	0.21777	0.00254455	0.217785	-0.669446	24.2287	-0.00029463	-0.858051	147123	20.0839	1	9	0.0104658	0.0480557	0	-0.00680898	4.59137	0.0536482	4.59168	0.669446	20083.9	1.71884e+06	1.71895e+06	-89.3306	0.0000000E+000	0.0000000E+000	0.0000000E+000	89.3306	0.0000000E+000	0.0000000E+000	0.0000000E+000	-89.3306	0.0000000E+000	0.0000000E+000	0.0000000E+000	-0.669446	0.0000000E+000	0.0000000E+000	0.0000000E+000	0.669446	85.5829	0.669446	-0.000248276
317.131	0.218129	0.00248375	0.218143	-0.652376	25.3394	-0.000291238	-0.85928	202057	26.1942	1	9	0.0104696	0.0479941	0	-0.00704005	4.58385	0.0521945	4.58415	0.652376	26194.2	2.30044e+06	2.30059e+06	-89.3476	0.0000000E+000	0.0000000E+000	0.0000000E+000	89.3476	0.0000000E+000	0.0000000E+000	0.0000000E+000	-89.3476	0.0000000E+000	0.0000000E+000	0.0000000E+000	-0.652376	0.0000000E+000	0.0000000E+000	0.0000000E+000	0.652376	87.8225	0.652376	-0.000231066
236.59	0.218441	0.00253294	0.218456	-0.664345	26.4494	-0.000297929	-0.856599	265583	35.7044	1	9	0.0104695	0.0479251	0	-0.00725615	4.57728	0.053076	4.57759	0.664345	35704.4	3.07916e+06	3.07936e+06	-89.3357	0.0000000E+000	0.0000000E+000	0.0000000E+000	89.3357	0.0000000E+000	0.0000000E+000	0.0000000E+000	-89.3357	0.0000000E+000	0.0000000E+000	0.0000000E+000	-0.664345	0.0000000E+000	0.0000000E+000	0.0000000E+000	0.664345	86.2402	0.664345	-0.000216103
176.411	0.218845	0.00261212	0.21886	-0.683846	27.5572	-0.000300166	-0.861981	345383	49.1985	1	9	0.0104728	0.0478513	0	-0.00756143	4.5688	0.0545328	4.56912	0.683846	49198.5	4.12188e+06	4.12218e+06	-89.3162	0.0000000E+000	0.0000000E+000	0.0000000E+000	89.3162	0.0000000E+000	0.0000000E+000	0.0000000E+000	-89.3162	0.0000000E+000	0.0000000E+000	0.0000000E+000	-0.683846	0.0000000E+000	0.0000000E+000	0.0000000E+000	0.683846	83.7807	0.683846	-0.000305279
131.558	0.219181	0.00277708	0.219199	-0.725912	28.6614	-0.000301881	-0.87779	435628	69.9223	1	9	0.0104721	0.0477746	0	-0.00780108	4.5617	0.0577979	4.56207	0.725912	69922.5	5.51863e+06	5.51907e+06	-89.2741	0.0000000E+000	0.0000000E+000	0.0000000E+000	89.2741	0.0000000E+000	0.0000000E+000	0.0000000E+000	-89.2741	0.0000000E+000	0.0000000E+000	0.0000000E+000	-0.725912	0.0000000E+000	0.0000000E+000	0.0000000E+000	0.725912	78.9251	0.725912	-0.000239654
98.147	0.219699	0.00312306	0.219722	-0.814413	29.7965	-0.00030874	-0.874848	519234	104.901	1	9	0.0104762	0.0476794	0	-0.00803903	4.55076	0.0646897	4.55122	0.814413	104901	7.3795e+06	7.38024e+06	-89.1856	0.0000000E+000	0.0000000E+000	0.0000000E+000	89.1856	0.0000000E+000	0.0000000E+000	0.0000000E+000	-89.1856	0.0000000E+000	0.0000000E+000	0.0000000E+000	-0.814413	0.0000000E+000	0.0000000E+000	0.0000000E+000	0.814413	70.3475	0.814413	-0.00023795
73.2422	0.220146	0.00347655	0.220174	-0.904741	30.9365	-0.000296531	-0.872967	625043	155.839	1	9	0.0104751	0.0475767	0	-0.00835571	4.5413	0.0717163	4.54187	0.904741	155839	9.86823e+06	9.86946e+06	-89.0953	0.0000000E+000	0.0000000E+000	0.0000000E+000	89.0953	0.0000000E+000	0.0000000E+000	0.0000000E+000	-89.0953	0.0000000E+000	0.0000000E+000	0.0000000E+000	-0.904741	0.0000000E+000	0.0000000E+000	0.0000000E+000	0.904741	63.3231	0.904741	-0.000316683
54.5982	0.22067	0.00393916	0.220705	-1.02268	32.0612	-0.00029737	-0.837921	740011	235.734	1	9	0.0104733	0.047454	0	-0.00857382	4.53022	0.0808687	4.53094	1.02268	235734	1.32057e+07	1.32078e+07	-88.9773	0.0000000E+000	0.0000000E+000	0.0000000E+000	88.9773	0.0000000E+000	0.0000000E+000	0.0000000E+000	-88.9773	0.0000000E+000	0.0000000E+000	0.0000000E+000	-1.02268	0.0000000E+000	0.0000000E+000	0.0000000E+000	1.02268	56.0194	1.02268	-0.000218104
40.7432	0.221291	0.00438979	0.221334	-1.13644	33.1601	-0.000296214	-0.848852	889861	350.036	1	9	0.010474	0.0473221	0	-0.00881927	4.51717	0.089608	4.51806	1.13644	350035	1.76454e+07	1.76489e+07	-88.8636	0.0000000E+000	0.0000000E+000	0.0000000E+000	88.8636	0.0000000E+000	0.0000000E+000	0.0000000E+000	-88.8636	0.0000000E+000	0.0000000E+000	0.0000000E+000	-1.13644	0.0000000E+000	0.0000000E+000	0.0000000E+000	1.13644	50.4103	1.13644	-0.000245449
30.3988	0.222024	0.0050707	0.222081	-1.30833	34.2641	-0.000299551	-0.866692	1.03251e+06	538.277	1	9	0.0104743	0.0471641	0	-0.00919325	4.50168	0.102812	4.50285	1.30833	538278	2.35688e+07	2.3575e+07	-88.6917	0.0000000E+000	0.0000000E+000	0.0000000E+000	88.6917	0.0000000E+000	0.0000000E+000	0.0000000E+000	-88.6917	0.0000000E+000	0.0000000E+000	0.0000000E+000	-1.30833	0.0000000E+000	0.0000000E+000	0.0000000E+000	1.30833	43.7856	1.30833	-0.00037398
22.6581	0.222871	0.0058068	0.222947	-1.49248	35.4824	-0.000293335	-0.855891	1.20965e+06	820.6	1	9	0.0104722	0.0469715	0	-0.00932116	4.48385	0.116825	4.48537	1.49248	820600	3.14955e+07	3.15062e+07	-88.5075	0.0000000E+000	0.0000000E+000	0.0000000E+000	88.5075	0.0000000E+000	0.0000000E+000	0.0000000E+000	-88.5075	0.0000000E+000	0.0000000E+000	0.0000000E+000	-1.49248	0.0000000E+000	0.0000000E+000	0.0000000E+000	1.49248	38.3811	1.49248	-0.000127913
16.9102	0.223882	0.0067038	0.223982	-1.71512	36.4852	-0.000299607	-0.873191	1.40395e+06	1257.67	1	9	0.0104754	0.046769	0	-0.00953109	4.46264	0.133627	4.46464	1.71512	1.25767e+06	4.20014e+07	4.20202e+07	-88.2849	0.0000000E+000	0.0000000E+000	0.0000000E+000	88.2849	0.0000000E+000	0.0000000E+000	0.0000000E+000	-88.2849	0.0000000E+000	0.0000000E+000	0.0000000E+000	-1.71512	0.0000000E+000	0.0000000E+000	0.0000000E+000	1.71512	33.3963	1.71512	-0.00020993
12.628	0.224986	0.00760483	0.225115	-1.93594	37.7904	-0.000288777	-0.850528	1.65728e+06	1891.34	1	9	0.0104765	0.0465383	0	-0.0101051	4.43965	0.150066	4.44218	1.93594	1.89134e+06	5.59545e+07	5.59865e+07	-88.0641	0.0000000E+000	0.0000000E+000	0.0000000E+000	88.0641	0.0000000E+000	0.0000000E+000	0.0000000E+000	-88.0641	0.0000000E+000	0.0000000E+000	0.0000000E+000	-1.93594	0.0000000E+000	0.0000000E+000	0.0000000E+000	1.93594	29.5846	1.93594	-0.000574041
9.41265	0.226228	0.00860757	0.226392	-2.17895	38.9662	-0.000302011	-0.888684	1.96439e+06	2839.67	1	9	0.0104761	0.0462742	0	-0.0103531	4.41393	0.167942	4.41712	2.17895	2.83966e+06	7.46334e+07	7.46874e+07	-87.8211	0.0000000E+000	0.0000000E+000	0.0000000E+000	87.8211	0.0000000E+000	0.0000000E+000	0.0000000E+000	-87.8211	0.0000000E+000	0.0000000E+000	0.0000000E+000	-2.17895	0.0000000E+000	0.0000000E+000	0.0000000E+000	2.17895	26.2825	2.17895	-0.000247932
7.02563	0.227615	0.0100707	0.227838	-2.53337	39.802	-0.000324975	-1.00609	2.24944e+06	4394.85	1	9	0.0104715	0.0459602	0	-0.0106862	4.38479	0.194003	4.38908	2.53337	4.39484e+06	9.93309e+07	9.9428e+07	-87.4666	0.0000000E+000	0.0000000E+000	0.0000000E+000	87.4666	0.0000000E+000	0.0000000E+000	0.0000000E+000	-87.4666	0.0000000E+000	0.0000000E+000	0.0000000E+000	-2.53337	0.0000000E+000	0.0000000E+000	0.0000000E+000	2.53337	22.6016	2.53337	-0.000333153
5.23626	0.229343	0.0116414	0.229638	-2.90582	40.8747	-0.000298787	-0.963004	2.61093e+06	6709.89	1	9	0.0104737	0.0456097	0	-0.0103632	4.34908	0.220758	4.35468	2.90582	6.70989e+06	1.32189e+08	1.3236e+08	-87.0942	0.0000000E+000	0.0000000E+000	0.0000000E+000	87.0942	0.0000000E+000	0.0000000E+000	0.0000000E+000	-87.0942	0.0000000E+000	0.0000000E+000	0.0000000E+000	-2.90582	0.0000000E+000	0.0000000E+000	0.0000000E+000	2.90582	19.7007	2.90582	0.000322975
3.90625	0.230941	0.0132502	0.231321	-3.28373	42.2718	-0.000291778	-0.825054	3.07495e+06	10089.1	1	9	0.0104742	0.0452799	0	-0.0113614	4.31591	0.247624	4.323	3.28373	1.00891e+07	1.75846e+08	1.76135e+08	-86.7163	0.0000000E+000	0.0000000E+000	0.0000000E+000	86.7163	0.0000000E+000	0.0000000E+000	0.0000000E+000	-86.7163	0.0000000E+000	0.0000000E+000	0.0000000E+000	-3.28373	0.0000000E+000	0.0000000E+000	0.0000000E+000	3.28373	17.4293	3.28373	-0.000998192
2.91294	0.233641	0.0151708	0.234133	-3.71512	44.1082	-0.000287541	-0.844854	3.60148e+06	15120.7	1	9	0.0104744	0.044737	0	-0.010663	4.26211	0.276747	4.27108	3.71512	1.51207e+07	2.3287e+08	2.3336e+08	-86.2849	0.0000000E+000	0.0000000E+000	0.0000000E+000	86.2849	0.0000000E+000	0.0000000E+000	0.0000000E+000	-86.2849	0.0000000E+000	0.0000000E+000	0.0000000E+000	-3.71512	0.0000000E+000	0.0000000E+000	0.0000000E+000	3.71512	15.4007	3.71512	0.000698414
2.17497	0.236518	0.0172353	0.237146	-4.16783	46.5357	-0.000283992	-0.81544	4.24568e+06	22426.2	1	9	0.0104761	0.0441757	0	-0.0120108	4.20567	0.306471	4.21682	4.16783	2.24262e+07	3.07752e+08	3.08568e+08	-85.8322	0.0000000E+000	0.0000000E+000	0.0000000E+000	85.8322	0.0000000E+000	0.0000000E+000	0.0000000E+000	-85.8322	0.0000000E+000	0.0000000E+000	0.0000000E+000	-4.16783	0.0000000E+000	0.0000000E+000	0.0000000E+000	4.16783	13.7229	4.16783	-0.00134783
1.62085	0.239632	0.0193541	0.240413	-4.61752	49.763	-0.000284278	-0.805004	5.07346e+06	32880.3	1	9	0.0104764	0.0435769	0	-0.0138468	4.14602	0.334856	4.15952	4.61752	3.28803e+07	4.07107e+08	4.08432e+08	-85.3825	0.0000000E+000	0.0000000E+000	0.0000000E+000	85.3825	0.0000000E+000	0.0000000E+000	0.0000000E+000	-85.3825	0.0000000E+000	0.0000000E+000	0.0000000E+000	-4.61752	0.0000000E+000	0.0000000E+000	0.0000000E+000	4.61752	12.3815	4.61752	-0.00183598
1.21049	0.243283	0.0219386	0.24427	-5.15284	54.0562	-0.000276742	-0.800698	5.99308e+06	48342.3	1	9	0.0104756	0.0428854	0	-0.0139356	4.07728	0.367679	4.09383	5.15284	4.83424e+07	5.36081e+08	5.38256e+08	-84.8472	0.0000000E+000	0.0000000E+000	0.0000000E+000	84.8472	0.0000000E+000	0.0000000E+000	0.0000000E+000	-84.8472	0.0000000E+000	0.0000000E+000	0.0000000E+000	-5.15284	0.0000000E+000	0.0000000E+000	0.0000000E+000	5.15284	11.0893	5.15284	-8.87837e-05
0.902137	0.247318	0.0245023	0.248529	-5.65795	60.9448	-0.000274138	-0.74761	7.20013e+06	69984.4	1	10	0.0104752	0.0421488	0	-0.0133044	4.00407	0.396692	4.02367	5.65795	6.99844e+07	7.06398e+08	7.09857e+08	-84.342	0.0000000E+000	0.0000000E+000	0.0000000E+000	84.342	0.0000000E+000	0.0000000E+000	0.0000000E+000	-84.342	0.0000000E+000	0.0000000E+000	0.0000000E+000	-5.65795	0.0000000E+000	0.0000000E+000	0.0000000E+000	5.65795	10.0937	5.65795	0.000631256
0.673724	0.252261	0.0272585	0.253729	-6.16727	68.5929	-0.000279469	-0.771154	8.66635e+06	100023	1	10	0.0104779	0.0412955	0	-0.014411	3.9184	0.42341	3.94121	6.16727	1.00023e+08	9.2565e+08	9.31039e+08	-83.8327	0.0000000E+000	0.0000000E+000	0.0000000E+000	83.8327	0.0000000E+000	0.0000000E+000	0.0000000E+000	-83.8327	0.0000000E+000	0.0000000E+000	0.0000000E+000	-6.16727	0.0000000E+000	0.0000000E+000	0.0000000E+000	6.16727	9.25439	6.16727	-0.00110667
0.502347	0.257605	0.0302181	0.259372	-6.69045	78.8256	-0.000272267	-0.75257	1.04845e+07	142311	1	10	0.010478	0.0403975	0	-0.0185981	3.82922	0.449182	3.85547	6.69045	1.42311e+08	1.21318e+09	1.2215e+09	-83.3096	0.0000000E+000	0.0000000E+000	0.0000000E+000	83.3096	0.0000000E+000	0.0000000E+000	0.0000000E+000	-83.3096	0.0000000E+000	0.0000000E+000	0.0000000E+000	-6.69045	0.0000000E+000	0.0000000E+000	0.0000000E+000	6.69045	8.52486	6.69045	-0.00418712
0.375024	0.263682	0.0328316	0.265718	-7.09749	92.5052	-0.000271608	-0.744297	1.29261e+07	197338	1	10	0.0104734	0.0394154	0	-0.0250182	3.73455	0.464996	3.76338	7.09749	1.97338e+08	1.58489e+09	1.59713e+09	-82.9025	0.0000000E+000	0.0000000E+000	0.0000000E+000	82.9025	0.0000000E+000	0.0000000E+000	0.0000000E+000	-82.9025	0.0000000E+000	0.0000000E+000	0.0000000E+000	-7.09749	0.0000000E+000	0.0000000E+000	0.0000000E+000	7.09749	8.03135	7.09749	-0.00642003
0.279837	0.270564	0.0356647	0.272905	-7.5092	110.815	-0.000269297	-0.725866	1.59469e+07	272352	1	10	0.0104756	0.0383857	0	-0.0313556	3.63285	0.478868	3.66428	7.5092	2.72352e+08	2.06615e+09	2.08403e+09	-82.4908	0.0000000E+000	0.0000000E+000	0.0000000E+000	82.4908	0.0000000E+000	0.0000000E+000	0.0000000E+000	-82.4908	0.0000000E+000	0.0000000E+000	0.0000000E+000	-7.5092	0.0000000E+000	0.0000000E+000	0.0000000E+000	7.5092	7.58634	7.5092	-0.00633745
0.2084	0.278004	0.0388385	0.280704	-7.95304	135.379	-0.000271568	-0.724389	1.96634e+07	376434	1	10	0.0104767	0.0373232	0	-0.0351986	3.52821	0.492909	3.56248	7.95304	3.76434e+08	2.69449e+09	2.72066e+09	-82.047	0.0000000E+000	0.0000000E+000	0.0000000E+000	82.047	0.0000000E+000	0.0000000E+000	0.0000000E+000	-82.047	0.0000000E+000	0.0000000E+000	0.0000000E+000	-7.95304	0.0000000E+000	0.0000000E+000	0.0000000E+000	7.95304	7.15794	7.95304	-0.003843
0.155417	0.286239	0.0418367	0.28928	-8.31548	168.292	-0.000273	-0.724105	2.44773e+07	511967	1	10	0.0104752	0.0362113	0	-0.0358533	3.42051	0.499942	3.45685	8.31548	5.11967e+08	3.50278e+09	3.54e+09	-81.6845	0.0000000E+000	0.0000000E+000	0.0000000E+000	81.6845	0.0000000E+000	0.0000000E+000	0.0000000E+000	-81.6845	0.0000000E+000	0.0000000E+000	0.0000000E+000	-8.31548	0.0000000E+000	0.0000000E+000	0.0000000E+000	8.31548	6.84181	8.31548	-0.000654693
0.116071	0.296058	0.0444048	0.299369	-8.53005	212.34	-0.000271539	-0.72081	3.08792e+07	679380	1	10	0.0104775	0.0349984	0	-0.0354699	3.30341	0.495469	3.34036	8.53005	6.7938e+08	4.52959e+09	4.58026e+09	-81.47	0.0000000E+000	0.0000000E+000	0.0000000E+000	81.47	0.0000000E+000	0.0000000E+000	0.0000000E+000	-81.47	0.0000000E+000	0.0000000E+000	0.0000000E+000	-8.53005	0.0000000E+000	0.0000000E+000	0.0000000E+000	8.53005	6.66724	8.53005	0.000383396
0.0865095	0.307392	0.0455235	0.310745	-8.42403	271.419	-0.000266553	-0.715673	4.0413e+07	867329	1	10	0.0104742	0.0337069	0	-0.039788	3.18335	0.471441	3.21807	8.42403	8.67329e+08	5.85654e+09	5.92042e+09	-81.576	0.0000000E+000	0.0000000E+000	0.0000000E+000	81.576	0.0000000E+000	0.0000000E+000	0.0000000E+000	-81.576	0.0000000E+000	0.0000000E+000	0.0000000E+000	-8.42403	0.0000000E+000	0.0000000E+000	0.0000000E+000	8.42403	6.75239	8.42403	-0.00431804
0.0645779	0.318658	0.0433757	0.321596	-7.75146	350.541	-0.000280446	-0.75574	5.68185e+07	1.03362e+06	1	10	0.0104778	0.0325805	0	-0.0553152	3.08107	0.419396	3.10949	7.75146	1.03362e+09	7.59344e+09	7.66347e+09	-82.2485	0.0000000E+000	0.0000000E+000	0.0000000E+000	82.2485	0.0000000E+000	0.0000000E+000	0.0000000E+000	-82.2485	0.0000000E+000	0.0000000E+000	0.0000000E+000	-7.75146	0.0000000E+000	0.0000000E+000	0.0000000E+000	7.75146	7.34646	7.75146	-0.0155272
0.048211	0.328775	0.0394319	0.331131	-6.83915	456.503	-0.000268756	-0.724272	8.37194e+07	1.18719e+06	1	10	0.0104794	0.0316472	0	-0.0895813	2.99846	0.359623	3.01995	6.83915	1.18719e+09	9.89857e+09	9.96951e+09	-83.1609	0.0000000E+000	0.0000000E+000	0.0000000E+000	83.1609	0.0000000E+000	0.0000000E+000	0.0000000E+000	-83.1609	0.0000000E+000	0.0000000E+000	0.0000000E+000	-6.83915	0.0000000E+000	0.0000000E+000	0.0000000E+000	6.83915	8.33779	6.83915	-0.0342661
0.0359632	0.338218	0.0349704	0.340021	-5.90318	598.53	-0.000272577	-0.731805	1.2655e+08	1.3386e+06	1	10	0.0104748	0.0308063	0	-0.143113	2.9254	0.302475	2.94099	5.90318	1.3386e+09	1.29463e+10	1.30154e+10	-84.0968	0.0000000E+000	0.0000000E+000	0.0000000E+000	84.0968	0.0000000E+000	0.0000000E+000	0.0000000E+000	-84.0968	0.0000000E+000	0.0000000E+000	0.0000000E+000	-5.90318	0.0000000E+000	0.0000000E+000	0.0000000E+000	5.90318	9.67155	5.90318	-0.0535318
0.0268165	0.345733	0.029692	0.347006	-4.9086	788.979	-0.000270549	-0.720592	1.99884e+08	1.46348e+06	1	10	0.0104754	0.030188	0	-0.208248	2.87123	0.246585	2.8818	4.9086	1.46348e+09	1.70407e+10	1.71034e+10	-85.0914	0.0000000E+000	0.0000000E+000	0.0000000E+000	85.0914	0.0000000E+000	0.0000000E+000	0.0000000E+000	-85.0914	0.0000000E+000	0.0000000E+000	0.0000000E+000	-4.9086	0.0000000E+000	0.0000000E+000	0.0000000E+000	4.9086	11.644	4.9086	-0.0651354
0.0199925	0.351158	0.024284	0.351997	-3.95593	1044.41	-0.000277854	-0.734901	3.27819e+08	1.56026e+06	1	10	0.0104756	0.0297606	0	-0.27182	2.83417	0.195994	2.84094	3.95593	1.56026e+09	2.25621e+10	2.2616e+10	-86.0441	0.0000000E+000	0.0000000E+000	0.0000000E+000	86.0441	0.0000000E+000	0.0000000E+000	0.0000000E+000	-86.0441	0.0000000E+000	0.0000000E+000	0.0000000E+000	-3.95593	0.0000000E+000	0.0000000E+000	0.0000000E+000	3.95593	14.4605	3.95593	-0.0635719