File: Python/ImpedanceDataOld/different flow rate_NIPS electrode_iron symmetric single-tank tests_0.5 M total iron_choose the cycle number=1/IDFF flow field/NoPattern_IDFF_ve=10 cms_EIS.mpt
EC-Lab ASCII FILE
Nb header lines : 66

Potentio Electrochemical Impedance Spectroscopy

Run on channel : 3 (SN 50730)
User :
CE vs. WE compliance from -10 V to 10 V
Electrode connection : standard
Potential control : Ewe
Ewe ctrl range : min = -10.00 V, max = 10.00 V
Safety Limits :
	Do not start on E overload
Acquisition started on : 02/14/2023 16:56:05.168
Loaded Setting File :  NONE
Saved on :
	File : NoPattern_IDFF_05Fe_2MHCL_ve10cms_EIS_PCGA_01_PEIS_C01_01_PEIS_C03.mpr
	Directory : C:\Users\sto063\Documents\EC-Lab\Data\Baichen\Micormolding\20230214_denseNoPatternS4_IDFF\
	Host : 131.155.90.158
Device : VSP-3e (SN .003050)
Address : USB
EC-Lab for windows v11.43 (software)
Internet server v11.40 (firmware)
Command interpretor v11.40 (firmware)
Electrode material :
Initial state :
Electrolyte :
Comments :
Electrode surface area : 0.001 cm2
Characteristic mass : 0.001 g
Equivalent Weight : 0.000 g/eq.
Density : 0.000 g/cm3
Volume (V) : 0.001 cm3
Cycle Definition : Charge/Discharge alternance
Mode                Single sine
E (V)               0.0000
vs.                 Eoc
tE (h:m:s)          0:00:0.0000
record              0
dI                  0.000
unit dI             mA
dt (s)              0.000
fi                  200.000
unit fi             kHz
ff                  4.000
unit ff             mHz
Nd                  8
Points              per decade
spacing             Logarithmic
Va (mV)             10.0
pw                  0.10
Na                  5
corr                0
E range min (V)     -10.000
E range max (V)     10.000
I Range             Auto
Bandwidth           5
nc cycles           0
goto Ns'            0
nr cycles           0
inc. cycle          0

Modify on : 02/14/2023 16:56
ff                  20.000

freq/Hz	Re(Z)/Ohm	-Im(Z)/Ohm	|Z|/Ohm	Phase(Z)/deg	time/s	<Ewe>/V	<I>/mA	Cs/uF	Cp/uF	cycle number	I Range	|Ewe|/V	|I|/A	Ns	(Q-Qo)/mA.h	Re(Y)/Ohm-1	Im(Y)/Ohm-1	|Y|/Ohm-1	Phase(Y)/deg	Re(C)/nF	Im(C)/nF	|C|/nF	Phase(C)/deg	Re(M)	Im(M)	|M|	Phase(M)/deg	Re(Permittivity)	Im(Permittivity)	|Permittivity|	Phase(Permittivity)/deg	Re(Resistivity)/Ohm.cm	Im(Resistivity)/Ohm.cm	|Resistivity|/Ohm.cm	Phase(Resistivity)/deg	Re(Conductivity)/mS/cm	Im(Conductivity)/mS/cm	|Conductivity|/mS/cm	Phase(Conductivity)/deg	Tan(Delta)	Loss Angle(Delta)/deg	dq/mA.h
199998	0.197216	-0.0740383	0.210655	20.577	1.73848	-0.000386223	-1.3038	-10.7483	-1.32772	1	9	0.000858422	0.004075	0	-0.000477082	4.44423	-1.66844	4.74709	-20.577	-1327.72	3536.64	3777.65	-110.577	0.0000000E+000	0.0000000E+000	0.0000000E+000	110.577	0.0000000E+000	0.0000000E+000	0.0000000E+000	-110.577	0.0000000E+000	0.0000000E+000	0.0000000E+000	20.577	0.0000000E+000	0.0000000E+000	0.0000000E+000	-20.577	-2.6637	-20.577	-0.000477082
149560	0.20529	-0.0535914	0.212169	14.6307	2.56248	-0.000400072	-1.33935	-19.8568	-1.26687	1	9	0.00182091	0.00858232	0	-0.00079971	4.56038	-1.1905	4.71321	-14.6307	-1266.87	4852.95	5015.58	-104.631	0.0000000E+000	0.0000000E+000	0.0000000E+000	104.631	0.0000000E+000	0.0000000E+000	0.0000000E+000	-104.631	0.0000000E+000	0.0000000E+000	0.0000000E+000	14.6307	0.0000000E+000	0.0000000E+000	0.0000000E+000	-14.6307	-3.83065	-14.6307	-0.000322628
111843	0.20958	-0.0386176	0.213108	10.4403	3.38649	-0.000429838	-1.66653	-36.849	-1.21003	1	9	0.00472376	0.022166	0	-0.00115233	4.61477	-0.850327	4.69246	-10.4403	-1210.03	6566.91	6677.46	-100.44	0.0000000E+000	0.0000000E+000	0.0000000E+000	100.44	0.0000000E+000	0.0000000E+000	0.0000000E+000	-100.44	0.0000000E+000	0.0000000E+000	0.0000000E+000	10.4403	0.0000000E+000	0.0000000E+000	0.0000000E+000	-10.4403	-5.42705	-10.4403	-0.000352623
83636.4	0.210878	-0.0270535	0.212607	7.31053	4.34748	-0.000464097	-1.79232	-70.3397	-1.13893	1	9	0.02306	0.108463	0	-0.00169595	4.66529	-0.598509	4.70352	-7.31053	-1138.93	8877.76	8950.51	-97.3105	0.0000000E+000	0.0000000E+000	0.0000000E+000	97.3105	0.0000000E+000	0.0000000E+000	0.0000000E+000	-97.3105	0.0000000E+000	0.0000000E+000	0.0000000E+000	7.31053	0.0000000E+000	0.0000000E+000	0.0000000E+000	-7.31053	-7.79485	-7.31053	-0.000543613
62546.4	0.211409	-0.0188152	0.212244	5.08587	6.40448	-0.000370361	-1.48054	-135.241	-1.06281	1	9	0.012791	0.0602654	0	-0.0024124	4.693	-0.417673	4.71155	-5.08587	-1062.8	11941.8	11989	-95.0859	0.0000000E+000	0.0000000E+000	0.0000000E+000	95.0859	0.0000000E+000	0.0000000E+000	0.0000000E+000	-95.0859	0.0000000E+000	0.0000000E+000	0.0000000E+000	5.08587	0.0000000E+000	0.0000000E+000	0.0000000E+000	-5.08587	-11.2361	-5.08587	-0.000716456
46772.9	0.212302	-0.0126925	0.212681	3.42137	7.5025	-0.000318022	-1.29881	-268.089	-0.95481	1	9	0.00930297	0.0437415	0	-0.00277689	4.6935	-0.280602	4.70188	-3.42137	-954.81	15970.7	15999.2	-93.4214	0.0000000E+000	0.0000000E+000	0.0000000E+000	93.4214	0.0000000E+000	0.0000000E+000	0.0000000E+000	-93.4214	0.0000000E+000	0.0000000E+000	0.0000000E+000	3.42137	0.0000000E+000	0.0000000E+000	0.0000000E+000	-3.42137	-16.7265	-3.42137	-0.000364491
34970.7	0.213386	-0.00786541	0.213531	2.11097	8.32647	-0.000310995	-1.23628	-578.622	-0.785085	1	9	0.0092858	0.043487	0	-0.00299328	4.67999	-0.172505	4.68317	-2.11097	-785.085	21299.1	21313.5	-92.111	0.0000000E+000	0.0000000E+000	0.0000000E+000	92.111	0.0000000E+000	0.0000000E+000	0.0000000E+000	-92.111	0.0000000E+000	0.0000000E+000	0.0000000E+000	2.11097	0.0000000E+000	0.0000000E+000	0.0000000E+000	-2.11097	-27.1296	-2.11097	-0.000216385
26156.1	0.214537	-0.00432909	0.21458	1.156	9.15049	-0.000309131	-1.22738	-1405.56	-0.57209	1	9	0.00990792	0.0461735	0	-0.00333667	4.65931	-0.0940194	4.66026	-1.156	-572.091	28351	28356.8	-91.156	0.0000000E+000	0.0000000E+000	0.0000000E+000	91.156	0.0000000E+000	0.0000000E+000	0.0000000E+000	-91.156	0.0000000E+000	0.0000000E+000	0.0000000E+000	1.156	0.0000000E+000	0.0000000E+000	0.0000000E+000	-1.156	-49.557	-1.156	-0.000343392
19559.1	0.215598	-0.00171041	0.215605	0.454537	9.97448	-0.000303707	-1.1855	-4757.42	-0.299402	1	9	0.0103013	0.0477788	0	-0.00360892	4.63797	-0.0367946	4.63812	-0.454537	-299.402	37739.8	37741	-90.4545	0.0000000E+000	0.0000000E+000	0.0000000E+000	90.4545	0.0000000E+000	0.0000000E+000	0.0000000E+000	-90.4545	0.0000000E+000	0.0000000E+000	0.0000000E+000	0.454537	0.0000000E+000	0.0000000E+000	0.0000000E+000	-0.454537	-126.051	-0.454537	-0.000272255
14622.9	0.216882	7.45631e-05	0.216882	-0.0196981	10.7985	-0.000303204	-1.17365	145969	0.017253	1	9	0.0104619	0.0482381	0	-0.00379681	4.61081	0.00158518	4.61081	0.0196981	17.2539	50183.8	50183.8	-89.9803	0.0000000E+000	0.0000000E+000	0.0000000E+000	89.9803	0.0000000E+000	0.0000000E+000	0.0000000E+000	-89.9803	0.0000000E+000	0.0000000E+000	0.0000000E+000	-0.0196981	0.0000000E+000	0.0000000E+000	0.0000000E+000	0.0196981	2908.7	0.0196981	-0.000187883
10939.4	0.217829	0.00132806	0.217833	-0.349317	11.6225	-0.000298749	-1.18604	10954.9	0.407192	1	9	0.0104787	0.0481042	0	-0.00411348	4.59058	0.0279879	4.59066	0.349317	407.194	66787.6	66788.9	-89.6507	0.0000000E+000	0.0000000E+000	0.0000000E+000	89.6507	0.0000000E+000	0.0000000E+000	0.0000000E+000	-89.6507	0.0000000E+000	0.0000000E+000	0.0000000E+000	-0.349317	0.0000000E+000	0.0000000E+000	0.0000000E+000	0.349317	164.02	0.349317	-0.000316673
8178.46	0.218841	0.00220044	0.218852	-0.576087	12.5404	-0.000297445	-1.1546	8843.81	0.894036	1	9	0.0104077	0.0475558	0	-0.00432486	4.56906	0.0459416	4.56929	0.576087	894.038	88915.1	88919.5	-89.4239	0.0000000E+000	0.0000000E+000	0.0000000E+000	89.4239	0.0000000E+000	0.0000000E+000	0.0000000E+000	-89.4239	0.0000000E+000	0.0000000E+000	0.0000000E+000	-0.576087	0.0000000E+000	0.0000000E+000	0.0000000E+000	0.576087	99.4535	0.576087	-0.000211382
6115.42	0.219681	0.00262882	0.219697	-0.6856	13.6917	-0.000305646	-1.08512	9899.92	1.41745	1	9	0.0102679	0.0467366	0	-0.00461594	4.5514	0.0544645	4.55172	0.6856	1417.45	118451	118459	-89.3144	0.0000000E+000	0.0000000E+000	0.0000000E+000	89.3144	0.0000000E+000	0.0000000E+000	0.0000000E+000	-89.3144	0.0000000E+000	0.0000000E+000	0.0000000E+000	-0.6856	0.0000000E+000	0.0000000E+000	0.0000000E+000	0.6856	83.5663	0.6856	-0.000291077
4571.46	0.220424	0.00298387	0.220444	-0.775564	15.0297	-0.000292673	-1.04874	11667.7	2.13771	1	9	0.0101948	0.0462467	0	-0.00506299	4.53589	0.0614022	4.5363	0.775564	2137.71	157916	157931	-89.2244	0.0000000E+000	0.0000000E+000	0.0000000E+000	89.2244	0.0000000E+000	0.0000000E+000	0.0000000E+000	-89.2244	0.0000000E+000	0.0000000E+000	0.0000000E+000	-0.775564	0.0000000E+000	0.0000000E+000	0.0000000E+000	0.775564	73.8718	0.775564	-0.000447053
3421.09	0.221215	0.00304575	0.221236	-0.788813	16.1457	-0.000291182	-1.04088	15274.3	2.89493	1	9	0.0107658	0.0486621	0	-0.00535456	4.51963	0.0622275	4.52006	0.788813	2894.92	210261	210281	-89.2112	0.0000000E+000	0.0000000E+000	0.0000000E+000	89.2112	0.0000000E+000	0.0000000E+000	0.0000000E+000	-89.2112	0.0000000E+000	0.0000000E+000	0.0000000E+000	-0.788813	0.0000000E+000	0.0000000E+000	0.0000000E+000	0.788813	72.6308	0.788813	-0.000291565
2567.54	0.220455	0.00285695	0.220473	-0.742474	17.4829	-0.000293698	-1.04337	21697.1	3.6433	1	9	0.0100048	0.0453786	0	-0.00572201	4.53532	0.0587748	4.5357	0.742474	3643.31	281133	281157	-89.2575	0.0000000E+000	0.0000000E+000	0.0000000E+000	89.2575	0.0000000E+000	0.0000000E+000	0.0000000E+000	-89.2575	0.0000000E+000	0.0000000E+000	0.0000000E+000	-0.742474	0.0000000E+000	0.0000000E+000	0.0000000E+000	0.742474	77.1644	0.742474	-0.000367447
1838.24	0.222569	0.00302436	0.22259	-0.778509	18.5989	-0.000291089	-1.07498	28627.6	5.28495	1	9	0.0102563	0.0460769	0	-0.00607058	4.49215	0.0610411	4.49256	0.778509	5284.97	388932	388968	-89.2215	0.0000000E+000	0.0000000E+000	0.0000000E+000	89.2215	0.0000000E+000	0.0000000E+000	0.0000000E+000	-89.2215	0.0000000E+000	0.0000000E+000	0.0000000E+000	-0.778509	0.0000000E+000	0.0000000E+000	0.0000000E+000	0.778509	73.5923	0.778509	-0.000348575
1372.2	0.223362	0.00290557	0.223381	-0.745281	19.7144	-0.000294854	-1.05364	39918.4	6.75372	1	9	0.0103675	0.0464115	0	-0.00643454	4.47628	0.058229	4.47666	0.745281	6753.69	519184	519228	-89.2547	0.0000000E+000	0.0000000E+000	0.0000000E+000	89.2547	0.0000000E+000	0.0000000E+000	0.0000000E+000	-89.2547	0.0000000E+000	0.0000000E+000	0.0000000E+000	-0.745281	0.0000000E+000	0.0000000E+000	0.0000000E+000	0.745281	76.8738	0.745281	-0.000363958
1024.02	0.223781	0.00280936	0.223798	-0.719258	20.8299	-0.000294481	-1.07457	55323	8.7178	1	9	0.0104164	0.0465439	0	-0.00676327	4.46796	0.0560911	4.46831	0.719258	8717.84	694420	694475	-89.2807	0.0000000E+000	0.0000000E+000	0.0000000E+000	89.2807	0.0000000E+000	0.0000000E+000	0.0000000E+000	-89.2807	0.0000000E+000	0.0000000E+000	0.0000000E+000	-0.719258	0.0000000E+000	0.0000000E+000	0.0000000E+000	0.719258	79.6554	0.719258	-0.000328734
763.29	0.224154	0.00262706	0.224169	-0.67147	21.9492	-0.000286969	-1.03926	79370.8	10.9006	1	9	0.010442	0.0465808	0	-0.00710415	4.46061	0.0522779	4.46092	0.67147	10900.6	930090	930154	-89.3285	0.0000000E+000	0.0000000E+000	0.0000000E+000	89.3285	0.0000000E+000	0.0000000E+000	0.0000000E+000	-89.3285	0.0000000E+000	0.0000000E+000	0.0000000E+000	-0.67147	0.0000000E+000	0.0000000E+000	0.0000000E+000	0.67147	85.325	0.67147	-0.000340879
569.453	0.224631	0.00241099	0.224644	-0.614938	23.0649	-0.000297911	-1.06559	115922	13.3526	1	9	0.0104636	0.0465784	0	-0.00747436	4.45123	0.0477755	4.45149	0.614938	13352.6	1.24406e+06	1.24413e+06	-89.3851	0.0000000E+000	0.0000000E+000	0.0000000E+000	89.3851	0.0000000E+000	0.0000000E+000	0.0000000E+000	-89.3851	0.0000000E+000	0.0000000E+000	0.0000000E+000	-0.614938	0.0000000E+000	0.0000000E+000	0.0000000E+000	0.614938	93.1697	0.614938	-0.00037021
425.136	0.224892	0.00228864	0.224904	-0.583057	24.1807	-0.000296531	-1.05634	163574	16.9386	1	9	0.0104681	0.046545	0	-0.00778171	4.44612	0.0452464	4.44635	0.583057	16938.5	1.66446e+06	1.66455e+06	-89.4169	0.0000000E+000	0.0000000E+000	0.0000000E+000	89.4169	0.0000000E+000	0.0000000E+000	0.0000000E+000	-89.4169	0.0000000E+000	0.0000000E+000	0.0000000E+000	-0.583057	0.0000000E+000	0.0000000E+000	0.0000000E+000	0.583057	98.2645	0.583057	-0.000307345
317.131	0.225117	0.00229914	0.225129	-0.585144	25.2914	-0.000296774	-1.06937	218281	22.7658	1	9	0.0104723	0.0465167	0	-0.00807839	4.44166	0.0453629	4.44189	0.585144	22765.7	2.22909e+06	2.2292e+06	-89.4149	0.0000000E+000	0.0000000E+000	0.0000000E+000	89.4149	0.0000000E+000	0.0000000E+000	0.0000000E+000	-89.4149	0.0000000E+000	0.0000000E+000	0.0000000E+000	-0.585144	0.0000000E+000	0.0000000E+000	0.0000000E+000	0.585144	97.9139	0.585144	-0.000296686
236.59	0.225359	0.0023409	0.225371	-0.595135	26.4014	-0.000301638	-1.05842	287370	31.0035	1	9	0.0104743	0.0464758	0	-0.00836084	4.43689	0.0460879	4.43713	0.595135	31003.7	2.98471e+06	2.98487e+06	-89.4049	0.0000000E+000	0.0000000E+000	0.0000000E+000	89.4049	0.0000000E+000	0.0000000E+000	0.0000000E+000	-89.4049	0.0000000E+000	0.0000000E+000	0.0000000E+000	-0.595135	0.0000000E+000	0.0000000E+000	0.0000000E+000	0.595135	96.2701	0.595135	-0.000282453
176.411	0.225549	0.0023981	0.225562	-0.609163	27.5102	-0.000293735	-1.04812	376206	42.5238	1	9	0.0104728	0.0464299	0	-0.00872933	4.43313	0.0471344	4.43338	0.609163	42523.6	3.99949e+06	3.99971e+06	-89.3908	0.0000000E+000	0.0000000E+000	0.0000000E+000	89.3908	0.0000000E+000	0.0000000E+000	0.0000000E+000	-89.3908	0.0000000E+000	0.0000000E+000	0.0000000E+000	-0.609163	0.0000000E+000	0.0000000E+000	0.0000000E+000	0.609163	94.0529	0.609163	-0.000368485
131.558	0.225796	0.00261169	0.225811	-0.662689	28.6144	-0.000299141	-1.04526	463214	61.9635	1	9	0.0104727	0.046378	0	-0.00903127	4.42819	0.0512191	4.42848	0.662689	61963.6	5.3571e+06	5.35746e+06	-89.3373	0.0000000E+000	0.0000000E+000	0.0000000E+000	89.3373	0.0000000E+000	0.0000000E+000	0.0000000E+000	-89.3373	0.0000000E+000	0.0000000E+000	0.0000000E+000	-0.662689	0.0000000E+000	0.0000000E+000	0.0000000E+000	0.662689	86.4557	0.662689	-0.000301941
98.147	0.226206	0.00276686	0.226223	-0.700784	29.7495	-0.000294593	-1.05393	586078	87.6711	1	9	0.0104765	0.0463103	0	-0.00937879	4.42008	0.0540647	4.42041	0.700784	87671	7.1676e+06	7.16813e+06	-89.2992	0.0000000E+000	0.0000000E+000	0.0000000E+000	89.2992	0.0000000E+000	0.0000000E+000	0.0000000E+000	-89.2992	0.0000000E+000	0.0000000E+000	0.0000000E+000	-0.700784	0.0000000E+000	0.0000000E+000	0.0000000E+000	0.700784	81.7555	0.700784	-0.00034752
73.2422	0.226472	0.00310305	0.226494	-0.784998	30.8896	-0.000310455	-1.11311	700278	131.442	1	9	0.0104734	0.0462414	0	-0.00969396	4.41472	0.060489	4.41513	0.784998	131442	9.59317e+06	9.59407e+06	-89.215	0.0000000E+000	0.0000000E+000	0.0000000E+000	89.215	0.0000000E+000	0.0000000E+000	0.0000000E+000	-89.215	0.0000000E+000	0.0000000E+000	0.0000000E+000	-0.784998	0.0000000E+000	0.0000000E+000	0.0000000E+000	0.784998	72.9839	0.784998	-0.000315168
54.5982	0.226848	0.00336233	0.226873	-0.849174	32.0152	-0.000307118	-1.04479	866966	190.422	1	9	0.010473	0.0461623	0	-0.0100507	4.40727	0.0653244	4.40776	0.849174	190422	1.28473e+07	1.28487e+07	-89.1508	0.0000000E+000	0.0000000E+000	0.0000000E+000	89.1508	0.0000000E+000	0.0000000E+000	0.0000000E+000	-89.1508	0.0000000E+000	0.0000000E+000	0.0000000E+000	-0.849174	0.0000000E+000	0.0000000E+000	0.0000000E+000	0.849174	67.4675	0.849174	-0.000356722
40.7432	0.227378	0.00369995	0.227408	-0.932249	33.1141	-0.000296624	-1.04235	1.05577e+06	279.479	1	9	0.0104769	0.0460708	0	-0.0103003	4.3968	0.0715458	4.39738	0.932249	279480	1.71752e+07	1.71775e+07	-89.0677	0.0000000E+000	0.0000000E+000	0.0000000E+000	89.0677	0.0000000E+000	0.0000000E+000	0.0000000E+000	-89.0677	0.0000000E+000	0.0000000E+000	0.0000000E+000	-0.932249	0.0000000E+000	0.0000000E+000	0.0000000E+000	0.932249	61.4543	0.932249	-0.000249612
30.3988	0.227835	0.00420726	0.227874	-1.05792	34.2181	-0.000296457	-1.03375	1.24441e+06	424.203	1	9	0.0104733	0.0459611	0	-0.0106399	4.38765	0.0810235	4.38839	1.05792	424205	2.29718e+07	2.29757e+07	-88.9421	0.0000000E+000	0.0000000E+000	0.0000000E+000	88.9421	0.0000000E+000	0.0000000E+000	0.0000000E+000	-88.9421	0.0000000E+000	0.0000000E+000	0.0000000E+000	-1.05792	0.0000000E+000	0.0000000E+000	0.0000000E+000	1.05792	54.1528	1.05792	-0.000339626
22.6581	0.228433	0.00467422	0.228481	-1.17223	35.4364	-0.000290902	-1.05632	1.50275e+06	628.939	1	9	0.010473	0.0458375	0	-0.0110735	4.37582	0.0895388	4.37674	1.17223	628940	3.07367e+07	3.07431e+07	-88.8278	0.0000000E+000	0.0000000E+000	0.0000000E+000	88.8278	0.0000000E+000	0.0000000E+000	0.0000000E+000	-88.8278	0.0000000E+000	0.0000000E+000	0.0000000E+000	-1.17223	0.0000000E+000	0.0000000E+000	0.0000000E+000	1.17223	48.8707	1.17223	-0.000433594
16.9102	0.229235	0.00525596	0.229295	-1.31346	36.4391	-0.000297817	-1.08529	1.79069e+06	940.882	1	9	0.0104758	0.0456868	0	-0.0113472	4.36005	0.0999685	4.3612	1.31346	940880	4.10359e+07	4.10466e+07	-88.6865	0.0000000E+000	0.0000000E+000	0.0000000E+000	88.6865	0.0000000E+000	0.0000000E+000	0.0000000E+000	-88.6865	0.0000000E+000	0.0000000E+000	0.0000000E+000	-1.31346	0.0000000E+000	0.0000000E+000	0.0000000E+000	1.31346	43.6143	1.31346	-0.000273717
12.628	0.230064	0.00576924	0.230137	-1.43649	37.7443	-0.000291899	-1.05684	2.18458e+06	1372.89	1	9	0.0104746	0.0455146	0	-0.0115435	4.34388	0.10893	4.34525	1.43649	1.37289e+06	5.47476e+07	5.47648e+07	-88.5635	0.0000000E+000	0.0000000E+000	0.0000000E+000	88.5635	0.0000000E+000	0.0000000E+000	0.0000000E+000	-88.5635	0.0000000E+000	0.0000000E+000	0.0000000E+000	-1.43649	0.0000000E+000	0.0000000E+000	0.0000000E+000	1.43649	39.8777	1.43649	-0.000196221
9.41265	0.231121	0.00622465	0.231205	-1.54274	38.9202	-0.000297929	-1.04393	2.7164e+06	1968.92	1	9	0.0104757	0.0453093	0	-0.0118319	4.3236	0.116445	4.32516	1.54274	1.96892e+06	7.3106e+07	7.31325e+07	-88.4573	0.0000000E+000	0.0000000E+000	0.0000000E+000	88.4573	0.0000000E+000	0.0000000E+000	0.0000000E+000	-88.4573	0.0000000E+000	0.0000000E+000	0.0000000E+000	-1.54274	0.0000000E+000	0.0000000E+000	0.0000000E+000	1.54274	37.13	1.54274	-0.000288408
7.02563	0.232356	0.00696216	0.232461	-1.71626	39.756	-0.000323633	-1.11918	3.2538e+06	2918.64	1	9	0.0104728	0.0450518	0	-0.0122356	4.29987	0.128838	4.3018	1.71626	2.91864e+06	9.74071e+07	9.74509e+07	-88.2837	0.0000000E+000	0.0000000E+000	0.0000000E+000	88.2837	0.0000000E+000	0.0000000E+000	0.0000000E+000	-88.2837	0.0000000E+000	0.0000000E+000	0.0000000E+000	-1.71626	0.0000000E+000	0.0000000E+000	0.0000000E+000	1.71626	33.3742	1.71626	-0.000403745
5.23626	0.233576	0.00752091	0.233697	-1.84423	40.8287	-0.000293679	-1.06891	4.04137e+06	4185.65	1	9	0.0104748	0.044822	0	-0.013008	4.27683	0.13771	4.27905	1.84423	4.18566e+06	1.29993e+08	1.30061e+08	-88.1558	0.0000000E+000	0.0000000E+000	0.0000000E+000	88.1558	0.0000000E+000	0.0000000E+000	0.0000000E+000	-88.1558	0.0000000E+000	0.0000000E+000	0.0000000E+000	-1.84423	0.0000000E+000	0.0000000E+000	0.0000000E+000	1.84423	31.0569	1.84423	-0.00077243
3.90625	0.235119	0.00835785	0.235267	-2.03585	42.2258	-0.000295469	-1.02888	4.8749e+06	6152.21	1	9	0.0104736	0.044518	0	-0.0126248	4.2478	0.150998	4.25048	2.03585	6.15222e+06	1.73071e+08	1.7318e+08	-87.9641	0.0000000E+000	0.0000000E+000	0.0000000E+000	87.9641	0.0000000E+000	0.0000000E+000	0.0000000E+000	-87.9641	0.0000000E+000	0.0000000E+000	0.0000000E+000	-2.03585	0.0000000E+000	0.0000000E+000	0.0000000E+000	2.03585	28.1315	2.03585	0.00038321
2.91294	0.236865	0.00906085	0.237039	-2.19068	44.0621	-0.00028408	-1.03098	6.03003e+06	8810.89	1	9	0.0104756	0.0441937	0	-0.0135325	4.21564	0.161262	4.21872	2.19068	8.81087e+06	2.30331e+08	2.30499e+08	-87.8093	0.0000000E+000	0.0000000E+000	0.0000000E+000	87.8093	0.0000000E+000	0.0000000E+000	0.0000000E+000	-87.8093	0.0000000E+000	0.0000000E+000	0.0000000E+000	-2.19068	0.0000000E+000	0.0000000E+000	0.0000000E+000	2.19068	26.1416	2.19068	-0.000907662
2.17497	0.238718	0.00950789	0.238907	-2.28083	46.4897	-0.000285972	-1.04109	7.6963e+06	12189.7	1	9	0.0104773	0.0438552	0	-0.0151598	4.18241	0.166581	4.18573	2.28083	1.21897e+07	3.06051e+08	3.06293e+08	-87.7192	0.0000000E+000	0.0000000E+000	0.0000000E+000	87.7192	0.0000000E+000	0.0000000E+000	0.0000000E+000	-87.7192	0.0000000E+000	0.0000000E+000	0.0000000E+000	-2.28083	0.0000000E+000	0.0000000E+000	0.0000000E+000	2.28083	25.1073	2.28083	-0.00162736
1.62085	0.240802	0.00984652	0.241003	-2.34155	49.717	-0.000282231	-0.990466	9.97228e+06	16646.1	1	9	0.0104741	0.0434603	0	-0.0149077	4.14585	0.169526	4.14932	2.34155	1.66462e+07	4.07091e+08	4.07431e+08	-87.6584	0.0000000E+000	0.0000000E+000	0.0000000E+000	87.6584	0.0000000E+000	0.0000000E+000	0.0000000E+000	-87.6584	0.0000000E+000	0.0000000E+000	0.0000000E+000	-2.34155	0.0000000E+000	0.0000000E+000	0.0000000E+000	2.34155	24.4556	2.34155	0.00025217
1.21049	0.242804	0.009572	0.242992	-2.25759	54.0103	-0.000283465	-1.03631	1.37359e+07	21314.6	1	9	0.0104761	0.0431128	0	-0.0147137	4.11216	0.162113	4.11536	2.25759	2.13146e+07	5.40667e+08	5.41087e+08	-87.7424	0.0000000E+000	0.0000000E+000	0.0000000E+000	87.7424	0.0000000E+000	0.0000000E+000	0.0000000E+000	-87.7424	0.0000000E+000	0.0000000E+000	0.0000000E+000	-2.25759	0.0000000E+000	0.0000000E+000	0.0000000E+000	2.25759	25.366	2.25759	0.000194013
0.902137	0.244534	0.00925293	0.244709	-2.16698	60.8989	-0.000278209	-0.994485	1.90664e+07	27260	1	10	0.0104758	0.0428089	0	-0.0173902	4.08356	0.154518	4.08648	2.16698	2.726e+07	7.20421e+08	7.20937e+08	-87.833	0.0000000E+000	0.0000000E+000	0.0000000E+000	87.833	0.0000000E+000	0.0000000E+000	0.0000000E+000	-87.833	0.0000000E+000	0.0000000E+000	0.0000000E+000	-2.16698	0.0000000E+000	0.0000000E+000	0.0000000E+000	2.16698	26.4278	2.16698	-0.0026765
0.673724	0.246106	0.00842108	0.24625	-1.95974	68.5469	-0.00027767	-0.997903	2.80524e+07	32805.9	1	10	0.0104722	0.0425265	0	-0.0219763	4.05853	0.138872	4.06091	1.95974	3.28059e+07	9.58754e+08	9.59316e+08	-88.0403	0.0000000E+000	0.0000000E+000	0.0000000E+000	88.0403	0.0000000E+000	0.0000000E+000	0.0000000E+000	-88.0403	0.0000000E+000	0.0000000E+000	0.0000000E+000	-1.95974	0.0000000E+000	0.0000000E+000	0.0000000E+000	1.95974	29.225	1.95974	-0.00458612
0.502347	0.247619	0.00745424	0.247732	-1.72429	78.7776	-0.000270974	-0.973905	4.25024e+07	38482	1	10	0.0104737	0.0422783	0	-0.0265961	4.0348	0.121462	4.03663	1.72429	3.84819e+07	1.27832e+09	1.2789e+09	-88.2757	0.0000000E+000	0.0000000E+000	0.0000000E+000	88.2757	0.0000000E+000	0.0000000E+000	0.0000000E+000	-88.2757	0.0000000E+000	0.0000000E+000	0.0000000E+000	-1.72429	0.0000000E+000	0.0000000E+000	0.0000000E+000	1.72429	33.2186	1.72429	-0.00461983
0.375024	0.248482	0.0064162	0.248565	-1.47914	92.4589	-0.000280094	-1.0085	6.61429e+07	44071.7	1	10	0.0104778	0.0421531	0	-0.0293007	4.02176	0.103848	4.0231	1.47914	4.40717e+07	1.70678e+09	1.70735e+09	-88.5209	0.0000000E+000	0.0000000E+000	0.0000000E+000	88.5209	0.0000000E+000	0.0000000E+000	0.0000000E+000	-88.5209	0.0000000E+000	0.0000000E+000	0.0000000E+000	-1.47914	0.0000000E+000	0.0000000E+000	0.0000000E+000	1.47914	38.7273	1.47914	-0.0027046
0.279837	0.248921	0.00533444	0.248978	-1.22768	110.769	-0.000278177	-1.0235	1.06617e+08	48941.9	1	10	0.0104767	0.0420786	0	-0.0300986	4.0155	0.0860531	4.01642	1.22768	4.8942e+07	2.28378e+09	2.2843e+09	-88.7723	0.0000000E+000	0.0000000E+000	0.0000000E+000	88.7723	0.0000000E+000	0.0000000E+000	0.0000000E+000	-88.7723	0.0000000E+000	0.0000000E+000	0.0000000E+000	-1.22768	0.0000000E+000	0.0000000E+000	0.0000000E+000	1.22768	46.663	1.22768	-0.000797928
0.2084	0.248947	0.0042775	0.248984	-0.984379	135.332	-0.000277331	-0.982362	1.78539e+08	52694.9	1	10	0.010477	0.0420791	0	-0.0309153	4.01573	0.0689996	4.01632	0.984379	5.26948e+07	3.06681e+09	3.06726e+09	-89.0156	0.0000000E+000	0.0000000E+000	0.0000000E+000	89.0156	0.0000000E+000	0.0000000E+000	0.0000000E+000	-89.0156	0.0000000E+000	0.0000000E+000	0.0000000E+000	-0.984379	0.0000000E+000	0.0000000E+000	0.0000000E+000	0.984379	58.1993	0.984379	-0.00081666
0.155417	0.2499	0.00378826	0.249929	-0.868485	168.245	-0.000275896	-0.990453	2.70322e+08	62105.2	1	10	0.0104757	0.0419145	0	-0.0360224	4.00067	0.0606465	4.00113	0.868485	6.21051e+07	4.0969e+09	4.09737e+09	-89.1315	0.0000000E+000	0.0000000E+000	0.0000000E+000	89.1315	0.0000000E+000	0.0000000E+000	0.0000000E+000	-89.1315	0.0000000E+000	0.0000000E+000	0.0000000E+000	-0.868485	0.0000000E+000	0.0000000E+000	0.0000000E+000	0.868485	65.9671	0.868485	-0.00510711
0.116071	0.248691	0.00289954	0.248708	-0.667993	212.294	-0.00027555	-1.00789	4.72898e+08	64275.6	1	10	0.0104758	0.042121	0	-0.0508318	4.0205	0.0468759	4.02078	0.667993	6.42755e+07	5.51286e+09	5.51324e+09	-89.332	0.0000000E+000	0.0000000E+000	0.0000000E+000	89.332	0.0000000E+000	0.0000000E+000	0.0000000E+000	-89.332	0.0000000E+000	0.0000000E+000	0.0000000E+000	-0.667993	0.0000000E+000	0.0000000E+000	0.0000000E+000	0.667993	85.7691	0.667993	-0.0148094
0.0865095	0.246229	0.00209683	0.246238	-0.487906	271.373	-0.000274301	-1.01098	8.7739e+08	63622.4	1	10	0.0104746	0.0425387	0	-0.0791706	4.06096	0.0345823	4.06111	0.487906	6.36225e+07	7.47112e+09	7.47139e+09	-89.5121	0.0000000E+000	0.0000000E+000	0.0000000E+000	89.5121	0.0000000E+000	0.0000000E+000	0.0000000E+000	-89.5121	0.0000000E+000	0.0000000E+000	0.0000000E+000	-0.487906	0.0000000E+000	0.0000000E+000	0.0000000E+000	0.487906	117.429	0.487906	-0.0283388