File: Python/Experiments/Baichen/VanadiumFullCell/Data/SGL 2.5EA carbon felt_ve=5 cms.mpt
EC-Lab ASCII FILE
Nb header lines : 76

Potentio Electrochemical Impedance Spectroscopy

Run on channel : 1 (SN 5680)
User :
Electrode connection : standard
Potential control : Ewe
Ewe ctrl range : min = 0.00 V, max = 5.00 V
Ewe,I filtering : 50 kHz
Safety Limits :
	Do not start on E overload
Channel : Floating
Acquisition started on : 01/21/2022 14:49:30.130
Loaded Setting File :  C:\Data\baili\Compression Ratio Tests\final\SGL 2.5 Felt ve=2\EIS_fullcell_CR10_flowthrough_C01.mpr
Saved on :
	File : EIS_fullcell_CR30_flowthrough_ve=5_C01.mpr
	Directory : C:\Data\baili\Compression Ratio Tests\final\SGL 2.5 Felt ve=2\SGL 2.5 Felt ve=other\
	Host : 192.168.0.1
Device : SP-300 (SN 0955)
Address : 192.168.0.4
EC-Lab for windows v11.36 (software)
Internet server v11.36 (firmware)
Command interpretor v11.36 (firmware)
Electrode material :
Initial state :
Electrolyte :
Comments :
Current amplifier : B-10A5V
Cable : standard
Electrode surface area : 0.001 cm²
Characteristic mass : 0.001 g
Equivalent Weight : 0.000 g/eq.
Density : 0.000 g/cm3
Volume (V) : 0.000 m³
Record Power
Cycle Definition : Charge/Discharge alternance
External device configuration :
   device type : Other
   device name : Other
   Analog OUT :
      mode : E/V
      unit : speed/rpm
      max : 150.000 at 5.000 V
      min : 0.000 at 0.000 V
      current : 32.000
Mode                Single sine
E (V)               0.0000
vs.                 Eoc
tE (h:m:s)          0:00:0.0000
record              0
dI                  0.000
unit dI             mA
dt (s)              0.000
fi                  200.000
unit fi             kHz
ff                  30.000
unit ff             mHz
Nd                  12
Points              per decade
spacing             Logarithmic
Va (mV)             10.0
pw                  0.10
Na                  3
corr                0
E range min (V)     0.000
E range max (V)     5.000
I Range             Auto
Bandwidth           8
nc cycles           3
goto Ns'            0
nr cycles           0
inc. cycle          0

freq/Hz	Re(Z)/Ohm	-Im(Z)/Ohm	|Z|/Ohm	Phase(Z)/deg	time/s	<Ewe>/V	<I>/mA	Cs/µF	Cp/µF	cycle number	I Range	|Ewe|/V	|I|/A	Ns	(Q-Qo)/mA.h	Analog OUT/V	P/W	Re(Y)/Ohm-1	Im(Y)/Ohm-1	|Y|/Ohm-1	Phase(Y)/deg	Re(C)/nF	Im(C)/nF	|C|/nF	Phase(C)/deg	Re(M)	Im(M)	|M|	Phase(M)/deg	Re(Permittivity)	Im(Permittivity)	|Permittivity|	Phase(Permittivity)/deg	Re(Resistivity)/Ohm.cm	Im(Resistivity)/Ohm.cm	|Resistivity|/Ohm.cm	Phase(Resistivity)/deg	Re(Conductivity)/mS/cm	Im(Conductivity)/mS/cm	|Conductivity|/mS/cm	Phase(Conductivity)/deg	Tan(Delta)	Loss Angle(Delta)/deg	dq/mA.h
199998	0.0683609	-0.0229412	0.0721077	18.5512	1.7835	1.39322	-12.6637	-34.688	-3.51113	1	65	0.00959639	0.133084	0	-0.00203475	32	-0.0176433	13.1476	-4.41217	13.8682	-18.5512	-3511.13	10462.6	11036	-108.551	0.0000000E+000	0.0000000E+000	0.0000000E+000	108.551	0.0000000E+000	0.0000000E+000	0.0000000E+000	-108.551	0.0000000E+000	0.0000000E+000	0.0000000E+000	18.5512	0.0000000E+000	0.0000000E+000	0.0000000E+000	-18.5512	2.97984	71.4488	-0.00203475
164731	0.0694832	-0.0177048	0.0717034	14.2952	2.35648	1.39321	5.21247	-54.5701	-3.32704	1	65	0.0104264	0.14541	0	-0.00110224	32	0.00726209	13.5145	-3.44359	13.9463	-14.2952	-3327.04	13057.1	13474.3	-104.295	0.0000000E+000	0.0000000E+000	0.0000000E+000	104.295	0.0000000E+000	0.0000000E+000	0.0000000E+000	-104.295	0.0000000E+000	0.0000000E+000	0.0000000E+000	14.2952	0.0000000E+000	0.0000000E+000	0.0000000E+000	-14.2952	3.92454	75.7048	0.00093251
135689	0.070444	-0.0133277	0.0716936	10.7135	2.92949	1.39321	5.1413	-88.0076	-3.04138	1	65	0.0105468	0.147109	0	0.00124237	32	0.00716292	13.7051	-2.59295	13.9482	-10.7135	-3041.38	16075.3	16360.5	-100.713	0.0000000E+000	0.0000000E+000	0.0000000E+000	100.713	0.0000000E+000	0.0000000E+000	0.0000000E+000	-100.713	0.0000000E+000	0.0000000E+000	0.0000000E+000	10.7135	0.0000000E+000	0.0000000E+000	0.0000000E+000	-10.7135	5.28552	79.2865	0.0023446
111760	0.0713489	-0.00978296	0.0720164	7.80739	3.50248	1.3932	5.2285	-145.568	-2.68622	1	65	0.0105776	0.146877	0	0.00114303	32	0.00728435	13.757	-1.88628	13.8857	-7.80739	-2686.22	19591.1	19774.4	-97.8074	0.0000000E+000	0.0000000E+000	0.0000000E+000	97.8074	0.0000000E+000	0.0000000E+000	0.0000000E+000	-97.8074	0.0000000E+000	0.0000000E+000	0.0000000E+000	7.80739	0.0000000E+000	0.0000000E+000	0.0000000E+000	-7.80739	7.29318	82.1926	-9.93329e-05
92052	0.0721516	-0.00655583	0.0724488	5.19175	4.0765	1.39321	5.29818	-263.73	-2.15949	1	65	0.0105757	0.145974	0	0.00236277	32	0.00738146	13.7462	-1.24901	13.8029	-5.19175	-2159.49	23766.8	23864.7	-95.1917	0.0000000E+000	0.0000000E+000	0.0000000E+000	95.1917	0.0000000E+000	0.0000000E+000	0.0000000E+000	-95.1917	0.0000000E+000	0.0000000E+000	0.0000000E+000	5.19175	0.0000000E+000	0.0000000E+000	0.0000000E+000	-5.19175	11.0057	84.8083	0.00121974
75823.9	0.0729201	-0.00388326	0.0730234	3.04833	4.64848	1.3932	5.2911	-540.527	-1.52857	1	65	0.010582	0.144912	0	0.00368331	32	0.00737157	13.6749	-0.728237	13.6942	-3.04833	-1528.57	28703.6	28744.3	-93.0483	0.0000000E+000	0.0000000E+000	0.0000000E+000	93.0483	0.0000000E+000	0.0000000E+000	0.0000000E+000	-93.0483	0.0000000E+000	0.0000000E+000	0.0000000E+000	3.04833	0.0000000E+000	0.0000000E+000	0.0000000E+000	-3.04833	18.778	86.9517	0.00132054
62453.6	0.0736614	-0.00156641	0.073678	1.21821	5.22148	1.39322	5.41724	-1626.89	-0.735346	1	65	0.01057	0.143462	0	0.00518504	32	0.00754739	13.5695	-0.288555	13.5726	-1.21821	-735.345	34580.1	34587.9	-91.2182	0.0000000E+000	0.0000000E+000	0.0000000E+000	91.2182	0.0000000E+000	0.0000000E+000	0.0000000E+000	-91.2182	0.0000000E+000	0.0000000E+000	0.0000000E+000	1.21821	0.0000000E+000	0.0000000E+000	0.0000000E+000	-1.21821	47.0257	88.7818	0.00150172
51440	0.0745047	0.000596502	0.0745071	-0.458713	5.79548	1.39321	5.62927	5186.89	0.332457	1	65	0.0105581	0.141706	0	0.00567069	32	0.00784277	13.4211	0.107453	13.4215	0.458713	332.454	41524.8	41526.1	-89.5413	0.0000000E+000	0.0000000E+000	0.0000000E+000	89.5413	0.0000000E+000	0.0000000E+000	0.0000000E+000	-89.5413	0.0000000E+000	0.0000000E+000	0.0000000E+000	-0.458713	0.0000000E+000	0.0000000E+000	0.0000000E+000	0.458713	124.903	89.5413	0.000485654
42374.9	0.075394	0.00247538	0.0754346	-1.8805	6.36749	1.39321	5.61623	1517.29	1.63385	1	65	0.0105391	0.139712	0	0.00634754	32	0.00782459	13.2494	0.435012	13.2565	1.8805	1633.85	49763	49789.8	-88.1195	0.0000000E+000	0.0000000E+000	0.0000000E+000	88.1195	0.0000000E+000	0.0000000E+000	0.0000000E+000	-88.1195	0.0000000E+000	0.0000000E+000	0.0000000E+000	-1.8805	0.0000000E+000	0.0000000E+000	0.0000000E+000	1.8805	30.4575	88.1195	0.000676854
34896.4	0.0764631	0.00427645	0.0765826	-3.20112	6.94149	1.39321	5.66448	1066.49	3.32554	1	65	0.0105263	0.13745	0	0.00802019	32	0.00789182	13.0374	0.729162	13.0578	3.20112	3325.55	59460.8	59553.7	-86.7989	0.0000000E+000	0.0000000E+000	0.0000000E+000	86.7989	0.0000000E+000	0.0000000E+000	0.0000000E+000	-86.7989	0.0000000E+000	0.0000000E+000	0.0000000E+000	-3.20112	0.0000000E+000	0.0000000E+000	0.0000000E+000	3.20112	17.88	86.7989	0.00167265
28744.8	0.0776018	0.00584889	0.0778219	-4.31027	7.51548	1.39321	5.77516	946.645	5.34725	1	65	0.0105056	0.134995	0	0.00837558	32	0.00804601	12.8135	0.965761	12.8499	4.31027	5347.25	70946.2	71147.4	-85.6897	0.0000000E+000	0.0000000E+000	0.0000000E+000	85.6897	0.0000000E+000	0.0000000E+000	0.0000000E+000	-85.6897	0.0000000E+000	0.0000000E+000	0.0000000E+000	-4.31027	0.0000000E+000	0.0000000E+000	0.0000000E+000	4.31027	13.2678	85.6897	0.000355392
23678.7	0.0787808	0.00731639	0.0791198	-5.30585	8.0895	1.39321	5.74348	918.681	7.85575	1	65	0.0104546	0.132136	0	0.00962148	32	0.00800186	12.5849	1.16876	12.6391	5.30585	7855.76	84588.5	84952.5	-84.6941	0.0000000E+000	0.0000000E+000	0.0000000E+000	84.6941	0.0000000E+000	0.0000000E+000	0.0000000E+000	-84.6941	0.0000000E+000	0.0000000E+000	0.0000000E+000	-5.30585	0.0000000E+000	0.0000000E+000	0.0000000E+000	5.30585	10.7677	84.6941	0.0012459
19503.4	0.0801678	0.00872974	0.0806417	-6.21464	8.6635	1.3932	5.82229	934.778	10.9545	1	65	0.0104297	0.129334	0	0.00976805	32	0.00811163	12.3277	1.3424	12.4005	6.21464	10954.5	100598	101193	-83.7854	0.0000000E+000	0.0000000E+000	0.0000000E+000	83.7854	0.0000000E+000	0.0000000E+000	0.0000000E+000	-83.7854	0.0000000E+000	0.0000000E+000	0.0000000E+000	-6.21464	0.0000000E+000	0.0000000E+000	0.0000000E+000	6.21464	9.1833	83.7854	0.000146562
16061.1	0.0817235	0.0099348	0.0823252	-6.93121	9.23649	1.3932	5.76472	997.438	14.5258	1	65	0.0103895	0.1262	0	0.0118508	32	0.00803143	12.0582	1.46587	12.147	6.93121	14525.8	119489	120368	-83.0688	0.0000000E+000	0.0000000E+000	0.0000000E+000	83.0688	0.0000000E+000	0.0000000E+000	0.0000000E+000	-83.0688	0.0000000E+000	0.0000000E+000	0.0000000E+000	-6.93121	0.0000000E+000	0.0000000E+000	0.0000000E+000	6.93121	8.22598	83.0688	0.00208272
13231.1	0.0833085	0.0110916	0.0840436	-7.58367	9.8095	1.3932	5.81372	1084.5	18.8889	1	65	0.0103382	0.12301	0	0.0130991	32	0.00809967	11.7945	1.5703	11.8986	7.58367	18888.9	141874	143126	-82.4163	0.0000000E+000	0.0000000E+000	0.0000000E+000	82.4163	0.0000000E+000	0.0000000E+000	0.0000000E+000	-82.4163	0.0000000E+000	0.0000000E+000	0.0000000E+000	-7.58367	0.0000000E+000	0.0000000E+000	0.0000000E+000	7.58367	7.51098	82.4163	0.00124829
10902.2	0.085074	0.0121296	0.0859344	-8.11436	10.3835	1.3932	5.87577	1203.54	23.9782	1	65	0.0102812	0.11964	0	0.0141608	32	0.00818614	11.5203	1.64252	11.6368	8.11436	23978.2	168177	169878	-81.8856	0.0000000E+000	0.0000000E+000	0.0000000E+000	81.8856	0.0000000E+000	0.0000000E+000	0.0000000E+000	-81.8856	0.0000000E+000	0.0000000E+000	0.0000000E+000	-8.11436	0.0000000E+000	0.0000000E+000	0.0000000E+000	8.11436	7.01377	81.8856	0.00106171
8974.76	0.0869935	0.0130958	0.0879737	-8.56091	10.9801	1.3931	5.1849	1354.14	30.0071	1	65	0.0103877	0.118078	0	0.0158001	32	0.00722306	11.2404	1.69211	11.367	8.56091	30007.1	199333	201579	-81.4391	0.0000000E+000	0.0000000E+000	0.0000000E+000	81.4391	0.0000000E+000	0.0000000E+000	0.0000000E+000	-81.4391	0.0000000E+000	0.0000000E+000	0.0000000E+000	-8.56091	0.0000000E+000	0.0000000E+000	0.0000000E+000	8.56091	6.64284	81.4391	0.00163932
7394.87	0.0888289	0.013995	0.0899246	-8.95333	11.6656	1.3931	5.20707	1537.86	37.2481	1	65	0.0102067	0.113503	0	0.0166907	32	0.00725399	10.9849	1.73067	11.1204	8.95333	37248.1	236421	239338	-81.0467	0.0000000E+000	0.0000000E+000	0.0000000E+000	81.0467	0.0000000E+000	0.0000000E+000	0.0000000E+000	-81.0467	0.0000000E+000	0.0000000E+000	0.0000000E+000	-8.95333	0.0000000E+000	0.0000000E+000	0.0000000E+000	8.95333	6.34721	81.0467	0.000890613
6087.59	0.0909546	0.0147909	0.0921494	-9.23649	12.4674	1.39309	5.14353	1767.59	45.5391	1	65	0.0101514	0.110163	0	0.0175186	32	0.00716543	10.7112	1.74184	10.8519	9.23649	45539.1	280037	283715	-80.7635	0.0000000E+000	0.0000000E+000	0.0000000E+000	80.7635	0.0000000E+000	0.0000000E+000	0.0000000E+000	-80.7635	0.0000000E+000	0.0000000E+000	0.0000000E+000	-9.23649	0.0000000E+000	0.0000000E+000	0.0000000E+000	9.23649	6.14937	80.7635	0.000827862
5016.6	0.0930394	0.0154896	0.0943199	-9.45217	13.1597	1.39308	5.10608	2048.19	55.2388	1	65	0.0108102	0.114612	0	0.0180036	32	0.00711319	10.4583	1.74114	10.6022	9.45217	55238.8	331795	336362	-80.5478	0.0000000E+000	0.0000000E+000	0.0000000E+000	80.5478	0.0000000E+000	0.0000000E+000	0.0000000E+000	-80.5478	0.0000000E+000	0.0000000E+000	0.0000000E+000	-9.45217	0.0000000E+000	0.0000000E+000	0.0000000E+000	9.45217	6.00656	80.5478	0.000485027
4131.32	0.0952189	0.016023	0.0965576	-9.55196	14.0837	1.39309	5.04031	2404.29	66.2065	1	65	0.0101358	0.104972	0	0.0194998	32	0.00702163	10.2129	1.71858	10.3565	9.55196	66206.5	393442	398974	-80.448	0.0000000E+000	0.0000000E+000	0.0000000E+000	80.448	0.0000000E+000	0.0000000E+000	0.0000000E+000	-80.448	0.0000000E+000	0.0000000E+000	0.0000000E+000	-9.55196	0.0000000E+000	0.0000000E+000	0.0000000E+000	9.55196	5.94265	80.448	0.0014962
3403.91	0.0976271	0.0165636	0.0990222	-9.62923	14.7748	1.39311	5.18676	2822.85	78.9827	1	65	0.0103675	0.104699	0	0.0200096	32	0.00722571	9.95646	1.68923	10.0987	9.62923	78982.7	465530	472182	-80.3708	0.0000000E+000	0.0000000E+000	0.0000000E+000	80.3708	0.0000000E+000	0.0000000E+000	0.0000000E+000	-80.3708	0.0000000E+000	0.0000000E+000	0.0000000E+000	-9.62923	0.0000000E+000	0.0000000E+000	0.0000000E+000	9.62923	5.89407	80.3708	0.000509824
2802.31	0.0999862	0.01701	0.101423	-9.65495	15.466	1.39309	5.23688	3338.86	93.9157	1	65	0.0104824	0.103353	0	0.0214315	32	0.00729546	9.72007	1.65362	9.85972	9.65495	93915.7	552043	559975	-80.3451	0.0000000E+000	0.0000000E+000	0.0000000E+000	80.3451	0.0000000E+000	0.0000000E+000	0.0000000E+000	-80.3451	0.0000000E+000	0.0000000E+000	0.0000000E+000	-9.65495	0.0000000E+000	0.0000000E+000	0.0000000E+000	9.65495	5.87807	80.3451	0.00142191
2309.26	0.102488	0.0173008	0.103938	-9.58164	16.1578	1.3931	5.11037	3983.64	110.373	1	65	0.0105345	0.101353	0	0.0227932	32	0.00711925	9.48686	1.60146	9.62108	9.58164	110373	653837	663087	-80.4184	0.0000000E+000	0.0000000E+000	0.0000000E+000	80.4184	0.0000000E+000	0.0000000E+000	0.0000000E+000	-80.4184	0.0000000E+000	0.0000000E+000	0.0000000E+000	-9.58164	0.0000000E+000	0.0000000E+000	0.0000000E+000	9.58164	5.9239	80.4184	0.00136165
1901.83	0.105177	0.0174771	0.106619	-9.43456	16.8475	1.39311	5.31364	4788.28	128.662	1	65	0.0105531	0.0989799	0	0.0242158	32	0.00740247	9.25233	1.53745	9.3792	9.43456	128662	774283	784900	-80.5654	0.0000000E+000	0.0000000E+000	0.0000000E+000	80.5654	0.0000000E+000	0.0000000E+000	0.0000000E+000	-80.5654	0.0000000E+000	0.0000000E+000	0.0000000E+000	-9.43456	0.0000000E+000	0.0000000E+000	0.0000000E+000	9.43456	6.01798	80.5654	0.00142258
1566.51	0.107806	0.0175781	0.10923	-9.26071	17.5376	1.39308	5.17167	5779.85	149.684	1	65	0.0105555	0.0966355	0	0.0250626	32	0.00720455	9.03566	1.47328	9.15498	9.26071	149684	918011	930134	-80.7393	0.0000000E+000	0.0000000E+000	0.0000000E+000	80.7393	0.0000000E+000	0.0000000E+000	0.0000000E+000	-80.7393	0.0000000E+000	0.0000000E+000	0.0000000E+000	-9.26071	0.0000000E+000	0.0000000E+000	0.0000000E+000	9.26071	6.133	80.7393	0.00084683
1290.41	0.110463	0.0171998	0.111794	-8.85022	18.2287	1.3931	5.23017	7170.83	169.737	1	65	0.0105366	0.0942498	0	0.0264093	32	0.00728613	8.8385	1.37621	8.945	8.85022	169737	1.09011e+06	1.10325e+06	-81.1498	0.0000000E+000	0.0000000E+000	0.0000000E+000	81.1498	0.0000000E+000	0.0000000E+000	0.0000000E+000	-81.1498	0.0000000E+000	0.0000000E+000	0.0000000E+000	-8.85022	0.0000000E+000	0.0000000E+000	0.0000000E+000	8.85022	6.42237	81.1498	0.00134673
1062.62	0.113109	0.0168345	0.114355	-8.46539	18.9202	1.39309	5.27377	8897.02	192.81	1	65	0.0105244	0.0920328	0	0.0274278	32	0.00734682	8.6494	1.28732	8.74468	8.46539	192810	1.29548e+06	1.30975e+06	-81.5346	0.0000000E+000	0.0000000E+000	0.0000000E+000	81.5346	0.0000000E+000	0.0000000E+000	0.0000000E+000	-81.5346	0.0000000E+000	0.0000000E+000	0.0000000E+000	-8.46539	0.0000000E+000	0.0000000E+000	0.0000000E+000	8.46539	6.71892	81.5346	0.00101852
875.279	0.115539	0.0160967	0.116655	-7.9313	19.6117	1.39309	5.26278	11296.3	215.081	1	65	0.0105059	0.0900591	0	0.0284546	32	0.0073315	8.49027	1.18285	8.57227	7.9313	215081	1.54381e+06	1.55872e+06	-82.0687	0.0000000E+000	0.0000000E+000	0.0000000E+000	82.0687	0.0000000E+000	0.0000000E+000	0.0000000E+000	-82.0687	0.0000000E+000	0.0000000E+000	0.0000000E+000	-7.9313	0.0000000E+000	0.0000000E+000	0.0000000E+000	7.9313	7.17781	82.0687	0.00102677
721.157	0.117805	0.0152466	0.118788	-7.37432	20.3004	1.39309	5.31364	14475	238.461	1	65	0.0104874	0.088287	0	0.0297551	32	0.00740238	8.34873	1.08051	8.41836	7.37432	238461	1.84251e+06	1.85788e+06	-82.6257	0.0000000E+000	0.0000000E+000	0.0000000E+000	82.6257	0.0000000E+000	0.0000000E+000	0.0000000E+000	-82.6257	0.0000000E+000	0.0000000E+000	0.0000000E+000	-7.37432	0.0000000E+000	0.0000000E+000	0.0000000E+000	7.37432	7.72668	82.6257	0.00130046
593.67	0.119923	0.0142127	0.120762	-6.75891	20.9922	1.39309	5.29203	18862.4	261.271	1	65	0.0104652	0.0866598	0	0.0306895	32	0.00737225	8.2232	0.974578	8.28075	6.75891	261271	2.20453e+06	2.21996e+06	-83.2411	0.0000000E+000	0.0000000E+000	0.0000000E+000	83.2411	0.0000000E+000	0.0000000E+000	0.0000000E+000	-83.2411	0.0000000E+000	0.0000000E+000	0.0000000E+000	-6.75891	0.0000000E+000	0.0000000E+000	0.0000000E+000	6.75891	8.43771	83.2411	0.000934457
489.217	0.121828	0.013009	0.122521	-6.09506	21.6841	1.39308	5.37475	25007.7	281.933	1	65	0.010456	0.0853404	0	0.0314926	32	0.00748745	8.11576	0.866617	8.16189	6.09506	281933	2.64026e+06	2.65528e+06	-83.9049	0.0000000E+000	0.0000000E+000	0.0000000E+000	83.9049	0.0000000E+000	0.0000000E+000	0.0000000E+000	-83.9049	0.0000000E+000	0.0000000E+000	0.0000000E+000	-6.09506	0.0000000E+000	0.0000000E+000	0.0000000E+000	6.09506	9.36487	83.9049	0.000803093
402.809	0.123428	0.0120216	0.124012	-5.56293	22.3789	1.39308	5.31383	32866.8	308.855	1	65	0.0104426	0.0842058	0	0.032805	32	0.00740257	8.02573	0.781687	8.06371	5.56293	308855	3.17107e+06	3.18608e+06	-84.4371	0.0000000E+000	0.0000000E+000	0.0000000E+000	84.4371	0.0000000E+000	0.0000000E+000	0.0000000E+000	-84.4371	0.0000000E+000	0.0000000E+000	0.0000000E+000	-5.56293	0.0000000E+000	0.0000000E+000	0.0000000E+000	5.56293	10.2672	84.4371	0.00131234
331.805	0.124883	0.0106478	0.125336	-4.87337	23.0657	1.39308	5.3632	45048.2	325.12	1	65	0.0104375	0.0832758	0	0.0339303	32	0.00747139	7.94969	0.677807	7.97853	4.87337	325120	3.81318e+06	3.82702e+06	-85.1266	0.0000000E+000	0.0000000E+000	0.0000000E+000	85.1266	0.0000000E+000	0.0000000E+000	0.0000000E+000	-85.1266	0.0000000E+000	0.0000000E+000	0.0000000E+000	-4.87337	0.0000000E+000	0.0000000E+000	0.0000000E+000	4.87337	11.7285	85.1266	0.00112536
273.338	0.125986	0.00960416	0.126352	-4.35934	23.76	1.39308	5.49065	60626.3	350.282	1	65	0.0104342	0.082581	0	0.0347324	32	0.00764892	7.89153	0.601586	7.91442	4.35934	350282	4.59495e+06	4.60829e+06	-85.6407	0.0000000E+000	0.0000000E+000	0.0000000E+000	85.6407	0.0000000E+000	0.0000000E+000	0.0000000E+000	-85.6407	0.0000000E+000	0.0000000E+000	0.0000000E+000	-4.35934	0.0000000E+000	0.0000000E+000	0.0000000E+000	4.35934	13.1179	85.6407	0.000802103
225.072	0.127059	0.00853176	0.127345	-3.84154	24.4517	1.39309	5.6138	82881.8	372.026	1	65	0.0104208	0.0818314	0	0.0357184	32	0.00782054	7.83504	0.526108	7.85269	3.84154	372026	5.54038e+06	5.55285e+06	-86.1585	0.0000000E+000	0.0000000E+000	0.0000000E+000	86.1585	0.0000000E+000	0.0000000E+000	0.0000000E+000	-86.1585	0.0000000E+000	0.0000000E+000	0.0000000E+000	-3.84154	0.0000000E+000	0.0000000E+000	0.0000000E+000	3.84154	14.8925	86.1585	0.000985998
185.415	0.127716	0.00761325	0.127942	-3.41142	25.1403	1.3931	5.63821	112747	399.224	1	65	0.010416	0.0814117	0	0.0369795	32	0.00785457	7.80217	0.465095	7.81602	3.41142	399224	6.69716e+06	6.70905e+06	-86.5886	0.0000000E+000	0.0000000E+000	0.0000000E+000	86.5886	0.0000000E+000	0.0000000E+000	0.0000000E+000	-86.5886	0.0000000E+000	0.0000000E+000	0.0000000E+000	-3.41142	0.0000000E+000	0.0000000E+000	0.0000000E+000	3.41142	16.7754	86.5886	0.00126108
152.703	0.128465	0.00670554	0.12864	-2.98798	25.8407	1.39309	5.7105	155431	422.332	1	65	0.0104211	0.0810097	0	0.0384225	32	0.00795522	7.76307	0.405212	7.77364	2.98798	422333	8.09105e+06	8.10207e+06	-87.012	0.0000000E+000	0.0000000E+000	0.0000000E+000	87.012	0.0000000E+000	0.0000000E+000	0.0000000E+000	-87.012	0.0000000E+000	0.0000000E+000	0.0000000E+000	-2.98798	0.0000000E+000	0.0000000E+000	0.0000000E+000	2.98798	19.158	87.012	0.00144303
125.764	0.129064	0.0059382	0.1292	-2.63431	26.5265	1.39308	5.57225	213112	450.185	1	65	0.0104166	0.0806235	0	0.039876	32	0.00776259	7.73174	0.355736	7.73992	2.63431	450186	9.78454e+06	9.79489e+06	-87.3657	0.0000000E+000	0.0000000E+000	0.0000000E+000	87.3657	0.0000000E+000	0.0000000E+000	0.0000000E+000	-87.3657	0.0000000E+000	0.0000000E+000	0.0000000E+000	-2.63431	0.0000000E+000	0.0000000E+000	0.0000000E+000	2.63431	21.7345	87.3657	0.00145347
103.641	0.12967	0.00510888	0.129771	-2.25623	27.2244	1.39308	5.69448	300583	465.865	1	65	0.0104155	0.0802605	0	0.0407277	32	0.00793287	7.6999	0.303368	7.70588	2.25623	465865	1.18243e+07	1.18335e+07	-87.7438	0.0000000E+000	0.0000000E+000	0.0000000E+000	87.7438	0.0000000E+000	0.0000000E+000	0.0000000E+000	-87.7438	0.0000000E+000	0.0000000E+000	0.0000000E+000	-2.25623	0.0000000E+000	0.0000000E+000	0.0000000E+000	2.25623	25.3814	87.7438	0.000851645
85.3553	0.130116	0.00454719	0.130196	-2.0015	27.9129	1.39309	5.75801	410059	500.193	1	65	0.0104283	0.0800969	0	0.0417117	32	0.00802143	7.67605	0.268255	7.68074	2.0015	500193	1.43129e+07	1.43216e+07	-87.9985	0.0000000E+000	0.0000000E+000	0.0000000E+000	87.9985	0.0000000E+000	0.0000000E+000	0.0000000E+000	-87.9985	0.0000000E+000	0.0000000E+000	0.0000000E+000	-2.0015	0.0000000E+000	0.0000000E+000	0.0000000E+000	2.0015	28.6147	87.9985	0.000984023
70.2925	0.1304	0.00393549	0.130459	-1.72867	28.6019	1.39308	5.76211	575323	523.552	1	65	0.0104167	0.0798466	0	0.0424355	32	0.0080271	7.66173	0.231232	7.66522	1.72867	523551	1.73475e+07	1.73554e+07	-88.2713	0.0000000E+000	0.0000000E+000	0.0000000E+000	88.2713	0.0000000E+000	0.0000000E+000	0.0000000E+000	-88.2713	0.0000000E+000	0.0000000E+000	0.0000000E+000	-1.72867	0.0000000E+000	0.0000000E+000	0.0000000E+000	1.72867	33.1343	88.2713	0.000723797
57.9061	0.130824	0.00356423	0.130872	-1.56061	29.315	1.39309	5.92645	771133	571.959	1	65	0.0104233	0.0796444	0	0.0439526	32	0.00825606	7.63819	0.208099	7.64103	1.56061	571959	2.09936e+07	2.10014e+07	-88.4394	0.0000000E+000	0.0000000E+000	0.0000000E+000	88.4394	0.0000000E+000	0.0000000E+000	0.0000000E+000	-88.4394	0.0000000E+000	0.0000000E+000	0.0000000E+000	-1.56061	0.0000000E+000	0.0000000E+000	0.0000000E+000	1.56061	36.7046	88.4394	0.00151713
47.6953	0.130953	0.00297622	0.130987	-1.30196	30.0344	1.39308	5.9216	1.12119e+06	578.837	1	65	0.0104156	0.0795167	0	0.0447932	32	0.00824924	7.6324	0.173465	7.63437	1.30196	578837	2.54686e+07	2.54752e+07	-88.698	0.0000000E+000	0.0000000E+000	0.0000000E+000	88.698	0.0000000E+000	0.0000000E+000	0.0000000E+000	-88.698	0.0000000E+000	0.0000000E+000	0.0000000E+000	-1.30196	0.0000000E+000	0.0000000E+000	0.0000000E+000	1.30196	43.9996	88.698	0.000840649
39.2835	0.131407	0.00266248	0.131434	-1.16073	30.7354	1.39308	5.90148	1.52168e+06	624.423	1	65	0.0104272	0.0793343	0	0.0459349	32	0.00822126	7.6068	0.154123	7.60836	1.16073	624424	3.08186e+07	3.08249e+07	-88.8393	0.0000000E+000	0.0000000E+000	0.0000000E+000	88.8393	0.0000000E+000	0.0000000E+000	0.0000000E+000	-88.8393	0.0000000E+000	0.0000000E+000	0.0000000E+000	-1.16073	0.0000000E+000	0.0000000E+000	0.0000000E+000	1.16073	49.3552	88.8393	0.00114164
32.3499	0.13128	0.0023672	0.131301	-1.03303	31.3822	1.39308	5.90055	2.07832e+06	675.528	1	65	0.0104059	0.0792518	0	0.0470925	32	0.00821994	7.61482	0.137308	7.61606	1.03303	675528	3.74634e+07	3.74695e+07	-88.967	0.0000000E+000	0.0000000E+000	0.0000000E+000	88.967	0.0000000E+000	0.0000000E+000	0.0000000E+000	-88.967	0.0000000E+000	0.0000000E+000	0.0000000E+000	-1.03303	0.0000000E+000	0.0000000E+000	0.0000000E+000	1.03303	55.4579	88.967	0.00115764
26.6457	0.131522	0.00206177	0.131538	-0.898108	32.0354	1.39308	5.87763	2.89704e+06	711.754	1	65	0.0104174	0.079197	0	0.0481853	32	0.00818799	7.60142	0.119162	7.60236	0.898108	711755	4.54034e+07	4.5409e+07	-89.1019	0.0000000E+000	0.0000000E+000	0.0000000E+000	89.1019	0.0000000E+000	0.0000000E+000	0.0000000E+000	-89.1019	0.0000000E+000	0.0000000E+000	0.0000000E+000	-0.898108	0.0000000E+000	0.0000000E+000	0.0000000E+000	0.898108	63.7909	89.1019	0.00109277
21.9452	0.131769	0.00194296	0.131783	-0.844775	32.672	1.39309	5.94377	3.73264e+06	811.376	1	65	0.0104241	0.0791004	0	0.0488268	32	0.0082802	7.58738	0.111877	7.58821	0.844775	811373	5.50265e+07	5.50325e+07	-89.1552	0.0000000E+000	0.0000000E+000	0.0000000E+000	89.1552	0.0000000E+000	0.0000000E+000	0.0000000E+000	-89.1552	0.0000000E+000	0.0000000E+000	0.0000000E+000	-0.844775	0.0000000E+000	0.0000000E+000	0.0000000E+000	0.844775	67.8188	89.1552	0.000641495
18.0845	0.131883	0.00173418	0.131894	-0.75336	33.4269	1.39309	5.93371	5.07482e+06	877.315	1	65	0.010418	0.0789877	0	0.0500181	32	0.00826618	7.58118	0.0996877	7.58183	0.75336	877311	6.67191e+07	6.67249e+07	-89.2466	0.0000000E+000	0.0000000E+000	0.0000000E+000	89.2466	0.0000000E+000	0.0000000E+000	0.0000000E+000	-89.2466	0.0000000E+000	0.0000000E+000	0.0000000E+000	-0.75336	0.0000000E+000	0.0000000E+000	0.0000000E+000	0.75336	76.0493	89.2466	0.00119133
14.8904	0.132054	0.00155622	0.132063	-0.675181	34.1213	1.39308	5.95085	6.8682e+06	953.714	1	65	0.0104134	0.0788519	0	0.0509999	32	0.00829003	7.5716	0.0892289	7.57212	0.675181	953710	8.09283e+07	8.09339e+07	-89.3248	0.0000000E+000	0.0000000E+000	0.0000000E+000	89.3248	0.0000000E+000	0.0000000E+000	0.0000000E+000	-89.3248	0.0000000E+000	0.0000000E+000	0.0000000E+000	-0.675181	0.0000000E+000	0.0000000E+000	0.0000000E+000	0.675181	84.8559	89.3248	0.000981763
12.2645	0.134395	0.00144785	0.134403	-0.617229	34.9288	1.39309	7.42606	8.96284e+06	1040.1	1	37	0.0104209	0.0775348	0	0.0526729	32	0.0103451	7.4399	0.0801507	7.44033	0.617229	1.0401e+06	9.65462e+07	9.65518e+07	-89.3828	0.0000000E+000	0.0000000E+000	0.0000000E+000	89.3828	0.0000000E+000	0.0000000E+000	0.0000000E+000	-89.3828	0.0000000E+000	0.0000000E+000	0.0000000E+000	-0.617229	0.0000000E+000	0.0000000E+000	0.0000000E+000	0.617229	92.8239	89.3828	0.00167299
10.1067	0.134592	0.00126466	0.134598	-0.538348	35.6146	1.39308	5.6238	1.2452e+07	1099.27	1	37	0.0104286	0.0774798	0	0.0537328	32	0.00783441	7.4292	0.0698064	7.42953	0.538348	1.09927e+06	1.16991e+08	1.16996e+08	-89.4617	0.0000000E+000	0.0000000E+000	0.0000000E+000	89.4617	0.0000000E+000	0.0000000E+000	0.0000000E+000	-89.4617	0.0000000E+000	0.0000000E+000	0.0000000E+000	-0.538348	0.0000000E+000	0.0000000E+000	0.0000000E+000	0.538348	106.426	89.4617	0.00105995
8.31999	0.134499	0.00109963	0.134504	-0.468424	36.4282	1.39309	5.58193	1.73961e+07	1162.72	1	37	0.0104167	0.0774452	0	0.0554268	32	0.00777611	7.4345	0.0607824	7.43475	0.468424	1.16272e+06	1.42216e+08	1.42221e+08	-89.5316	0.0000000E+000	0.0000000E+000	0.0000000E+000	89.5316	0.0000000E+000	0.0000000E+000	0.0000000E+000	-89.5316	0.0000000E+000	0.0000000E+000	0.0000000E+000	-0.468424	0.0000000E+000	0.0000000E+000	0.0000000E+000	0.468424	122.313	89.5316	0.00169402
6.85307	0.134684	0.000998487	0.134688	-0.424757	36.9557	1.39309	5.75279	2.32591e+07	1278.26	1	37	0.0104212	0.0773727	0	0.055772	32	0.00801414	7.42437	0.0550409	7.42458	0.424757	1.27827e+06	1.72423e+08	1.72427e+08	-89.5752	0.0000000E+000	0.0000000E+000	0.0000000E+000	89.5752	0.0000000E+000	0.0000000E+000	0.0000000E+000	-89.5752	0.0000000E+000	0.0000000E+000	0.0000000E+000	-0.424757	0.0000000E+000	0.0000000E+000	0.0000000E+000	0.424757	134.888	89.5752	0.000345153
5.64487	0.134681	0.000951392	0.134684	-0.404733	37.5799	1.39309	5.73766	2.96351e+07	1478.74	1	37	0.0104211	0.077374	0	0.0570011	32	0.00799306	7.42458	0.0524475	7.42476	0.404733	1.47873e+06	2.09333e+08	2.09338e+08	-89.5953	0.0000000E+000	0.0000000E+000	0.0000000E+000	89.5953	0.0000000E+000	0.0000000E+000	0.0000000E+000	-89.5953	0.0000000E+000	0.0000000E+000	0.0000000E+000	-0.404733	0.0000000E+000	0.0000000E+000	0.0000000E+000	0.404733	141.562	89.5953	0.00122911
4.65029	0.134933	0.0010416	0.134937	-0.442281	38.3168	1.39308	5.71313	3.28578e+07	1957.86	1	37	0.0104255	0.0772618	0	0.0576811	32	0.00795887	7.41066	0.0572059	7.41088	0.442281	1.95787e+06	2.53628e+08	2.53635e+08	-89.5577	0.0000000E+000	0.0000000E+000	0.0000000E+000	89.5577	0.0000000E+000	0.0000000E+000	0.0000000E+000	-89.5577	0.0000000E+000	0.0000000E+000	0.0000000E+000	-0.442281	0.0000000E+000	0.0000000E+000	0.0000000E+000	0.442281	129.544	89.5577	0.000679985
3.82966	0.134932	0.00086172	0.134935	-0.365905	39.1949	1.39308	5.74725	4.82274e+07	1966.89	1	37	0.0104193	0.0772173	0	0.0603363	32	0.00800639	7.41085	0.0473282	7.411	0.365905	1.96689e+06	3.07984e+08	3.0799e+08	-89.6341	0.0000000E+000	0.0000000E+000	0.0000000E+000	89.6341	0.0000000E+000	0.0000000E+000	0.0000000E+000	-89.6341	0.0000000E+000	0.0000000E+000	0.0000000E+000	-0.365905	0.0000000E+000	0.0000000E+000	0.0000000E+000	0.365905	156.584	89.6341	0.00265522
3.15529	0.134843	0.000769799	0.134846	-0.327089	40.2427	1.39307	5.79594	6.55245e+07	2135.43	1	37	0.0104174	0.0772547	0	0.060531	32	0.00807416	7.41577	0.0423355	7.41589	0.327089	2.13542e+06	3.74056e+08	3.74063e+08	-89.6729	0.0000000E+000	0.0000000E+000	0.0000000E+000	89.6729	0.0000000E+000	0.0000000E+000	0.0000000E+000	-89.6729	0.0000000E+000	0.0000000E+000	0.0000000E+000	-0.327089	0.0000000E+000	0.0000000E+000	0.0000000E+000	0.327089	175.167	89.6729	0.000194677
2.59897	0.134955	0.000784347	0.134957	-0.332994	41.4996	1.39307	5.74624	7.80747e+07	2637.15	1	37	0.0104182	0.0771961	0	0.0621755	32	0.00800491	7.40963	0.0430641	7.40975	0.332994	2.63713e+06	4.53748e+08	4.53756e+08	-89.667	0.0000000E+000	0.0000000E+000	0.0000000E+000	89.667	0.0000000E+000	0.0000000E+000	0.0000000E+000	-89.667	0.0000000E+000	0.0000000E+000	0.0000000E+000	-0.332994	0.0000000E+000	0.0000000E+000	0.0000000E+000	0.332994	172.06	89.667	0.0016445
2.14159	0.135031	0.000835789	0.135034	-0.354634	43.0108	1.39308	5.87795	8.89176e+07	3406.41	1	37	0.010419	0.0771583	0	0.0666265	32	0.00818849	7.40542	0.0458367	7.40557	0.354634	3.40645e+06	5.50344e+08	5.50355e+08	-89.6454	0.0000000E+000	0.0000000E+000	0.0000000E+000	89.6454	0.0000000E+000	0.0000000E+000	0.0000000E+000	-89.6454	0.0000000E+000	0.0000000E+000	0.0000000E+000	-0.354634	0.0000000E+000	0.0000000E+000	0.0000000E+000	0.354634	161.561	89.6454	0.00445101
1.76354	0.135104	0.000855087	0.135107	-0.362626	44.831	1.39307	5.784	1.05542e+08	4227.56	1	37	0.0104165	0.077098	0	0.0702231	32	0.0080575	7.4014	0.0468442	7.40155	0.362626	4.22755e+06	6.67956e+08	6.67969e+08	-89.6374	0.0000000E+000	0.0000000E+000	0.0000000E+000	89.6374	0.0000000E+000	0.0000000E+000	0.0000000E+000	-89.6374	0.0000000E+000	0.0000000E+000	0.0000000E+000	-0.362626	0.0000000E+000	0.0000000E+000	0.0000000E+000	0.362626	158	89.6374	0.00359663
1.4516	0.135266	0.00089163	0.135269	-0.377671	47.029	1.39307	5.8528	1.22967e+08	5342.75	1	37	0.0104229	0.0770535	0	0.0716686	32	0.00815337	7.39253	0.0487293	7.39269	0.377671	5.34274e+06	8.10527e+08	8.10545e+08	-89.6223	0.0000000E+000	0.0000000E+000	0.0000000E+000	89.6223	0.0000000E+000	0.0000000E+000	0.0000000E+000	-89.6223	0.0000000E+000	0.0000000E+000	0.0000000E+000	-0.377671	0.0000000E+000	0.0000000E+000	0.0000000E+000	0.377671	151.706	89.6223	0.0014455
1.19622	0.135435	0.000897891	0.135438	-0.379848	49.6821	1.39307	5.94475	1.48179e+08	6512.58	1	37	0.0104219	0.0769495	0	0.0736454	32	0.00828145	7.38331	0.048949	7.38347	0.379848	6.51252e+06	9.82335e+08	9.82357e+08	-89.6202	0.0000000E+000	0.0000000E+000	0.0000000E+000	89.6202	0.0000000E+000	0.0000000E+000	0.0000000E+000	-89.6202	0.0000000E+000	0.0000000E+000	0.0000000E+000	-0.379848	0.0000000E+000	0.0000000E+000	0.0000000E+000	0.379848	150.837	89.6202	0.00197681
0.985309	0.135614	0.000980614	0.135617	-0.414295	52.889	1.39308	6.09075	1.64721e+08	8612.25	1	37	0.0104202	0.0768352	0	0.0792624	32	0.00848487	7.37351	0.0533174	7.3737	0.414295	8.61217e+06	1.19103e+09	1.19106e+09	-89.5857	0.0000000E+000	0.0000000E+000	0.0000000E+000	89.5857	0.0000000E+000	0.0000000E+000	0.0000000E+000	-89.5857	0.0000000E+000	0.0000000E+000	0.0000000E+000	-0.414295	0.0000000E+000	0.0000000E+000	0.0000000E+000	0.414295	138.295	89.5857	0.005617
0.811689	0.135776	0.00100805	0.135779	-0.425376	56.7694	1.39308	6.22354	1.94514e+08	10721.2	1	37	0.0104193	0.0767369	0	0.0891251	32	0.00866988	7.36468	0.0546779	7.36488	0.425376	1.07212e+07	1.44406e+09	1.4441e+09	-89.5746	0.0000000E+000	0.0000000E+000	0.0000000E+000	89.5746	0.0000000E+000	0.0000000E+000	0.0000000E+000	-89.5746	0.0000000E+000	0.0000000E+000	0.0000000E+000	-0.425376	0.0000000E+000	0.0000000E+000	0.0000000E+000	0.425376	134.692	89.5746	0.00986264
0.668478	0.135944	0.000986158	0.135948	-0.415624	61.4663	1.39307	6.29914	2.41427e+08	12703.8	1	37	0.0104167	0.0766225	0	0.101159	32	0.00877517	7.35556	0.0533582	7.35575	0.415624	1.27039e+07	1.75125e+09	1.7513e+09	-89.5844	0.0000000E+000	0.0000000E+000	0.0000000E+000	89.5844	0.0000000E+000	0.0000000E+000	0.0000000E+000	-89.5844	0.0000000E+000	0.0000000E+000	0.0000000E+000	-0.415624	0.0000000E+000	0.0000000E+000	0.0000000E+000	0.415624	137.853	89.5844	0.0120337
0.550486	0.136159	0.000873464	0.136162	-0.367549	67.1582	1.39307	6.41439	3.31001e+08	13621	1	37	0.0104244	0.0765592	0	0.112371	32	0.00893568	7.34406	0.0471123	7.34421	0.367549	1.36209e+07	2.12329e+09	2.12334e+09	-89.6325	0.0000000E+000	0.0000000E+000	0.0000000E+000	89.6325	0.0000000E+000	0.0000000E+000	0.0000000E+000	-89.6325	0.0000000E+000	0.0000000E+000	0.0000000E+000	-0.367549	0.0000000E+000	0.0000000E+000	0.0000000E+000	0.367549	155.884	89.6325	0.0112117
0.453687	0.136197	0.000752325	0.136199	-0.316488	74.0521	1.39307	6.5095	4.66292e+08	14227.3	1	37	0.0104194	0.0765013	0	0.121404	32	0.00906818	7.34211	0.0405565	7.34222	0.316488	1.42274e+07	2.57563e+09	2.57567e+09	-89.6835	0.0000000E+000	0.0000000E+000	0.0000000E+000	89.6835	0.0000000E+000	0.0000000E+000	0.0000000E+000	-89.6835	0.0000000E+000	0.0000000E+000	0.0000000E+000	-0.316488	0.0000000E+000	0.0000000E+000	0.0000000E+000	0.316488	181.034	89.6835	0.00903381
0.373732	0.136376	0.000611905	0.136378	-0.257078	82.409	1.39309	6.88078	6.95945e+08	14010.6	1	37	0.0104182	0.076392	0	0.130436	32	0.00958552	7.33251	0.0329002	7.33258	0.257078	1.40107e+07	3.12257e+09	3.1226e+09	-89.7429	0.0000000E+000	0.0000000E+000	0.0000000E+000	89.7429	0.0000000E+000	0.0000000E+000	0.0000000E+000	-89.7429	0.0000000E+000	0.0000000E+000	0.0000000E+000	-0.257078	0.0000000E+000	0.0000000E+000	0.0000000E+000	0.257078	222.871	89.7429	0.00903145
0.307821	0.13645	0.000583489	0.136451	-0.245007	92.5438	1.39309	7.09262	8.86112e+08	16203.1	1	37	0.0104189	0.076356	0	0.144235	32	0.00988064	7.32855	0.0313384	7.32862	0.245007	1.62033e+07	3.78913e+09	3.78916e+09	-89.755	0.0000000E+000	0.0000000E+000	0.0000000E+000	89.755	0.0000000E+000	0.0000000E+000	0.0000000E+000	-89.755	0.0000000E+000	0.0000000E+000	0.0000000E+000	-0.245007	0.0000000E+000	0.0000000E+000	0.0000000E+000	0.245007	233.852	89.755	0.0137992
0.253521	0.136477	0.00050932	0.136478	-0.213821	104.836	1.39307	7.26499	1.23258e+09	17166	1	37	0.0104187	0.0763399	0	0.168175	32	0.0101207	7.32712	0.0273441	7.32717	0.213821	1.7166e+07	4.5998e+09	4.59984e+09	-89.7862	0.0000000E+000	0.0000000E+000	0.0000000E+000	89.7862	0.0000000E+000	0.0000000E+000	0.0000000E+000	-89.7862	0.0000000E+000	0.0000000E+000	0.0000000E+000	-0.213821	0.0000000E+000	0.0000000E+000	0.0000000E+000	0.213821	267.96	89.7862	0.0239399
0.208645	0.136429	0.000433061	0.13643	-0.181871	119.761	1.39308	7.64412	1.76142e+09	17747.7	1	37	0.0104159	0.0763459	0	0.206283	32	0.0106488	7.32973	0.0232664	7.32977	0.181871	1.77476e+07	5.59115e+09	5.59118e+09	-89.8181	0.0000000E+000	0.0000000E+000	0.0000000E+000	89.8181	0.0000000E+000	0.0000000E+000	0.0000000E+000	-89.8181	0.0000000E+000	0.0000000E+000	0.0000000E+000	-0.181871	0.0000000E+000	0.0000000E+000	0.0000000E+000	0.181871	315.034	89.8181	0.0381083
0.172002	0.136428	0.000466721	0.136429	-0.196008	137.853	1.39308	7.89168	1.98258e+09	23202.2	1	37	0.0104197	0.0763746	0	0.258487	32	0.0109937	7.32976	0.0250751	7.32981	0.196008	2.32021e+07	6.7823e+09	6.78234e+09	-89.804	0.0000000E+000	0.0000000E+000	0.0000000E+000	89.804	0.0000000E+000	0.0000000E+000	0.0000000E+000	-89.804	0.0000000E+000	0.0000000E+000	0.0000000E+000	-0.196008	0.0000000E+000	0.0000000E+000	0.0000000E+000	0.196008	292.313	89.804	0.0522036
0.141569	0.13646	0.000373424	0.13646	-0.15679	159.822	1.39309	8.31192	3.01058e+09	22544.5	1	37	0.0104231	0.0763818	0	0.321825	32	0.0115793	7.32812	0.0200535	7.32815	0.15679	2.25447e+07	8.23842e+09	8.23845e+09	-89.8432	0.0000000E+000	0.0000000E+000	0.0000000E+000	89.8432	0.0000000E+000	0.0000000E+000	0.0000000E+000	-89.8432	0.0000000E+000	0.0000000E+000	0.0000000E+000	-0.15679	0.0000000E+000	0.0000000E+000	0.0000000E+000	0.15679	365.429	89.8432	0.0633381
0.116619	0.136425	0.00014975	0.136425	-0.062892	186.48	1.3931	8.79102	9.11347e+09	10980.7	1	37	0.010419	0.0763714	0	0.391598	32	0.0122468	7.33001	0.00804595	7.33001	0.062892	1.09802e+07	1.00036e+10	1.00036e+10	-89.9371	0.0000000E+000	0.0000000E+000	0.0000000E+000	89.9371	0.0000000E+000	0.0000000E+000	0.0000000E+000	-89.9371	0.0000000E+000	0.0000000E+000	0.0000000E+000	-0.062892	0.0000000E+000	0.0000000E+000	0.0000000E+000	0.062892	911.018	89.9371	0.0697733
0.0960805	0.136166	-8.36711e-05	0.136166	0.035207	218.825	1.3931	9.35877	-1.97975e+10	-7475.2	1	37	0.0104199	0.0765235	0	0.464786	32	0.0130377	7.34397	-0.00451271	7.34397	-0.035207	-7.47576e+06	1.21651e+10	1.21651e+10	-90.0352	0.0000000E+000	0.0000000E+000	0.0000000E+000	90.0352	0.0000000E+000	0.0000000E+000	0.0000000E+000	-90.0352	0.0000000E+000	0.0000000E+000	0.0000000E+000	0.035207	0.0000000E+000	0.0000000E+000	0.0000000E+000	-0.035207	1627.4	89.9648	0.0731875
0.0791155	0.135978	-7.24787e-05	0.135978	0.0305397	258.094	1.39309	9.89459	-2.77555e+10	-7885.58	1	37	0.0104183	0.0766175	0	0.546177	32	0.013784	7.35415	-0.0039199	7.35415	-0.0305397	-7.88577e+06	1.47942e+10	1.47942e+10	-90.0305	0.0000000E+000	0.0000000E+000	0.0000000E+000	90.0305	0.0000000E+000	0.0000000E+000	0.0000000E+000	-90.0305	0.0000000E+000	0.0000000E+000	0.0000000E+000	0.0305397	0.0000000E+000	0.0000000E+000	0.0000000E+000	-0.0305397	1876.11	89.9695	0.0813917
0.0651868	0.135817	-3.90909e-05	0.135817	0.0164909	305.742	1.39308	10.5484	-6.24576e+10	-5174.02	1	37	0.0104224	0.0767383	0	0.649507	32	0.0146947	7.36285	-0.00211918	7.36285	-0.0164909	-5.17284e+06	1.79766e+10	1.79766e+10	-90.0165	0.0000000E+000	0.0000000E+000	0.0000000E+000	90.0165	0.0000000E+000	0.0000000E+000	0.0000000E+000	-90.0165	0.0000000E+000	0.0000000E+000	0.0000000E+000	0.0164909	0.0000000E+000	0.0000000E+000	0.0000000E+000	-0.0164909	3474.39	89.9835	0.10333
0.0536897	0.135713	0.000134692	0.135713	-0.0568649	363.581	1.39309	11.3603	2.20083e+10	21678.5	1	37	0.0104183	0.0767673	0	0.802241	32	0.015826	7.36848	0.00731308	7.36849	0.0568649	2.16773e+07	2.18427e+10	2.18428e+10	-89.9431	0.0000000E+000	0.0000000E+000	0.0000000E+000	89.9431	0.0000000E+000	0.0000000E+000	0.0000000E+000	-89.9431	0.0000000E+000	0.0000000E+000	0.0000000E+000	-0.0568649	0.0000000E+000	0.0000000E+000	0.0000000E+000	0.0568649	1007.58	89.9431	0.152734
0.0442372	0.135642	0.000301687	0.135643	-0.127433	433.764	1.39308	12.2007	1.19255e+10	58992.5	1	37	0.0104222	0.0768357	0	1.03647	32	0.0169966	7.37229	0.016397	7.37231	0.127433	5.89927e+07	2.65238e+10	2.65239e+10	-89.8726	0.0000000E+000	0.0000000E+000	0.0000000E+000	89.8726	0.0000000E+000	0.0000000E+000	0.0000000E+000	-89.8726	0.0000000E+000	0.0000000E+000	0.0000000E+000	-0.127433	0.0000000E+000	0.0000000E+000	0.0000000E+000	0.127433	449.613	89.8726	0.234233
0.036443	0.135394	0.000505746	0.135395	-0.214019	518.95	1.39307	13.1591	8.63524e+09	120485	1	37	0.0104254	0.0769995	0	1.37956	32	0.0183315	7.38573	0.0275883	7.38578	0.214019	1.20485e+08	3.22552e+10	3.22554e+10	-89.786	0.0000000E+000	0.0000000E+000	0.0000000E+000	89.786	0.0000000E+000	0.0000000E+000	0.0000000E+000	-89.786	0.0000000E+000	0.0000000E+000	0.0000000E+000	-0.214019	0.0000000E+000	0.0000000E+000	0.0000000E+000	0.214019	267.712	89.786	0.343082
0.0299919	0.135278	0.000614634	0.135279	-0.260322	622.451	1.39307	14.4189	8.63376e+09	178226	1	37	0.0104243	0.0770579	0	1.85326	32	0.0200865	7.39205	0.0335858	7.39213	0.260322	1.78227e+08	3.92267e+10	3.92271e+10	-89.7397	0.0000000E+000	0.0000000E+000	0.0000000E+000	89.7397	0.0000000E+000	0.0000000E+000	0.0000000E+000	-89.7397	0.0000000E+000	0.0000000E+000	0.0000000E+000	-0.260322	0.0000000E+000	0.0000000E+000	0.0000000E+000	0.260322	220.095	89.7397	0.473708
199998	0.0689399	-0.0231253	0.0727151	18.5436	623.299	1.3932	-1.54532	-34.4117	-3.48043	2	65	0.00990858	0.136266	0	1.85398	32	-0.00215293	13.0383	-4.37359	13.7523	-18.5436	-3480.43	10375.6	10943.8	-108.544	0.0000000E+000	0.0000000E+000	0.0000000E+000	108.544	0.0000000E+000	0.0000000E+000	0.0000000E+000	-108.544	0.0000000E+000	0.0000000E+000	0.0000000E+000	18.5436	0.0000000E+000	0.0000000E+000	0.0000000E+000	-18.5436	2.98114	71.4564	0.000712281
164731	0.0701141	-0.0178907	0.0723606	14.3144	623.873	1.39318	16.07	-54.0032	-3.30117	2	65	0.0104663	0.144641	0	1.85632	32	0.0223885	13.3906	-3.41682	13.8197	-14.3144	-3301.17	12937.4	13351.9	-104.314	0.0000000E+000	0.0000000E+000	0.0000000E+000	104.314	0.0000000E+000	0.0000000E+000	0.0000000E+000	-104.314	0.0000000E+000	0.0000000E+000	0.0000000E+000	14.3144	0.0000000E+000	0.0000000E+000	0.0000000E+000	-14.3144	3.91903	75.6856	0.00234532
135689	0.0710878	-0.0135367	0.0723652	10.7813	624.446	1.39319	16.0073	-86.6489	-3.03201	2	65	0.0105592	0.145916	0	1.86052	32	0.0223012	13.5749	-2.58496	13.8188	-10.7813	-3032.01	15922.5	16208.6	-100.781	0.0000000E+000	0.0000000E+000	0.0000000E+000	100.781	0.0000000E+000	0.0000000E+000	0.0000000E+000	-100.781	0.0000000E+000	0.0000000E+000	0.0000000E+000	10.7813	0.0000000E+000	0.0000000E+000	0.0000000E+000	-10.7813	5.25148	79.2187	0.00420231
111760	0.0718847	-0.00990181	0.0725634	7.84289	625.02	1.39318	15.9051	-143.821	-2.67802	2	65	0.0105717	0.145689	0	1.86283	32	0.0221587	13.6521	-1.88052	13.781	-7.84289	-2678.02	19441.8	19625.4	-97.8429	0.0000000E+000	0.0000000E+000	0.0000000E+000	97.8429	0.0000000E+000	0.0000000E+000	0.0000000E+000	-97.8429	0.0000000E+000	0.0000000E+000	0.0000000E+000	7.84289	0.0000000E+000	0.0000000E+000	0.0000000E+000	-7.84289	7.25975	82.1571	0.00230421
92052	0.072651	-0.00677262	0.072966	5.32579	625.593	1.39319	15.8843	-255.288	-2.19939	2	65	0.0105672	0.144824	0	1.86596	32	0.0221299	13.6458	-1.27208	13.705	-5.32579	-2199.39	23593.2	23695.5	-95.3258	0.0000000E+000	0.0000000E+000	0.0000000E+000	95.3258	0.0000000E+000	0.0000000E+000	0.0000000E+000	-95.3258	0.0000000E+000	0.0000000E+000	0.0000000E+000	5.32579	0.0000000E+000	0.0000000E+000	0.0000000E+000	-5.32579	10.7272	84.6742	0.0031273
75823.9	0.0733505	-0.00416223	0.0734685	3.24773	626.166	1.39319	15.8891	-504.298	-1.61859	2	65	0.0105676	0.143838	0	1.86835	32	0.0221366	13.5894	-0.771123	13.6113	-3.24773	-1618.59	28524.3	28570.1	-93.2477	0.0000000E+000	0.0000000E+000	0.0000000E+000	93.2477	0.0000000E+000	0.0000000E+000	0.0000000E+000	-93.2477	0.0000000E+000	0.0000000E+000	0.0000000E+000	3.24773	0.0000000E+000	0.0000000E+000	0.0000000E+000	-3.24773	17.6229	86.7523	0.0023978
62453.6	0.0740992	-0.00172638	0.0741193	1.33465	626.739	1.39319	15.8245	-1476.13	-0.800824	2	65	0.0105517	0.142361	0	1.87148	32	0.0220464	13.4881	-0.314249	13.4918	-1.33465	-800.822	34372.7	34382	-91.3346	0.0000000E+000	0.0000000E+000	0.0000000E+000	91.3346	0.0000000E+000	0.0000000E+000	0.0000000E+000	-91.3346	0.0000000E+000	0.0000000E+000	0.0000000E+000	1.33465	0.0000000E+000	0.0000000E+000	0.0000000E+000	-1.33465	42.9216	88.6654	0.00312234
51440	0.0748429	0.000375982	0.0748439	-0.28783	627.312	1.39319	15.7429	8229.09	0.20767	2	65	0.0105223	0.14059	0	1.87554	32	0.0219328	13.361	0.0671204	13.3611	0.28783	207.668	41338.7	41339.2	-89.7122	0.0000000E+000	0.0000000E+000	0.0000000E+000	89.7122	0.0000000E+000	0.0000000E+000	0.0000000E+000	-89.7122	0.0000000E+000	0.0000000E+000	0.0000000E+000	-0.28783	0.0000000E+000	0.0000000E+000	0.0000000E+000	0.28783	199.06	89.7122	0.00406032
42374.9	0.0757721	0.00227684	0.0758063	-1.72114	627.884	1.39317	15.9079	1649.6	1.4881	2	65	0.0105147	0.138705	0	1.87658	32	0.0221625	13.1856	0.396207	13.1915	1.72114	1488.1	49523.3	49545.7	-88.2789	0.0000000E+000	0.0000000E+000	0.0000000E+000	88.2789	0.0000000E+000	0.0000000E+000	0.0000000E+000	-88.2789	0.0000000E+000	0.0000000E+000	0.0000000E+000	-1.72114	0.0000000E+000	0.0000000E+000	0.0000000E+000	1.72114	33.2795	88.2789	0.00104648
34896.4	0.0767152	0.00407761	0.0768235	-3.04255	628.458	1.39318	15.8861	1118.49	3.15106	2	65	0.0104788	0.1364	0	1.88062	32	0.0221323	12.9985	0.690903	13.0168	3.04255	3151.06	59283.3	59366.9	-86.9574	0.0000000E+000	0.0000000E+000	0.0000000E+000	86.9574	0.0000000E+000	0.0000000E+000	0.0000000E+000	-86.9574	0.0000000E+000	0.0000000E+000	0.0000000E+000	-3.04255	0.0000000E+000	0.0000000E+000	0.0000000E+000	3.04255	18.8138	86.9574	0.00403582
28744.8	0.0778614	0.00563532	0.0780651	-4.13964	629.032	1.39316	15.8671	982.522	5.11995	2	65	0.0104684	0.134098	0	1.88275	32	0.0221055	12.7764	0.924708	12.8098	4.13964	5119.95	70740.7	70925.8	-85.8604	0.0000000E+000	0.0000000E+000	0.0000000E+000	85.8604	0.0000000E+000	0.0000000E+000	0.0000000E+000	-85.8604	0.0000000E+000	0.0000000E+000	0.0000000E+000	-4.13964	0.0000000E+000	0.0000000E+000	0.0000000E+000	4.13964	13.8167	85.8604	0.00212844
23678.7	0.0790361	0.00717505	0.0793611	-5.1872	629.605	1.39318	15.9836	936.778	7.65722	2	65	0.0104335	0.131469	0	1.88458	32	0.0222681	12.549	1.13923	12.6006	5.1872	7657.22	84347.4	84694.2	-84.8128	0.0000000E+000	0.0000000E+000	0.0000000E+000	84.8128	0.0000000E+000	0.0000000E+000	0.0000000E+000	-84.8128	0.0000000E+000	0.0000000E+000	0.0000000E+000	-5.1872	0.0000000E+000	0.0000000E+000	0.0000000E+000	5.1872	11.0154	84.8128	0.00183135
19503.4	0.0804049	0.00846026	0.0808488	-6.0066	630.179	1.39317	15.7922	964.552	10.562	2	65	0.0104029	0.128671	0	1.88579	32	0.0220013	12.3009	1.29431	12.3688	6.0066	10562	100380	100934	-83.9934	0.0000000E+000	0.0000000E+000	0.0000000E+000	83.9934	0.0000000E+000	0.0000000E+000	0.0000000E+000	-83.9934	0.0000000E+000	0.0000000E+000	0.0000000E+000	-6.0066	0.0000000E+000	0.0000000E+000	0.0000000E+000	6.0066	9.50383	83.9934	0.00121699
16061.1	0.0818245	0.00971592	0.0823994	-6.77165	630.752	1.39317	15.7341	1019.91	14.1802	2	65	0.0103657	0.125799	0	1.88862	32	0.0219204	12.0514	1.43099	12.136	6.77165	14180.2	119421	120260	-83.2283	0.0000000E+000	0.0000000E+000	0.0000000E+000	83.2283	0.0000000E+000	0.0000000E+000	0.0000000E+000	-83.2283	0.0000000E+000	0.0000000E+000	0.0000000E+000	-6.77165	0.0000000E+000	0.0000000E+000	0.0000000E+000	6.77165	8.42169	83.2283	0.00282978
13231.1	0.0833523	0.0109093	0.0840632	-7.45656	631.324	1.39318	15.8994	1102.62	18.5698	2	65	0.0103225	0.122794	0	1.89145	32	0.0221506	11.7952	1.54377	11.8958	7.45656	18569.8	141882	143093	-82.5434	0.0000000E+000	0.0000000E+000	0.0000000E+000	82.5434	0.0000000E+000	0.0000000E+000	0.0000000E+000	-82.5434	0.0000000E+000	0.0000000E+000	0.0000000E+000	-7.45656	0.0000000E+000	0.0000000E+000	0.0000000E+000	7.45656	7.64051	82.5434	0.00282215
10902.2	0.0850499	0.0119939	0.0858914	-8.02702	631.898	1.39318	15.9057	1217.15	23.7337	2	65	0.0102481	0.119314	0	1.89371	32	0.0221596	11.5285	1.62577	11.6426	8.02702	23733.7	168298	169963	-81.973	0.0000000E+000	0.0000000E+000	0.0000000E+000	81.973	0.0000000E+000	0.0000000E+000	0.0000000E+000	-81.973	0.0000000E+000	0.0000000E+000	0.0000000E+000	-8.02702	0.0000000E+000	0.0000000E+000	0.0000000E+000	8.02702	7.0911	81.973	0.00225867
8974.76	0.0869093	0.0127831	0.0878444	-8.3674	632.494	1.3931	15.2137	1387.27	29.3769	2	65	0.0103961	0.118347	0	1.89565	32	0.0211942	11.2626	1.65657	11.3838	8.3674	29376.9	199726	201875	-81.6326	0.0000000E+000	0.0000000E+000	0.0000000E+000	81.6326	0.0000000E+000	0.0000000E+000	0.0000000E+000	-81.6326	0.0000000E+000	0.0000000E+000	0.0000000E+000	-8.3674	0.0000000E+000	0.0000000E+000	0.0000000E+000	8.3674	6.79875	81.6326	0.00194064
7394.87	0.0887828	0.0137445	0.0898404	-8.80013	633.183	1.39309	15.1474	1565.89	36.6501	2	65	0.0102076	0.11362	0	1.89815	32	0.0211017	10.9998	1.70289	11.1309	8.80013	36650.1	236742	239562	-81.1999	0.0000000E+000	0.0000000E+000	0.0000000E+000	81.1999	0.0000000E+000	0.0000000E+000	0.0000000E+000	-81.1999	0.0000000E+000	0.0000000E+000	0.0000000E+000	-8.80013	0.0000000E+000	0.0000000E+000	0.0000000E+000	8.80013	6.45951	81.1999	0.0025047
6087.59	0.0907602	0.0145325	0.0919163	-9.09697	633.983	1.39309	15.1858	1799.01	44.9707	2	65	0.0101678	0.11062	0	1.90138	32	0.0211551	10.7426	1.72011	10.8795	9.09697	44970.8	280857	284434	-80.903	0.0000000E+000	0.0000000E+000	0.0000000E+000	80.903	0.0000000E+000	0.0000000E+000	0.0000000E+000	-80.903	0.0000000E+000	0.0000000E+000	0.0000000E+000	-9.09697	0.0000000E+000	0.0000000E+000	0.0000000E+000	9.09697	6.24533	80.903	0.00323392
5016.6	0.0929368	0.015196	0.0941709	-9.28617	634.676	1.39308	15.1733	2087.77	54.3632	2	65	0.0110036	0.116847	0	1.90402	32	0.0211376	10.4798	1.71354	10.619	9.28617	54363.2	332479	336894	-80.7138	0.0000000E+000	0.0000000E+000	0.0000000E+000	80.7138	0.0000000E+000	0.0000000E+000	0.0000000E+000	-80.7138	0.0000000E+000	0.0000000E+000	0.0000000E+000	-9.28617	0.0000000E+000	0.0000000E+000	0.0000000E+000	9.28617	6.11589	80.7138	0.00263674
4131.32	0.0950296	0.015748	0.0963256	-9.40937	635.6	1.39308	15.0231	2446.27	65.3843	2	65	0.0101554	0.105428	0	1.90767	32	0.0209284	10.2418	1.69724	10.3815	9.40937	65384.3	394554	399935	-80.5906	0.0000000E+000	0.0000000E+000	0.0000000E+000	80.5906	0.0000000E+000	0.0000000E+000	0.0000000E+000	-80.5906	0.0000000E+000	0.0000000E+000	0.0000000E+000	-9.40937	0.0000000E+000	0.0000000E+000	0.0000000E+000	9.40937	6.03438	80.5906	0.00365176
3403.91	0.0973244	0.0162969	0.0986794	-9.50596	636.291	1.39308	15.0511	2869.04	78.2518	2	65	0.0104781	0.106184	0	1.91083	32	0.0209673	9.99467	1.6736	10.1338	9.50596	78251.8	467316	473822	-80.494	0.0000000E+000	0.0000000E+000	0.0000000E+000	80.494	0.0000000E+000	0.0000000E+000	0.0000000E+000	-80.494	0.0000000E+000	0.0000000E+000	0.0000000E+000	-9.50596	0.0000000E+000	0.0000000E+000	0.0000000E+000	9.50596	5.97195	80.494	0.00315856
2802.31	0.0996841	0.016761	0.101083	-9.54448	636.983	1.39308	15.1176	3388.48	93.163	2	65	0.0106663	0.10552	0	1.91365	32	0.02106	9.75588	1.64036	9.89283	9.54448	93163	554077	561855	-80.4555	0.0000000E+000	0.0000000E+000	0.0000000E+000	80.4555	0.0000000E+000	0.0000000E+000	0.0000000E+000	-80.4555	0.0000000E+000	0.0000000E+000	0.0000000E+000	-9.54448	0.0000000E+000	0.0000000E+000	0.0000000E+000	9.54448	5.94739	80.4555	0.00282095
2309.26	0.102211	0.0170811	0.103628	-9.48738	637.675	1.39308	15.2079	4034.89	109.624	2	65	0.010764	0.103872	0	1.91675	32	0.0211859	9.51789	1.59059	9.64989	9.48738	109624	655976	665073	-80.5126	0.0000000E+000	0.0000000E+000	0.0000000E+000	80.5126	0.0000000E+000	0.0000000E+000	0.0000000E+000	-80.5126	0.0000000E+000	0.0000000E+000	0.0000000E+000	-9.48738	0.0000000E+000	0.0000000E+000	0.0000000E+000	9.48738	5.98386	80.5126	0.00309484
1901.83	0.10469	0.017196	0.106093	-9.32784	638.365	1.39308	15.2586	4866.56	127.85	2	65	0.0108	0.101798	0	1.91941	32	0.0212565	9.30103	1.52774	9.42566	9.32784	127850	778359	788789	-80.6722	0.0000000E+000	0.0000000E+000	0.0000000E+000	80.6722	0.0000000E+000	0.0000000E+000	0.0000000E+000	-80.6722	0.0000000E+000	0.0000000E+000	0.0000000E+000	-9.32784	0.0000000E+000	0.0000000E+000	0.0000000E+000	9.32784	6.08808	80.6722	0.00266252