File: Python/ImpedanceDataOld/different flow rate_NIPS electrode_iron symmetric single-tank tests_0.5 M total iron_choose the cycle number=1/FTFF flow field/NoPattern_FTFF_ve=2 cms_EIS.mpt
EC-Lab ASCII FILE
Nb header lines : 66

Potentio Electrochemical Impedance Spectroscopy

Run on channel : 1 (SN 50780)
User :
CE vs. WE compliance from -10 V to 10 V
Electrode connection : standard
Potential control : Ewe
Ewe ctrl range : min = -10.00 V, max = 10.00 V
Safety Limits :
	Do not start on E overload
Acquisition started on : 02/13/2023 17:02:43.459
Loaded Setting File :  C:\Users\sto063\Documents\EC-Lab\Data\Baichen\Micormolding\20230213_denseNoPatternS3_FTFF\NoPattern_FTFF_05Fe_2MHCL_ve10cms_EIS_PCGA.mps
Saved on :
	File : NoPattern_FTFF_05Fe_2MHCL_ve2cms_EIS_PCGA_01_PEIS_C01.mpr
	Directory : C:\Users\sto063\Documents\EC-Lab\Data\Baichen\Micormolding\20230213_denseNoPatternS3_FTFF\
	Host : 131.155.90.158
Device : VSP-3e (SN .003050)
Address : USB
EC-Lab for windows v11.43 (software)
Internet server v11.40 (firmware)
Command interpretor v11.40 (firmware)
Electrode material :
Initial state :
Electrolyte :
Comments :
Electrode surface area : 0.001 cm2
Characteristic mass : 0.001 g
Equivalent Weight : 0.000 g/eq.
Density : 0.000 g/cm3
Volume (V) : 0.001 cm3
Cycle Definition : Charge/Discharge alternance
Mode                Single sine
E (V)               0.0000
vs.                 Eoc
tE (h:m:s)          0:00:0.0000
record              0
dI                  0.000
unit dI             mA
dt (s)              0.000
fi                  200.000
unit fi             kHz
ff                  4.000
unit ff             mHz
Nd                  8
Points              per decade
spacing             Logarithmic
Va (mV)             10.0
pw                  0.10
Na                  5
corr                0
E range min (V)     -10.000
E range max (V)     10.000
I Range             Auto
Bandwidth           5
nc cycles           0
goto Ns'            0
nr cycles           0
inc. cycle          0

Modify on : 02/13/2023 17:02
ff                  5.000

freq/Hz	Re(Z)/Ohm	-Im(Z)/Ohm	|Z|/Ohm	Phase(Z)/deg	time/s	<Ewe>/V	<I>/mA	Cs/uF	Cp/uF	cycle number	I Range	|Ewe|/V	|I|/A	Ns	(Q-Qo)/mA.h	Re(Y)/Ohm-1	Im(Y)/Ohm-1	|Y|/Ohm-1	Phase(Y)/deg	Re(C)/nF	Im(C)/nF	|C|/nF	Phase(C)/deg	Re(M)	Im(M)	|M|	Phase(M)/deg	Re(Permittivity)	Im(Permittivity)	|Permittivity|	Phase(Permittivity)/deg	Re(Resistivity)/Ohm.cm	Im(Resistivity)/Ohm.cm	|Resistivity|/Ohm.cm	Phase(Resistivity)/deg	Re(Conductivity)/mS/cm	Im(Conductivity)/mS/cm	|Conductivity|/mS/cm	Phase(Conductivity)/deg	Tan(Delta)	Loss Angle(Delta)/deg	dq/mA.h
199998	0.18903	-0.147684	0.239881	37.9996	1.73949	-0.000496684	-2.28658	-5.3884	-2.04238	1	9	0.000966634	0.00402964	0	-0.000962159	3.28502	-2.5665	4.16873	-37.9996	-2042.38	2614.16	3317.4	-128	0.0000000E+000	0.0000000E+000	0.0000000E+000	128	0.0000000E+000	0.0000000E+000	0.0000000E+000	-128	0.0000000E+000	0.0000000E+000	0.0000000E+000	37.9996	0.0000000E+000	0.0000000E+000	0.0000000E+000	-37.9996	-1.27996	-37.9996	-0.000962159
149560	0.197572	-0.108986	0.225638	28.8822	2.56348	-0.000508885	-2.11824	-9.76417	-2.27797	1	9	0.00190509	0.00844311	0	-0.0014605	3.88062	-2.14064	4.43188	-28.8822	-2277.97	4129.57	4716.2	-118.882	0.0000000E+000	0.0000000E+000	0.0000000E+000	118.882	0.0000000E+000	0.0000000E+000	0.0000000E+000	-118.882	0.0000000E+000	0.0000000E+000	0.0000000E+000	28.8822	0.0000000E+000	0.0000000E+000	0.0000000E+000	-28.8822	-1.81283	-28.8822	-0.000498338
111843	0.201247	-0.0802141	0.216644	21.7315	3.38749	-0.000524105	-2.01742	-17.7403	-2.43202	1	9	0.00478688	0.0220955	0	-0.00193914	4.28781	-1.70905	4.61586	-21.7315	-2432.02	6101.64	6568.46	-111.731	0.0000000E+000	0.0000000E+000	0.0000000E+000	111.731	0.0000000E+000	0.0000000E+000	0.0000000E+000	-111.731	0.0000000E+000	0.0000000E+000	0.0000000E+000	21.7315	0.0000000E+000	0.0000000E+000	0.0000000E+000	-21.7315	-2.50888	-21.7315	-0.00047864
83636.4	0.201771	-0.0582749	0.210018	16.1096	4.34848	-0.000543627	-1.96305	-32.6545	-2.51415	1	9	0.0224548	0.106919	0	-0.00260536	4.57452	-1.3212	4.76149	-16.1096	-2514.15	8705.03	9060.82	-106.11	0.0000000E+000	0.0000000E+000	0.0000000E+000	106.11	0.0000000E+000	0.0000000E+000	0.0000000E+000	-106.11	0.0000000E+000	0.0000000E+000	0.0000000E+000	16.1096	0.0000000E+000	0.0000000E+000	0.0000000E+000	-16.1096	-3.46241	-16.1096	-0.000666225
62258.8	0.202263	-0.0423399	0.206647	11.8231	6.40548	-0.000443313	-1.51332	-60.3767	-2.53461	1	9	0.0120648	0.0583836	0	-0.00325678	4.73651	-0.991498	4.83917	-11.8231	-2534.61	12108.1	12370.6	-101.823	0.0000000E+000	0.0000000E+000	0.0000000E+000	101.823	0.0000000E+000	0.0000000E+000	0.0000000E+000	-101.823	0.0000000E+000	0.0000000E+000	0.0000000E+000	11.8231	0.0000000E+000	0.0000000E+000	0.0000000E+000	-11.8231	-4.77712	-11.8231	-0.000651415
46503.9	0.203072	-0.0301576	0.205299	8.44708	7.50349	-0.000413488	-1.33581	-113.484	-2.4488	1	9	0.00942235	0.0458958	0	-0.00390602	4.8181	-0.715522	4.87094	-8.44708	-2448.8	16489.5	16670.3	-98.4471	0.0000000E+000	0.0000000E+000	0.0000000E+000	98.4471	0.0000000E+000	0.0000000E+000	0.0000000E+000	-98.4471	0.0000000E+000	0.0000000E+000	0.0000000E+000	8.44708	0.0000000E+000	0.0000000E+000	0.0000000E+000	-8.44708	-6.73369	-8.44708	-0.000649244
34738.7	0.204116	-0.0210465	0.205198	5.88699	8.32748	-0.000398232	-1.25214	-217.684	-2.29002	1	9	0.00935382	0.0455844	0	-0.0042355	4.84764	-0.499843	4.87334	-5.88699	-2290.02	22209.4	22327.2	-95.887	0.0000000E+000	0.0000000E+000	0.0000000E+000	95.887	0.0000000E+000	0.0000000E+000	0.0000000E+000	-95.887	0.0000000E+000	0.0000000E+000	0.0000000E+000	5.88699	0.0000000E+000	0.0000000E+000	0.0000000E+000	-5.88699	-9.69833	-5.88699	-0.00032948
25952	0.205	-0.0142171	0.205492	3.9672	9.15149	-0.000386458	-1.23596	-431.36	-2.06475	1	9	0.00992304	0.0482891	0	-0.00448413	4.8547	-0.336681	4.86636	-3.9672	-2064.76	29772.3	29843.8	-93.9672	0.0000000E+000	0.0000000E+000	0.0000000E+000	93.9672	0.0000000E+000	0.0000000E+000	0.0000000E+000	-93.9672	0.0000000E+000	0.0000000E+000	0.0000000E+000	3.9672	0.0000000E+000	0.0000000E+000	0.0000000E+000	-3.9672	-14.4193	-3.9672	-0.000248633
19382.8	0.20605	-0.0090493	0.206248	2.51471	9.9755	-0.000390352	-1.23204	-907.379	-1.74678	1	9	0.0102875	0.049879	0	-0.00480021	4.84386	-0.212733	4.84853	-2.51471	-1746.78	39773.6	39812	-92.5147	0.0000000E+000	0.0000000E+000	0.0000000E+000	92.5147	0.0000000E+000	0.0000000E+000	0.0000000E+000	-92.5147	0.0000000E+000	0.0000000E+000	0.0000000E+000	2.51471	0.0000000E+000	0.0000000E+000	0.0000000E+000	-2.51471	-22.7697	-2.51471	-0.000316073
14474.5	0.207183	-0.00527149	0.207251	1.4575	10.7995	-0.000386514	-1.19075	-2085.86	-1.34946	1	9	0.0104487	0.050416	0	-0.00511622	4.82352	-0.122728	4.82508	-1.4575	-1349.46	53037.3	53054.5	-91.4575	0.0000000E+000	0.0000000E+000	0.0000000E+000	91.4575	0.0000000E+000	0.0000000E+000	0.0000000E+000	-91.4575	0.0000000E+000	0.0000000E+000	0.0000000E+000	1.4575	0.0000000E+000	0.0000000E+000	0.0000000E+000	-1.4575	-39.3026	-1.4575	-0.000316009
10818.7	0.208286	-0.00246544	0.2083	0.678167	11.6235	-0.000383776	-1.18718	-5966.91	-0.835907	1	9	0.0104644	0.0502372	0	-0.00544456	4.80042	-0.0568217	4.80076	-0.678167	-835.909	70619.3	70624.2	-90.6782	0.0000000E+000	0.0000000E+000	0.0000000E+000	90.6782	0.0000000E+000	0.0000000E+000	0.0000000E+000	-90.6782	0.0000000E+000	0.0000000E+000	0.0000000E+000	0.678167	0.0000000E+000	0.0000000E+000	0.0000000E+000	-0.678167	-84.4822	-0.678167	-0.000328341
8079.73	0.209355	-0.000441023	0.209356	0.120698	12.5489	-0.000381093	-1.14224	-44664.5	-0.198205	1	9	0.0104172	0.0497582	0	-0.00564877	4.77654	-0.0100621	4.77655	-0.120698	-198.204	94088.6	94088.8	-90.1207	0.0000000E+000	0.0000000E+000	0.0000000E+000	90.1207	0.0000000E+000	0.0000000E+000	0.0000000E+000	-90.1207	0.0000000E+000	0.0000000E+000	0.0000000E+000	0.120698	0.0000000E+000	0.0000000E+000	0.0000000E+000	-0.120698	-474.704	-0.120698	-0.000204215
6032.66	0.210514	0.000907661	0.210516	-0.247037	13.716	-0.000382863	-1.08539	29066.2	0.540337	1	9	0.0102572	0.0487239	0	-0.0060735	4.75019	0.0204811	4.75023	0.247037	540.343	125321	125322	-89.753	0.0000000E+000	0.0000000E+000	0.0000000E+000	89.753	0.0000000E+000	0.0000000E+000	0.0000000E+000	-89.753	0.0000000E+000	0.0000000E+000	0.0000000E+000	-0.247037	0.0000000E+000	0.0000000E+000	0.0000000E+000	0.247037	231.93	0.247037	-0.000424727
4506.44	0.21161	0.00179548	0.211618	-0.486135	15.0537	-0.000377796	-1.04804	19670	1.416	1	9	0.0101927	0.0481654	0	-0.00636849	4.72533	0.0400937	4.7255	0.486135	1416.01	166885	166891	-89.5139	0.0000000E+000	0.0000000E+000	0.0000000E+000	89.5139	0.0000000E+000	0.0000000E+000	0.0000000E+000	-89.5139	0.0000000E+000	0.0000000E+000	0.0000000E+000	-0.486135	0.0000000E+000	0.0000000E+000	0.0000000E+000	0.486135	117.857	0.486135	-0.000294988
3366.08	0.212554	0.00240841	0.212568	-0.649179	16.1697	-0.000370326	-1.05492	19632.1	2.52018	1	9	0.0108281	0.0509396	0	-0.00670135	4.70408	0.053301	4.70438	0.649179	2520.17	222418	222433	-89.3508	0.0000000E+000	0.0000000E+000	0.0000000E+000	89.3508	0.0000000E+000	0.0000000E+000	0.0000000E+000	-89.3508	0.0000000E+000	0.0000000E+000	0.0000000E+000	-0.649179	0.0000000E+000	0.0000000E+000	0.0000000E+000	0.649179	88.255	0.649179	-0.000332861
2515.81	0.213566	0.00272372	0.213583	-0.730683	17.5067	-0.000369972	-1.0247	23226.4	3.7772	1	9	0.0101861	0.0476916	0	-0.00707632	4.68163	0.0597072	4.68201	0.730683	3777.2	296169	296194	-89.2693	0.0000000E+000	0.0000000E+000	0.0000000E+000	89.2693	0.0000000E+000	0.0000000E+000	0.0000000E+000	-89.2693	0.0000000E+000	0.0000000E+000	0.0000000E+000	-0.730683	0.0000000E+000	0.0000000E+000	0.0000000E+000	0.730683	78.4098	0.730683	-0.000374972
1878.2	0.214475	0.00291957	0.214495	-0.779898	18.6229	-0.000365296	-1.02856	29024.2	5.37729	1	9	0.0103943	0.0484596	0	-0.00737645	4.66168	0.0634577	4.66212	0.779898	5377.31	395022	395059	-89.2201	0.0000000E+000	0.0000000E+000	0.0000000E+000	89.2201	0.0000000E+000	0.0000000E+000	0.0000000E+000	-89.2201	0.0000000E+000	0.0000000E+000	0.0000000E+000	-0.779898	0.0000000E+000	0.0000000E+000	0.0000000E+000	0.779898	73.4612	0.779898	-0.000300134
1403.65	0.215208	0.00293172	0.215228	-0.780476	19.739	-0.000362707	-1.02692	38675.7	7.17605	1	9	0.0105087	0.0488258	0	-0.00770242	4.64581	0.0632885	4.64624	0.780476	7176.08	526771	526820	-89.2195	0.0000000E+000	0.0000000E+000	0.0000000E+000	89.2195	0.0000000E+000	0.0000000E+000	0.0000000E+000	-89.2195	0.0000000E+000	0.0000000E+000	0.0000000E+000	-0.780476	0.0000000E+000	0.0000000E+000	0.0000000E+000	0.780476	73.4068	0.780476	-0.000325969
1047.65	0.215915	0.00292571	0.215935	-0.776326	20.8582	-0.000362707	-1.02012	51924.3	9.53207	1	9	0.0105724	0.0489612	0	-0.00804509	4.63059	0.0627458	4.63102	0.776326	9532.11	703460	703524	-89.2237	0.0000000E+000	0.0000000E+000	0.0000000E+000	89.2237	0.0000000E+000	0.0000000E+000	0.0000000E+000	-89.2237	0.0000000E+000	0.0000000E+000	0.0000000E+000	-0.776326	0.0000000E+000	0.0000000E+000	0.0000000E+000	0.776326	73.7992	0.776326	-0.000342666
783.246	0.216449	0.00287812	0.216468	-0.761817	21.9772	-0.000364365	-1.02207	70601.3	12.4808	1	9	0.0106032	0.0489825	0	-0.0083816	4.61921	0.0614216	4.61962	0.761817	12480.8	938620	938703	-89.2382	0.0000000E+000	0.0000000E+000	0.0000000E+000	89.2382	0.0000000E+000	0.0000000E+000	0.0000000E+000	-89.2382	0.0000000E+000	0.0000000E+000	0.0000000E+000	-0.761817	0.0000000E+000	0.0000000E+000	0.0000000E+000	0.761817	75.2049	0.761817	-0.000336516
584.439	0.216899	0.00288739	0.216919	-0.762682	23.0929	-0.000374462	-1.0297	94314	16.7106	1	9	0.0106174	0.0489464	0	-0.00873569	4.60962	0.0613637	4.61003	0.762682	16710.6	1.2553e+06	1.25541e+06	-89.2373	0.0000000E+000	0.0000000E+000	0.0000000E+000	89.2373	0.0000000E+000	0.0000000E+000	0.0000000E+000	-89.2373	0.0000000E+000	0.0000000E+000	0.0000000E+000	-0.762682	0.0000000E+000	0.0000000E+000	0.0000000E+000	0.762682	75.1196	0.762682	-0.000354083
436.817	0.21744	0.00283987	0.217458	-0.748268	24.2039	-0.00037448	-1.03338	128299	21.881	1	9	0.0106287	0.0488771	0	-0.00908161	4.59819	0.0600546	4.59858	0.748268	21881	1.67536e+06	1.6755e+06	-89.2517	0.0000000E+000	0.0000000E+000	0.0000000E+000	89.2517	0.0000000E+000	0.0000000E+000	0.0000000E+000	-89.2517	0.0000000E+000	0.0000000E+000	0.0000000E+000	-0.748268	0.0000000E+000	0.0000000E+000	0.0000000E+000	0.748268	76.5668	0.748268	-0.000345919
326.358	0.21791	0.00285479	0.217929	-0.750574	25.3149	-0.000382844	-1.05175	170826	29.3137	1	9	0.0106347	0.0487989	0	-0.00940358	4.58826	0.0601096	4.58865	0.750574	29313.6	2.23756e+06	2.23775e+06	-89.2494	0.0000000E+000	0.0000000E+000	0.0000000E+000	89.2494	0.0000000E+000	0.0000000E+000	0.0000000E+000	-89.2494	0.0000000E+000	0.0000000E+000	0.0000000E+000	-0.750574	0.0000000E+000	0.0000000E+000	0.0000000E+000	0.750574	76.3316	0.750574	-0.000321976
243.83	0.218342	0.00312221	0.218365	-0.819253	26.4357	-0.000374797	-1.0225	209060	42.7397	1	9	0.0106365	0.0487099	0	-0.00968791	4.57903	0.0654784	4.57949	0.819253	42739.7	2.98887e+06	2.98917e+06	-89.1807	0.0000000E+000	0.0000000E+000	0.0000000E+000	89.1807	0.0000000E+000	0.0000000E+000	0.0000000E+000	-89.1807	0.0000000E+000	0.0000000E+000	0.0000000E+000	-0.819253	0.0000000E+000	0.0000000E+000	0.0000000E+000	0.819253	69.9319	0.819253	-0.000284325
182.157	0.218827	0.00318396	0.21885	-0.833602	27.5404	-0.000387204	-1.04158	274415	58.083	1	9	0.0106379	0.0486081	0	-0.0100515	4.56886	0.0664774	4.56934	0.833602	58083.1	3.99192e+06	3.99235e+06	-89.1664	0.0000000E+000	0.0000000E+000	0.0000000E+000	89.1664	0.0000000E+000	0.0000000E+000	0.0000000E+000	-89.1664	0.0000000E+000	0.0000000E+000	0.0000000E+000	-0.833602	0.0000000E+000	0.0000000E+000	0.0000000E+000	0.833602	68.7279	0.833602	-0.000363584
135.913	0.219271	0.00327844	0.219296	-0.856597	28.6504	-0.000387874	-1.04427	357183	79.8299	1	9	0.0106368	0.0485046	0	-0.0104264	4.55955	0.0681723	4.56006	0.856597	79830.1	5.33924e+06	5.33984e+06	-89.1434	0.0000000E+000	0.0000000E+000	0.0000000E+000	89.1434	0.0000000E+000	0.0000000E+000	0.0000000E+000	-89.1434	0.0000000E+000	0.0000000E+000	0.0000000E+000	-0.856597	0.0000000E+000	0.0000000E+000	0.0000000E+000	0.856597	66.8827	0.856597	-0.000374879
101.593	0.219889	0.00363615	0.219919	-0.947374	29.7506	-0.000390557	-1.04436	430839	117.78	1	9	0.0106412	0.0483869	0	-0.0107674	4.54651	0.0751824	4.54713	0.947374	117780	7.12253e+06	7.1235e+06	-89.0526	0.0000000E+000	0.0000000E+000	0.0000000E+000	89.0526	0.0000000E+000	0.0000000E+000	0.0000000E+000	-89.0526	0.0000000E+000	0.0000000E+000	0.0000000E+000	-0.947374	0.0000000E+000	0.0000000E+000	0.0000000E+000	0.947374	60.473	0.947374	-0.000341035
75.8986	0.220514	0.00386411	0.220548	-1.0039	30.8554	-0.000392028	-1.01709	542672	166.583	1	9	0.0106428	0.0482565	0	-0.0110792	4.53347	0.079441	4.53417	1.0039	166584	9.50643e+06	9.50789e+06	-88.9961	0.0000000E+000	0.0000000E+000	0.0000000E+000	88.9961	0.0000000E+000	0.0000000E+000	0.0000000E+000	-88.9961	0.0000000E+000	0.0000000E+000	0.0000000E+000	-1.0039	0.0000000E+000	0.0000000E+000	0.0000000E+000	1.0039	57.0672	1.0039	-0.00031176
56.687	0.221071	0.00429483	0.221113	-1.11296	31.9408	-0.000388005	-1.03049	653719	246.634	1	9	0.0106382	0.0481121	0	-0.0113318	4.52172	0.087845	4.52257	1.11296	246634	1.26952e+07	1.26976e+07	-88.887	0.0000000E+000	0.0000000E+000	0.0000000E+000	88.887	0.0000000E+000	0.0000000E+000	0.0000000E+000	-88.887	0.0000000E+000	0.0000000E+000	0.0000000E+000	-1.11296	0.0000000E+000	0.0000000E+000	0.0000000E+000	1.11296	51.4739	1.11296	-0.000252654
42.3442	0.221788	0.00481941	0.22184	-1.24483	33.0007	-0.000389476	-1.03228	779889	368.078	1	9	0.0106382	0.0479543	0	-0.0116158	4.50669	0.0979295	4.50775	1.24483	368077	1.69388e+07	1.69428e+07	-88.7552	0.0000000E+000	0.0000000E+000	0.0000000E+000	88.7552	0.0000000E+000	0.0000000E+000	0.0000000E+000	-88.7552	0.0000000E+000	0.0000000E+000	0.0000000E+000	-1.24483	0.0000000E+000	0.0000000E+000	0.0000000E+000	1.24483	46.0197	1.24483	-0.000283982
31.6296	0.222497	0.00545704	0.222564	-1.40498	34.0655	-0.0003878	-1.01704	922082	554.338	1	9	0.0106365	0.047791	0	-0.0120094	4.49174	0.110166	4.49309	1.40498	554338	2.26017e+07	2.26085e+07	-88.595	0.0000000E+000	0.0000000E+000	0.0000000E+000	88.595	0.0000000E+000	0.0000000E+000	0.0000000E+000	-88.595	0.0000000E+000	0.0000000E+000	0.0000000E+000	-1.40498	0.0000000E+000	0.0000000E+000	0.0000000E+000	1.40498	40.7725	1.40498	-0.000393563
23.617	0.223416	0.00619502	0.223502	-1.58832	35.2405	-0.000381839	-0.992887	1.08781e+06	835.746	1	9	0.0106407	0.0476091	0	-0.0123909	4.47251	0.124016	4.47423	1.58832	835747	3.01402e+07	3.01518e+07	-88.4117	0.0000000E+000	0.0000000E+000	0.0000000E+000	88.4117	0.0000000E+000	0.0000000E+000	0.0000000E+000	-88.4117	0.0000000E+000	0.0000000E+000	0.0000000E+000	-1.58832	0.0000000E+000	0.0000000E+000	0.0000000E+000	1.58832	36.0639	1.58832	-0.000381506
17.6354	0.224323	0.00692116	0.22443	-1.76721	36.4886	-0.000375915	-1.00694	1.30393e+06	1240.08	1	9	0.0106361	0.0473915	0	-0.0127484	4.45361	0.137409	4.45573	1.76721	1.24008e+06	4.01926e+07	4.02117e+07	-88.2328	0.0000000E+000	0.0000000E+000	0.0000000E+000	88.2328	0.0000000E+000	0.0000000E+000	0.0000000E+000	-88.2328	0.0000000E+000	0.0000000E+000	0.0000000E+000	-1.76721	0.0000000E+000	0.0000000E+000	0.0000000E+000	1.76721	32.4112	1.76721	-0.000357503
13.1671	0.225524	0.00795847	0.225664	-2.02106	37.7436	-0.000380134	-1.0163	1.5188e+06	1889.01	1	9	0.0106395	0.0471474	0	-0.0128044	4.42861	0.156281	4.43137	2.02106	1.88901e+06	5.35299e+07	5.35632e+07	-87.9789	0.0000000E+000	0.0000000E+000	0.0000000E+000	87.9789	0.0000000E+000	0.0000000E+000	0.0000000E+000	-87.9789	0.0000000E+000	0.0000000E+000	0.0000000E+000	-2.02106	0.0000000E+000	0.0000000E+000	0.0000000E+000	2.02106	28.3376	2.02106	-5.59823e-05
9.83942	0.226743	0.00908739	0.226925	-2.29507	38.875	-0.000382975	-0.985352	1.77997e+06	2854.47	1	9	0.0106377	0.0468774	0	-0.0131573	4.40321	0.176471	4.40674	2.29507	2.85447e+06	7.12229e+07	7.12801e+07	-87.7049	0.0000000E+000	0.0000000E+000	0.0000000E+000	87.7049	0.0000000E+000	0.0000000E+000	0.0000000E+000	-87.7049	0.0000000E+000	0.0000000E+000	0.0000000E+000	-2.29507	0.0000000E+000	0.0000000E+000	0.0000000E+000	2.29507	24.9514	2.29507	-0.000352924
7.35641	0.228247	0.0105105	0.228489	-2.63653	39.6797	-0.000395437	-1.02515	2.05841e+06	4355.59	1	9	0.01064	0.0465669	0	-0.0132985	4.37195	0.201323	4.37659	2.63653	4.3556e+06	9.45867e+07	9.46869e+07	-87.3635	0.0000000E+000	0.0000000E+000	0.0000000E+000	87.3635	0.0000000E+000	0.0000000E+000	0.0000000E+000	-87.3635	0.0000000E+000	0.0000000E+000	0.0000000E+000	-2.63653	0.0000000E+000	0.0000000E+000	0.0000000E+000	2.63653	21.7161	2.63653	-0.000141177
5.49402	0.229906	0.012062	0.230223	-3.00327	40.7108	-0.000390482	-0.993521	2.40165e+06	6592.57	1	9	0.01064	0.0462162	0	-0.0139286	4.33766	0.227575	4.34362	3.00327	6.59256e+06	1.25656e+08	1.25829e+08	-86.9967	0.0000000E+000	0.0000000E+000	0.0000000E+000	86.9967	0.0000000E+000	0.0000000E+000	0.0000000E+000	-86.9967	0.0000000E+000	0.0000000E+000	0.0000000E+000	-3.00327	0.0000000E+000	0.0000000E+000	0.0000000E+000	3.00327	19.0603	3.00327	-0.000630182
4.1032	0.23184	0.0138098	0.232251	-3.40885	42.0465	-0.000385285	-0.973342	2.80873e+06	9930.41	1	9	0.0106382	0.0458045	0	-0.0141501	4.29806	0.256018	4.30568	3.40885	9.93041e+06	1.66713e+08	1.67009e+08	-86.5912	0.0000000E+000	0.0000000E+000	0.0000000E+000	86.5912	0.0000000E+000	0.0000000E+000	0.0000000E+000	-86.5912	0.0000000E+000	0.0000000E+000	0.0000000E+000	-3.40885	0.0000000E+000	0.0000000E+000	0.0000000E+000	3.40885	16.7881	3.40885	-0.000221431
3.06373	0.23416	0.0158723	0.234697	-3.87781	43.7962	-0.000382577	-0.964376	3.27288e+06	14969.1	1	9	0.0106406	0.0453375	0	-0.0152594	4.25106	0.288154	4.26081	3.87781	1.49691e+07	2.20835e+08	2.21342e+08	-86.1222	0.0000000E+000	0.0000000E+000	0.0000000E+000	86.1222	0.0000000E+000	0.0000000E+000	0.0000000E+000	-86.1222	0.0000000E+000	0.0000000E+000	0.0000000E+000	-3.87781	0.0000000E+000	0.0000000E+000	0.0000000E+000	3.87781	14.7527	3.87781	-0.00110932
2.28703	0.23677	0.0183374	0.237479	-4.42861	46.1102	-0.000379445	-1.00518	3.79499e+06	22627.4	1	9	0.0106397	0.0448028	0	-0.0145941	4.19833	0.325152	4.2109	4.42861	2.26274e+07	2.92162e+08	2.93037e+08	-85.5714	0.0000000E+000	0.0000000E+000	0.0000000E+000	85.5714	0.0000000E+000	0.0000000E+000	0.0000000E+000	-85.5714	0.0000000E+000	0.0000000E+000	0.0000000E+000	-4.42861	0.0000000E+000	0.0000000E+000	0.0000000E+000	4.42861	12.9119	4.42861	0.0006653
1.70952	0.23998	0.0208779	0.240886	-4.97213	49.174	-0.000370594	-0.908344	4.45923e+06	33497.2	1	9	0.0106391	0.0441665	0	-0.0153807	4.13571	0.359801	4.15133	4.97213	3.34972e+07	3.85032e+08	3.86486e+08	-85.0279	0.0000000E+000	0.0000000E+000	0.0000000E+000	85.0279	0.0000000E+000	0.0000000E+000	0.0000000E+000	-85.0279	0.0000000E+000	0.0000000E+000	0.0000000E+000	-4.97213	0.0000000E+000	0.0000000E+000	0.0000000E+000	4.97213	11.4945	4.97213	-0.000786574
1.27697	0.243478	0.0238955	0.244647	-5.60519	53.2483	-0.000367851	-0.833603	5.21584e+06	49759.3	1	9	0.0106388	0.0434862	0	-0.0180731	4.06797	0.399241	4.08752	5.60519	4.97593e+07	5.07011e+08	5.09447e+08	-84.3948	0.0000000E+000	0.0000000E+000	0.0000000E+000	84.3948	0.0000000E+000	0.0000000E+000	0.0000000E+000	-84.3948	0.0000000E+000	0.0000000E+000	0.0000000E+000	-5.60519	0.0000000E+000	0.0000000E+000	0.0000000E+000	5.60519	10.1893	5.60519	-0.00269244
0.953907	0.247541	0.0270619	0.249016	-6.23897	59.7697	-0.000357358	-0.995005	6.16532e+06	72814.8	1	10	0.0106389	0.0427237	0	-0.0206262	3.99203	0.436421	4.01581	6.23897	7.28148e+07	6.66051e+08	6.70019e+08	-83.761	0.0000000E+000	0.0000000E+000	0.0000000E+000	83.761	0.0000000E+000	0.0000000E+000	0.0000000E+000	-83.761	0.0000000E+000	0.0000000E+000	0.0000000E+000	-6.23897	0.0000000E+000	0.0000000E+000	0.0000000E+000	6.23897	9.1472	6.23897	-0.00255313
0.71204	0.252381	0.0308698	0.254262	-6.97346	67.011	-0.000366109	-1.03774	7.24072e+06	106730	1	10	0.0106391	0.0418429	0	-0.0209888	3.90386	0.477499	3.93295	6.97346	1.0673e+08	8.7259e+08	8.79093e+08	-83.0265	0.0000000E+000	0.0000000E+000	0.0000000E+000	83.0265	0.0000000E+000	0.0000000E+000	0.0000000E+000	-83.0265	0.0000000E+000	0.0000000E+000	0.0000000E+000	-6.97346	0.0000000E+000	0.0000000E+000	0.0000000E+000	6.97346	8.17565	6.97346	-0.000362595
0.531897	0.257662	0.0349005	0.260015	-7.71381	76.6789	-0.000373129	-0.995067	8.57356e+06	154464	1	10	0.0106352	0.0409023	0	-0.0209506	3.81113	0.516221	3.84594	7.71381	1.54464e+08	1.14037e+09	1.15079e+09	-82.2862	0.0000000E+000	0.0000000E+000	0.0000000E+000	82.2862	0.0000000E+000	0.0000000E+000	0.0000000E+000	-82.2862	0.0000000E+000	0.0000000E+000	0.0000000E+000	-7.71381	0.0000000E+000	0.0000000E+000	0.0000000E+000	7.71381	7.38276	7.71381	3.82712e-05
0.397745	0.263877	0.0392016	0.266773	-8.45006	89.5826	-0.000369556	-0.951267	1.02073e+07	220412	1	10	0.0106381	0.039877	0	-0.0226179	3.70782	0.550833	3.74851	8.45006	2.20412e+08	1.48366e+09	1.49994e+09	-81.5499	0.0000000E+000	0.0000000E+000	0.0000000E+000	81.5499	0.0000000E+000	0.0000000E+000	0.0000000E+000	-81.5499	0.0000000E+000	0.0000000E+000	0.0000000E+000	-8.45006	0.0000000E+000	0.0000000E+000	0.0000000E+000	8.45006	6.73128	8.45006	-0.00166737
0.297189	0.270249	0.0443304	0.27386	-9.31559	106.827	-0.000365011	-0.942368	1.20805e+07	316542	1	10	0.0106388	0.0388475	0	-0.0285043	3.60334	0.591076	3.6515	9.31559	3.16542e+08	1.92971e+09	1.9555e+09	-80.6844	0.0000000E+000	0.0000000E+000	0.0000000E+000	80.6844	0.0000000E+000	0.0000000E+000	0.0000000E+000	-80.6844	0.0000000E+000	0.0000000E+000	0.0000000E+000	-9.31559	0.0000000E+000	0.0000000E+000	0.0000000E+000	9.31559	6.09624	9.31559	-0.00588634
0.222085	0.276828	0.0500405	0.281315	-10.2463	129.881	-0.000368395	-0.928904	1.43212e+07	453146	1	10	0.0106383	0.0378162	0	-0.0394479	3.49805	0.63232	3.55474	10.2463	4.53146e+08	2.50684e+09	2.54747e+09	-79.7536	0.0000000E+000	0.0000000E+000	0.0000000E+000	79.7536	0.0000000E+000	0.0000000E+000	0.0000000E+000	-79.7536	0.0000000E+000	0.0000000E+000	0.0000000E+000	-10.2463	0.0000000E+000	0.0000000E+000	0.0000000E+000	10.2463	5.53208	10.2463	-0.0109436
0.165554	0.284713	0.0572385	0.29041	-11.3672	160.784	-0.000362181	-0.885511	1.67955e+07	652447	1	10	0.010639	0.0366345	0	-0.0536383	3.37586	0.67868	3.44341	11.3672	6.52447e+08	3.24538e+09	3.31031e+09	-78.6328	0.0000000E+000	0.0000000E+000	0.0000000E+000	78.6328	0.0000000E+000	0.0000000E+000	0.0000000E+000	-78.6328	0.0000000E+000	0.0000000E+000	0.0000000E+000	-11.3672	0.0000000E+000	0.0000000E+000	0.0000000E+000	11.3672	4.97416	11.3672	-0.0141904
0.123914	0.293881	0.0668614	0.301391	-12.8173	202.049	-0.00036187	-0.852654	1.92099e+07	945404	1	10	0.0106372	0.0352938	0	-0.0672152	3.23528	0.736065	3.31795	12.8173	9.45404e+08	4.1554e+09	4.26159e+09	-77.1827	0.0000000E+000	0.0000000E+000	0.0000000E+000	77.1827	0.0000000E+000	0.0000000E+000	0.0000000E+000	-77.1827	0.0000000E+000	0.0000000E+000	0.0000000E+000	-12.8173	0.0000000E+000	0.0000000E+000	0.0000000E+000	12.8173	4.39537	12.8173	-0.0135769
0.0925652	0.304901	0.0791766	0.315013	-14.5571	257.267	-0.000369546	-0.840468	2.17158e+07	1.37187e+06	1	10	0.0106382	0.0337708	0	-0.0764579	3.07256	0.797884	3.17447	14.5571	1.37187e+09	5.28291e+09	5.45813e+09	-75.4429	0.0000000E+000	0.0000000E+000	0.0000000E+000	75.4429	0.0000000E+000	0.0000000E+000	0.0000000E+000	-75.4429	0.0000000E+000	0.0000000E+000	0.0000000E+000	-14.5571	0.0000000E+000	0.0000000E+000	0.0000000E+000	14.5571	3.85089	14.5571	-0.00924273
0.0690785	0.319534	0.0934309	0.332913	-16.2988	331.238	-0.000365996	-0.740311	2.46597e+07	1.94225e+06	1	10	0.0106426	0.031968	0	-0.0810191	2.88307	0.843	3.00378	16.2988	1.94225e+09	6.64251e+09	6.92064e+09	-73.7012	0.0000000E+000	0.0000000E+000	0.0000000E+000	73.7012	0.0000000E+000	0.0000000E+000	0.0000000E+000	-73.7012	0.0000000E+000	0.0000000E+000	0.0000000E+000	-16.2988	0.0000000E+000	0.0000000E+000	0.0000000E+000	16.2988	3.42001	16.2988	-0.00456112
0.0515901	0.341177	0.108548	0.358029	-17.6488	430.263	-0.000366546	-0.750247	2.84205e+07	2.6124e+06	1	10	0.010636	0.0297071	0	-0.0846214	2.66161	0.84681	2.79307	17.6488	2.6124e+09	8.21103e+09	8.61659e+09	-72.3512	0.0000000E+000	0.0000000E+000	0.0000000E+000	72.3512	0.0000000E+000	0.0000000E+000	0.0000000E+000	-72.3512	0.0000000E+000	0.0000000E+000	0.0000000E+000	-17.6488	0.0000000E+000	0.0000000E+000	0.0000000E+000	17.6488	3.1431	17.6488	-0.0036023
0.0385688	0.369842	0.122282	0.389533	-18.2956	562.7	-0.00036908	-0.746574	3.37459e+07	3.32551e+06	1	10	0.0106365	0.0273057	0	-0.101312	2.43741	0.805887	2.56718	18.2956	3.32551e+09	1.0058e+10	1.05935e+10	-71.7044	0.0000000E+000	0.0000000E+000	0.0000000E+000	71.7044	0.0000000E+000	0.0000000E+000	0.0000000E+000	-71.7044	0.0000000E+000	0.0000000E+000	0.0000000E+000	-18.2956	0.0000000E+000	0.0000000E+000	0.0000000E+000	18.2956	3.0245	18.2956	-0.0166902
0.0288152	0.40358	0.13032	0.424099	-17.8958	739.943	-0.000364408	-0.707957	4.23826e+07	4.00197e+06	1	10	0.0106394	0.0250871	0	-0.142778	2.24386	0.724563	2.35794	17.8958	4.00197e+09	1.23935e+10	1.30236e+10	-72.1042	0.0000000E+000	0.0000000E+000	0.0000000E+000	72.1042	0.0000000E+000	0.0000000E+000	0.0000000E+000	-72.1042	0.0000000E+000	0.0000000E+000	0.0000000E+000	-17.8958	0.0000000E+000	0.0000000E+000	0.0000000E+000	17.8958	3.09684	17.8958	-0.0414669
0.0214768	0.440986	0.128645	0.459368	-16.2631	977.728	-0.000364802	-0.693313	5.76044e+07	4.51776e+06	1	10	0.0106387	0.0231595	0	-0.214669	2.0898	0.60964	2.17691	16.2631	4.51776e+09	1.54865e+10	1.6132e+10	-73.7369	0.0000000E+000	0.0000000E+000	0.0000000E+000	73.7369	0.0000000E+000	0.0000000E+000	0.0000000E+000	-73.7369	0.0000000E+000	0.0000000E+000	0.0000000E+000	-16.2631	0.0000000E+000	0.0000000E+000	0.0000000E+000	16.2631	3.42792	16.2631	-0.0718908
0.0160425	0.474696	0.116948	0.488889	-13.84	1296.04	-0.000367444	-0.680175	8.48311e+07	4.85423e+06	1	10	0.0106385	0.0217605	0	-0.313932	1.98607	0.489297	2.04545	13.84	4.85423e+09	1.97035e+10	2.02926e+10	-76.16	0.0000000E+000	0.0000000E+000	0.0000000E+000	76.16	0.0000000E+000	0.0000000E+000	0.0000000E+000	-76.16	0.0000000E+000	0.0000000E+000	0.0000000E+000	-13.84	0.0000000E+000	0.0000000E+000	0.0000000E+000	13.84	4.05903	13.84	-0.099263
0.0120032	0.499404	0.10013	0.509343	-11.3375	1721.45	-0.000363831	-0.681796	1.32421e+08	5.1176e+06	1	10	0.0106385	0.0208867	0	-0.432304	1.925	0.385963	1.96331	11.3375	5.1176e+09	2.55242e+10	2.60322e+10	-78.6625	0.0000000E+000	0.0000000E+000	0.0000000E+000	78.6625	0.0000000E+000	0.0000000E+000	0.0000000E+000	-78.6625	0.0000000E+000	0.0000000E+000	0.0000000E+000	-11.3375	0.0000000E+000	0.0000000E+000	0.0000000E+000	11.3375	4.98754	11.3375	-0.118371
0.00896474	0.511433	0.0792398	0.517535	-8.80719	2291.02	-0.000367062	-0.693668	2.24047e+08	5.25226e+06	1	10	0.0106393	0.0205576	0	-0.558565	1.90945	0.295844	1.93224	8.80719	5.25225e+09	3.38994e+10	3.43038e+10	-81.1928	0.0000000E+000	0.0000000E+000	0.0000000E+000	81.1928	0.0000000E+000	0.0000000E+000	0.0000000E+000	-81.1928	0.0000000E+000	0.0000000E+000	0.0000000E+000	-8.80719	0.0000000E+000	0.0000000E+000	0.0000000E+000	8.80719	6.45425	8.80719	-0.126261
0.00669928	0.519028	0.0629259	0.522829	-6.91268	3053.19	-0.000354601	-0.6798	3.7754e+08	5.46893e+06	1	10	0.0106434	0.0203574	0	-0.676162	1.89877	0.230203	1.91267	6.91268	5.46893e+09	4.51091e+10	4.54394e+10	-83.0873	0.0000000E+000	0.0000000E+000	0.0000000E+000	83.0873	0.0000000E+000	0.0000000E+000	0.0000000E+000	-83.0873	0.0000000E+000	0.0000000E+000	0.0000000E+000	-6.91268	0.0000000E+000	0.0000000E+000	0.0000000E+000	6.91268	8.24825	6.91268	-0.117597
0.00500189	0.527343	0.0507146	0.529776	-5.49324	4073.97	-0.000359545	-0.673587	6.27413e+08	5.74956e+06	1	10	0.0106395	0.0200829	0	-0.772498	1.87892	0.180696	1.88759	5.49324	5.74955e+09	5.97853e+10	6.00612e+10	-84.5068	0.0000000E+000	0.0000000E+000	0.0000000E+000	84.5068	0.0000000E+000	0.0000000E+000	0.0000000E+000	-84.5068	0.0000000E+000	0.0000000E+000	0.0000000E+000	-5.49324	0.0000000E+000	0.0000000E+000	0.0000000E+000	5.49324	10.3983	5.49324	-0.0963359