File: Python/ImpedanceDataOld/different flow rate_NIPS electrode_iron symmetric single-tank tests_0.5 M total iron_choose the cycle number=1/FTFF flow field/NoPattern_FTFF_ve=5 cms_EIS.mpt
EC-Lab ASCII FILE
Nb header lines : 72

Potentio Electrochemical Impedance Spectroscopy

Run on channel : 1 (SN 50780)
User :
CE vs. WE compliance from -10 V to 10 V
Electrode connection : standard
Potential control : Ewe
Ewe ctrl range : min = -10.00 V, max = 10.00 V
Safety Limits :
	Do not start on E overload
Acquisition started on : 02/13/2023 16:02:39.721
Loaded Setting File :  C:\Users\sto063\Documents\EC-Lab\Data\Baichen\Micormolding\20230213_denseNoPatternS3_FTFF\NoPattern_FTFF_05Fe_2MHCL_ve10cms_EIS_PCGA.mps
Saved on :
	File : NoPattern_FTFF_05Fe_2MHCL_ve5cms_EIS_PCGA_01_PEIS_C01.mpr
	Directory : C:\Users\sto063\Documents\EC-Lab\Data\Baichen\Micormolding\20230213_denseNoPatternS3_FTFF\
	Host : 131.155.90.158
Device : VSP-3e (SN .003050)
Address : USB
EC-Lab for windows v11.43 (software)
Internet server v11.40 (firmware)
Command interpretor v11.40 (firmware)
Electrode material :
Initial state :
Electrolyte :
Comments :
Electrode surface area : 0.001 cm2
Characteristic mass : 0.001 g
Equivalent Weight : 0.000 g/eq.
Density : 0.000 g/cm3
Volume (V) : 0.001 cm3
Cycle Definition : Charge/Discharge alternance
Mode                Single sine
E (V)               0.0000
vs.                 Eoc
tE (h:m:s)          0:00:0.0000
record              0
dI                  0.000
unit dI             mA
dt (s)              0.000
fi                  200.000
unit fi             kHz
ff                  4.000
unit ff             mHz
Nd                  8
Points              per decade
spacing             Logarithmic
Va (mV)             10.0
pw                  0.10
Na                  5
corr                0
E range min (V)     -10.000
E range max (V)     10.000
I Range             Auto
Bandwidth           5
nc cycles           0
goto Ns'            0
nr cycles           0
inc. cycle          0

Modify on : 02/13/2023 16:03
ff                  5.000

Modify on : 02/13/2023 16:17
ff                  7.000

Modify on : 02/13/2023 16:17
ff                  8.000

freq/Hz	Re(Z)/Ohm	-Im(Z)/Ohm	|Z|/Ohm	Phase(Z)/deg	time/s	<Ewe>/V	<I>/mA	Cs/uF	Cp/uF	cycle number	I Range	|Ewe|/V	|I|/A	Ns	(Q-Qo)/mA.h	Re(Y)/Ohm-1	Im(Y)/Ohm-1	|Y|/Ohm-1	Phase(Y)/deg	Re(C)/nF	Im(C)/nF	|C|/nF	Phase(C)/deg	Re(M)	Im(M)	|M|	Phase(M)/deg	Re(Permittivity)	Im(Permittivity)	|Permittivity|	Phase(Permittivity)/deg	Re(Resistivity)/Ohm.cm	Im(Resistivity)/Ohm.cm	|Resistivity|/Ohm.cm	Phase(Resistivity)/deg	Re(Conductivity)/mS/cm	Im(Conductivity)/mS/cm	|Conductivity|/mS/cm	Phase(Conductivity)/deg	Tan(Delta)	Loss Angle(Delta)/deg	dq/mA.h
199998	0.202986	-0.146025	0.250053	35.7307	1.7395	-0.00111893	-3.34098	-5.44963	-1.85848	1	9	0.00104234	0.00416847	0	-0.00134439	3.2464	-2.33541	3.99916	-35.7307	-1858.48	2583.42	3182.46	-125.731	0.0000000E+000	0.0000000E+000	0.0000000E+000	125.731	0.0000000E+000	0.0000000E+000	0.0000000E+000	-125.731	0.0000000E+000	0.0000000E+000	0.0000000E+000	35.7307	0.0000000E+000	0.0000000E+000	0.0000000E+000	-35.7307	-1.39007	-35.7307	-0.00134439
149560	0.212205	-0.107667	0.237956	26.9019	2.5635	-0.00113141	-3.13484	-9.88378	-2.02345	1	9	0.00207623	0.00872528	0	-0.00208209	3.74768	-1.90146	4.20246	-26.9019	-2023.45	3988.1	4472.06	-116.902	0.0000000E+000	0.0000000E+000	0.0000000E+000	116.902	0.0000000E+000	0.0000000E+000	0.0000000E+000	-116.902	0.0000000E+000	0.0000000E+000	0.0000000E+000	26.9019	0.0000000E+000	0.0000000E+000	0.0000000E+000	-26.9019	-1.97094	-26.9019	-0.000737703
111843	0.214341	-0.0788943	0.228399	20.2076	3.38747	-0.00115458	-3.14339	-18.037	-2.15212	1	9	0.00526128	0.0230355	0	-0.00281958	4.1088	-1.51236	4.3783	-20.2076	-2152.12	5846.91	6230.41	-110.208	0.0000000E+000	0.0000000E+000	0.0000000E+000	110.208	0.0000000E+000	0.0000000E+000	0.0000000E+000	-110.208	0.0000000E+000	0.0000000E+000	0.0000000E+000	20.2076	0.0000000E+000	0.0000000E+000	0.0000000E+000	-20.2076	-2.71681	-20.2076	-0.000737487
83636.4	0.215196	-0.0574376	0.22273	14.9443	4.34848	-0.00116781	-3.06692	-33.1306	-2.20326	1	9	0.0239331	0.107453	0	-0.00372185	4.33789	-1.15782	4.48975	-14.9443	-2203.26	8254.74	8543.72	-104.944	0.0000000E+000	0.0000000E+000	0.0000000E+000	104.944	0.0000000E+000	0.0000000E+000	0.0000000E+000	-104.944	0.0000000E+000	0.0000000E+000	0.0000000E+000	14.9443	0.0000000E+000	0.0000000E+000	0.0000000E+000	-14.9443	-3.74661	-14.9443	-0.000902273
62546.4	0.215612	-0.0420603	0.219676	11.0383	6.40549	-0.00106047	-2.66342	-60.4986	-2.21781	1	9	0.0129513	0.0589564	0	-0.00528706	4.46794	-0.871579	4.55215	-11.0383	-2217.81	11369.1	11583.4	-101.038	0.0000000E+000	0.0000000E+000	0.0000000E+000	101.038	0.0000000E+000	0.0000000E+000	0.0000000E+000	-101.038	0.0000000E+000	0.0000000E+000	0.0000000E+000	11.0383	0.0000000E+000	0.0000000E+000	0.0000000E+000	-11.0383	-5.12626	-11.0383	-0.00156521
46772.9	0.216258	-0.0304075	0.218385	8.00377	7.50348	-0.0010103	-2.50161	-111.904	-2.16951	1	9	0.00928829	0.0425317	0	-0.00610104	4.53447	-0.637582	4.57907	-8.00377	-2169.51	15429.5	15581.3	-98.0038	0.0000000E+000	0.0000000E+000	0.0000000E+000	98.0038	0.0000000E+000	0.0000000E+000	0.0000000E+000	-98.0038	0.0000000E+000	0.0000000E+000	0.0000000E+000	8.00377	0.0000000E+000	0.0000000E+000	0.0000000E+000	-8.00377	-7.11198	-8.00377	-0.000813972
34970.7	0.217039	-0.0215644	0.218108	5.67413	8.32749	-0.000994842	-2.47196	-211.046	-2.06305	1	9	0.00924291	0.0423776	0	-0.00663283	4.56242	-0.453309	4.58488	-5.67413	-2063.06	20764	20866.2	-95.6741	0.0000000E+000	0.0000000E+000	0.0000000E+000	95.6741	0.0000000E+000	0.0000000E+000	0.0000000E+000	-95.6741	0.0000000E+000	0.0000000E+000	0.0000000E+000	5.67413	0.0000000E+000	0.0000000E+000	0.0000000E+000	-5.67413	-10.0647	-5.67413	-0.000531793
26156.1	0.217846	-0.0148481	0.218351	3.89918	9.15149	-0.000998978	-2.42164	-409.805	-1.89499	1	9	0.00989914	0.0453359	0	-0.00724179	4.56918	-0.31143	4.57978	-3.89918	-1894.99	27802.6	27867.1	-93.8992	0.0000000E+000	0.0000000E+000	0.0000000E+000	93.8992	0.0000000E+000	0.0000000E+000	0.0000000E+000	-93.8992	0.0000000E+000	0.0000000E+000	0.0000000E+000	3.89918	0.0000000E+000	0.0000000E+000	0.0000000E+000	-3.89918	-14.6716	-3.89918	-0.000608964
19559.1	0.218691	-0.00987113	0.218914	2.58442	9.97548	-0.000987633	-2.44322	-824.337	-1.67607	1	9	0.0102891	0.0470009	0	-0.00769682	4.56337	-0.205978	4.56801	-2.58442	-1676.07	37132.7	37170.5	-92.5844	0.0000000E+000	0.0000000E+000	0.0000000E+000	92.5844	0.0000000E+000	0.0000000E+000	0.0000000E+000	-92.5844	0.0000000E+000	0.0000000E+000	0.0000000E+000	2.58442	0.0000000E+000	0.0000000E+000	0.0000000E+000	-2.58442	-22.1546	-2.58442	-0.000455026
14622.9	0.219502	-0.00625882	0.219591	1.63328	10.7995	-0.000981728	-2.42791	-1738.97	-1.4127	1	9	0.0104639	0.0476517	0	-0.00822607	4.55207	-0.129797	4.55392	-1.63328	-1412.7	49544.5	49564.6	-91.6333	0.0000000E+000	0.0000000E+000	0.0000000E+000	91.6333	0.0000000E+000	0.0000000E+000	0.0000000E+000	-91.6333	0.0000000E+000	0.0000000E+000	0.0000000E+000	1.63328	0.0000000E+000	0.0000000E+000	0.0000000E+000	-1.63328	-35.0708	-1.63328	-0.000529252
10939.4	0.220197	-0.00358286	0.220226	0.932188	11.6235	-0.000990856	-2.42668	-4060.68	-1.07478	1	9	0.0104225	0.0473262	0	-0.00881788	4.54019	-0.0738742	4.54079	-0.932188	-1074.79	66054.5	66063.2	-90.9322	0.0000000E+000	0.0000000E+000	0.0000000E+000	90.9322	0.0000000E+000	0.0000000E+000	0.0000000E+000	-90.9322	0.0000000E+000	0.0000000E+000	0.0000000E+000	0.932188	0.0000000E+000	0.0000000E+000	0.0000000E+000	-0.932188	-61.4584	-0.932188	-0.00059181
8178.46	0.22105	-0.00174644	0.221057	0.452665	12.5414	-0.000990204	-2.40713	-11142.8	-0.695496	1	9	0.0104388	0.0472221	0	-0.0095345	4.52358	-0.0357393	4.52372	-0.452665	-695.499	88030.1	88032.8	-90.4527	0.0000000E+000	0.0000000E+000	0.0000000E+000	90.4527	0.0000000E+000	0.0000000E+000	0.0000000E+000	-90.4527	0.0000000E+000	0.0000000E+000	0.0000000E+000	0.452665	0.0000000E+000	0.0000000E+000	0.0000000E+000	-0.452665	-126.572	-0.452665	-0.00071662
6115.42	0.221841	-0.00046173	0.221841	0.119253	13.6927	-0.00100589	-2.38779	-56364.5	-0.244173	1	9	0.0102364	0.0461427	0	-0.010322	4.50772	-0.00938217	4.50773	-0.119253	-244.177	117314	117314	-90.1193	0.0000000E+000	0.0000000E+000	0.0000000E+000	90.1193	0.0000000E+000	0.0000000E+000	0.0000000E+000	-90.1193	0.0000000E+000	0.0000000E+000	0.0000000E+000	0.119253	0.0000000E+000	0.0000000E+000	0.0000000E+000	-0.119253	-480.456	-0.119253	-0.000787454
4571.46	0.222508	0.000522073	0.222509	-0.134434	15.0307	-0.000985695	-2.33742	66685.8	0.367115	1	9	0.0101808	0.0457548	0	-0.0112008	4.49419	0.0105448	4.49421	0.134434	367.106	156465	156465	-89.8656	0.0000000E+000	0.0000000E+000	0.0000000E+000	89.8656	0.0000000E+000	0.0000000E+000	0.0000000E+000	-89.8656	0.0000000E+000	0.0000000E+000	0.0000000E+000	-0.134434	0.0000000E+000	0.0000000E+000	0.0000000E+000	0.134434	426.201	0.134434	-0.000878797
3421.09	0.223103	0.00115043	0.223106	-0.295444	16.1467	-0.000979939	-2.3471	40438.4	1.07522	1	9	0.0107644	0.0482478	0	-0.0119468	4.48212	0.0231122	4.48218	0.295444	1075.2	208516	208519	-89.7046	0.0000000E+000	0.0000000E+000	0.0000000E+000	89.7046	0.0000000E+000	0.0000000E+000	0.0000000E+000	-89.7046	0.0000000E+000	0.0000000E+000	0.0000000E+000	-0.295444	0.0000000E+000	0.0000000E+000	0.0000000E+000	0.295444	193.929	0.295444	-0.000746085
2567.54	0.223607	0.0016482	0.223613	-0.422318	17.484	-0.00098685	-2.35586	37609.2	2.04325	1	9	0.0101961	0.0455972	0	-0.0128457	4.4719	0.0329623	4.47202	0.422318	2043.24	277201	277209	-89.5777	0.0000000E+000	0.0000000E+000	0.0000000E+000	89.5777	0.0000000E+000	0.0000000E+000	0.0000000E+000	-89.5777	0.0000000E+000	0.0000000E+000	0.0000000E+000	-0.422318	0.0000000E+000	0.0000000E+000	0.0000000E+000	0.422318	135.667	0.422318	-0.000898837
1913.16	0.224284	0.00183751	0.224291	-0.469401	18.5999	-0.000991861	-2.34676	45273	3.03859	1	9	0.0103969	0.0463546	0	-0.0135517	4.45834	0.0365262	4.45849	0.469401	3038.57	370887	370899	-89.5306	0.0000000E+000	0.0000000E+000	0.0000000E+000	89.5306	0.0000000E+000	0.0000000E+000	0.0000000E+000	-89.5306	0.0000000E+000	0.0000000E+000	0.0000000E+000	-0.469401	0.0000000E+000	0.0000000E+000	0.0000000E+000	0.469401	122.059	0.469401	-0.000706058
1430.46	0.224828	0.00206108	0.224837	-0.525238	19.7157	-0.000980219	-2.33219	53982.1	4.53633	1	9	0.010507	0.0467318	0	-0.0143099	4.44748	0.0407718	4.44767	0.525238	4536.33	494833	494854	-89.4748	0.0000000E+000	0.0000000E+000	0.0000000E+000	89.4748	0.0000000E+000	0.0000000E+000	0.0000000E+000	-89.4748	0.0000000E+000	0.0000000E+000	0.0000000E+000	-0.525238	0.0000000E+000	0.0000000E+000	0.0000000E+000	0.525238	109.082	0.525238	-0.000758161
1068.97	0.225277	0.00207366	0.225286	-0.527389	20.8319	-0.000987148	-2.34329	71798.6	6.08304	1	9	0.0105659	0.0468999	0	-0.0150753	4.43861	0.0408571	4.4388	0.527389	6083.05	660846	660874	-89.4726	0.0000000E+000	0.0000000E+000	0.0000000E+000	89.4726	0.0000000E+000	0.0000000E+000	0.0000000E+000	-89.4726	0.0000000E+000	0.0000000E+000	0.0000000E+000	-0.527389	0.0000000E+000	0.0000000E+000	0.0000000E+000	0.527389	108.637	0.527389	-0.000765447
800.256	0.225787	0.00218	0.225798	-0.553179	21.9477	-0.00098875	-2.35159	91229.4	8.5037	1	9	0.0106027	0.0469564	0	-0.0157871	4.42853	0.0427579	4.42874	0.553179	8503.66	880747	880788	-89.4468	0.0000000E+000	0.0000000E+000	0.0000000E+000	89.4468	0.0000000E+000	0.0000000E+000	0.0000000E+000	-89.4468	0.0000000E+000	0.0000000E+000	0.0000000E+000	-0.553179	0.0000000E+000	0.0000000E+000	0.0000000E+000	0.553179	103.572	0.553179	-0.000711802
597.895	0.226299	0.00238037	0.226311	-0.602654	23.0684	-0.000988024	-2.34172	111828	12.3716	1	9	0.0106194	0.046924	0	-0.0164767	4.41844	0.0464762	4.41869	0.602654	12371.6	1.17615e+06	1.17622e+06	-89.3973	0.0000000E+000	0.0000000E+000	0.0000000E+000	89.3973	0.0000000E+000	0.0000000E+000	0.0000000E+000	-89.3973	0.0000000E+000	0.0000000E+000	0.0000000E+000	-0.602654	0.0000000E+000	0.0000000E+000	0.0000000E+000	0.602654	95.069	0.602654	-0.000689607
447.434	0.226878	0.00232478	0.22689	-0.587079	24.1787	-0.000983572	-2.35381	153006	16.0636	1	9	0.0106293	0.0468478	0	-0.0172119	4.40719	0.0451596	4.40742	0.587079	16063.6	1.56766e+06	1.56775e+06	-89.4129	0.0000000E+000	0.0000000E+000	0.0000000E+000	89.4129	0.0000000E+000	0.0000000E+000	0.0000000E+000	-89.4129	0.0000000E+000	0.0000000E+000	0.0000000E+000	-0.587079	0.0000000E+000	0.0000000E+000	0.0000000E+000	0.587079	97.5913	0.587079	-0.000735174
334.679	0.227132	0.002427	0.227145	-0.612207	25.295	-0.000975357	-2.34107	195940	22.3695	1	9	0.0106332	0.0468123	0	-0.0179278	4.40223	0.0470397	4.40248	0.612207	22369.5	2.09346e+06	2.09358e+06	-89.3878	0.0000000E+000	0.0000000E+000	0.0000000E+000	89.3878	0.0000000E+000	0.0000000E+000	0.0000000E+000	-89.3878	0.0000000E+000	0.0000000E+000	0.0000000E+000	-0.612207	0.0000000E+000	0.0000000E+000	0.0000000E+000	0.612207	93.5854	0.612207	-0.000715892
250.08	0.227253	0.00261701	0.227268	-0.659783	26.4107	-0.000984932	-2.36403	243184	32.2457	1	9	0.0106331	0.0467866	0	-0.0186954	4.39981	0.0506677	4.4001	0.659783	32245.7	2.80011e+06	2.80029e+06	-89.3402	0.0000000E+000	0.0000000E+000	0.0000000E+000	89.3402	0.0000000E+000	0.0000000E+000	0.0000000E+000	-89.3402	0.0000000E+000	0.0000000E+000	0.0000000E+000	-0.659783	0.0000000E+000	0.0000000E+000	0.0000000E+000	0.659783	86.8366	0.659783	-0.000767575
186.974	0.227683	0.00280877	0.2277	-0.706782	27.5167	-0.00098074	-2.36321	303056	46.1133	1	9	0.0106388	0.046723	0	-0.0194766	4.3914	0.0541737	4.39174	0.706782	46113.1	3.73802e+06	3.7383e+06	-89.2932	0.0000000E+000	0.0000000E+000	0.0000000E+000	89.2932	0.0000000E+000	0.0000000E+000	0.0000000E+000	-89.2932	0.0000000E+000	0.0000000E+000	0.0000000E+000	-0.706782	0.0000000E+000	0.0000000E+000	0.0000000E+000	0.706782	81.0616	0.706782	-0.000781255
139.866	0.227928	0.00303572	0.227948	-0.763065	28.6329	-0.000992346	-2.36377	374841	66.4812	1	9	0.0106336	0.046649	0	-0.0202237	4.38658	0.0584238	4.38697	0.763065	66480.9	4.99154e+06	4.99198e+06	-89.2369	0.0000000E+000	0.0000000E+000	0.0000000E+000	89.2369	0.0000000E+000	0.0000000E+000	0.0000000E+000	-89.2369	0.0000000E+000	0.0000000E+000	0.0000000E+000	-0.763065	0.0000000E+000	0.0000000E+000	0.0000000E+000	0.763065	75.082	0.763065	-0.000747046
104.632	0.228365	0.00329782	0.228388	-0.827353	29.7535	-0.000990669	-2.3645	461243	96.1691	1	9	0.0106345	0.0465632	0	-0.0209471	4.37805	0.0632235	4.3785	0.827353	96169.3	6.65943e+06	6.66013e+06	-89.1726	0.0000000E+000	0.0000000E+000	0.0000000E+000	89.1726	0.0000000E+000	0.0000000E+000	0.0000000E+000	-89.1726	0.0000000E+000	0.0000000E+000	0.0000000E+000	-0.827353	0.0000000E+000	0.0000000E+000	0.0000000E+000	0.827353	69.2471	0.827353	-0.000723414
78.2228	0.228901	0.00374617	0.228932	-0.937614	30.8933	-0.000980349	-2.34965	543124	145.433	1	9	0.0106367	0.0464622	0	-0.0216973	4.36753	0.0714787	4.36812	0.937614	145433	8.88634e+06	8.88753e+06	-89.0624	0.0000000E+000	0.0000000E+000	0.0000000E+000	89.0624	0.0000000E+000	0.0000000E+000	0.0000000E+000	-89.0624	0.0000000E+000	0.0000000E+000	0.0000000E+000	-0.937614	0.0000000E+000	0.0000000E+000	0.0000000E+000	0.937614	61.1026	0.937614	-0.000750169
58.5206	0.229475	0.00408362	0.229511	-1.0195	32.0338	-0.000989663	-2.35948	665987	210.839	1	9	0.0106378	0.0463501	0	-0.0224105	4.3564	0.0775245	4.35709	1.0195	210839	1.18478e+07	1.18497e+07	-88.9805	0.0000000E+000	0.0000000E+000	0.0000000E+000	88.9805	0.0000000E+000	0.0000000E+000	0.0000000E+000	-88.9805	0.0000000E+000	0.0000000E+000	0.0000000E+000	-1.0195	0.0000000E+000	0.0000000E+000	0.0000000E+000	1.0195	56.1938	1.0195	-0.000713249
43.7267	0.230055	0.00451293	0.2301	-1.12381	33.1796	-0.000986571	-2.33732	806519	310.242	1	9	0.0106369	0.0462275	0	-0.0231483	4.34511	0.0852367	4.34594	1.12381	310241	1.58152e+07	1.58182e+07	-88.8762	0.0000000E+000	0.0000000E+000	0.0000000E+000	88.8762	0.0000000E+000	0.0000000E+000	0.0000000E+000	-88.8762	0.0000000E+000	0.0000000E+000	0.0000000E+000	-1.12381	0.0000000E+000	0.0000000E+000	0.0000000E+000	1.12381	50.9769	1.12381	-0.000737797
32.7078	0.230678	0.00509762	0.230734	-1.26594	34.3658	-0.000988546	-2.33259	954555	465.921	1	9	0.0106343	0.0460889	0	-0.0238707	4.33293	0.0957511	4.33399	1.26594	465919	2.10839e+07	2.1089e+07	-88.7341	0.0000000E+000	0.0000000E+000	0.0000000E+000	88.7341	0.0000000E+000	0.0000000E+000	0.0000000E+000	-88.7341	0.0000000E+000	0.0000000E+000	0.0000000E+000	-1.26594	0.0000000E+000	0.0000000E+000	0.0000000E+000	1.26594	45.2521	1.26594	-0.000722361
24.4446	0.231493	0.00578703	0.231565	-1.43202	35.5053	-0.000985118	-2.35172	1.12507e+06	702.66	1	9	0.0106344	0.0459239	0	-0.0246416	4.31708	0.107922	4.31843	1.43202	702660	2.81078e+07	2.81166e+07	-88.568	0.0000000E+000	0.0000000E+000	0.0000000E+000	88.568	0.0000000E+000	0.0000000E+000	0.0000000E+000	-88.568	0.0000000E+000	0.0000000E+000	0.0000000E+000	-1.43202	0.0000000E+000	0.0000000E+000	0.0000000E+000	1.43202	40.0021	1.43202	-0.000770883
18.2963	0.232367	0.00651888	0.232458	-1.60697	36.7134	-0.000989263	-2.36217	1.3344e+06	1049.4	1	9	0.0106352	0.0457509	0	-0.0254043	4.30015	0.120638	4.30185	1.60697	1.0494e+06	3.74061e+07	3.74208e+07	-88.393	0.0000000E+000	0.0000000E+000	0.0000000E+000	88.393	0.0000000E+000	0.0000000E+000	0.0000000E+000	-88.393	0.0000000E+000	0.0000000E+000	0.0000000E+000	-1.60697	0.0000000E+000	0.0000000E+000	0.0000000E+000	1.60697	35.6452	1.60697	-0.000762723
13.6901	0.233396	0.0075048	0.233517	-1.8417	37.9249	-0.000979203	-2.35223	1.54908e+06	1599.98	1	9	0.0106383	0.045557	0	-0.0264702	4.28014	0.137627	4.28235	1.8417	1.59998e+06	4.97588e+07	4.97846e+07	-88.1583	0.0000000E+000	0.0000000E+000	0.0000000E+000	88.1583	0.0000000E+000	0.0000000E+000	0.0000000E+000	-88.1583	0.0000000E+000	0.0000000E+000	0.0000000E+000	-1.8417	0.0000000E+000	0.0000000E+000	0.0000000E+000	1.8417	31.0996	1.8417	-0.00106591
10.2258	0.234472	0.00854692	0.234628	-2.08761	39.0183	-0.000980815	-2.37171	1.82102e+06	2416.43	1	9	0.0106347	0.0453259	0	-0.02703	4.25924	0.155257	4.26207	2.08761	2.41643e+06	6.62911e+07	6.63352e+07	-87.9124	0.0000000E+000	0.0000000E+000	0.0000000E+000	87.9124	0.0000000E+000	0.0000000E+000	0.0000000E+000	-87.9124	0.0000000E+000	0.0000000E+000	0.0000000E+000	-2.08761	0.0000000E+000	0.0000000E+000	0.0000000E+000	2.08761	27.4335	2.08761	-0.000559829
7.64432	0.235997	0.00986313	0.236203	-2.3932	40.4425	-0.000983991	-2.34053	2.11089e+06	3680.65	1	9	0.0106403	0.0450474	0	-0.0281703	4.22995	0.176784	4.23364	2.3932	3.68065e+06	8.80677e+07	8.81445e+07	-87.6068	0.0000000E+000	0.0000000E+000	0.0000000E+000	87.6068	0.0000000E+000	0.0000000E+000	0.0000000E+000	-87.6068	0.0000000E+000	0.0000000E+000	0.0000000E+000	-2.3932	0.0000000E+000	0.0000000E+000	0.0000000E+000	2.3932	23.9272	2.3932	-0.0011403
5.71925	0.237478	0.0112495	0.237744	-2.71212	41.4326	-0.00100127	-2.47632	2.4737e+06	5538.53	1	9	0.0106359	0.0447367	0	-0.0287537	4.20149	0.199028	4.2062	2.71212	5.53852e+06	1.16919e+08	1.1705e+08	-87.2879	0.0000000E+000	0.0000000E+000	0.0000000E+000	87.2879	0.0000000E+000	0.0000000E+000	0.0000000E+000	-87.2879	0.0000000E+000	0.0000000E+000	0.0000000E+000	-2.71212	0.0000000E+000	0.0000000E+000	0.0000000E+000	2.71212	21.1101	2.71212	-0.000583371
4.2738	0.239511	0.0127721	0.239851	-3.05245	42.7188	-0.000983739	-2.44806	2.91571e+06	8267.69	1	9	0.0106383	0.0443536	0	-0.0292603	4.16333	0.222013	4.16925	3.05245	8.26768e+06	1.55041e+08	1.55262e+08	-86.9476	0.0000000E+000	0.0000000E+000	0.0000000E+000	86.9476	0.0000000E+000	0.0000000E+000	0.0000000E+000	-86.9476	0.0000000E+000	0.0000000E+000	0.0000000E+000	-3.05245	0.0000000E+000	0.0000000E+000	0.0000000E+000	3.05245	18.7527	3.05245	-0.000506607
3.1966	0.241587	0.0146804	0.242033	-3.47738	44.4017	-0.000988508	-2.38802	3.39152e+06	12477.3	1	9	0.0106359	0.0439439	0	-0.0304408	4.12406	0.250604	4.13167	3.47738	1.24773e+07	2.05332e+08	2.05711e+08	-86.5226	0.0000000E+000	0.0000000E+000	0.0000000E+000	86.5226	0.0000000E+000	0.0000000E+000	0.0000000E+000	-86.5226	0.0000000E+000	0.0000000E+000	0.0000000E+000	-3.47738	0.0000000E+000	0.0000000E+000	0.0000000E+000	3.47738	16.4565	3.47738	-0.00118054
2.39354	0.244128	0.0166422	0.244694	-3.89982	46.6157	-0.00098105	-2.37457	3.9955e+06	18481.7	1	9	0.0106378	0.0434738	0	-0.0328598	4.07727	0.277947	4.08674	3.89982	1.84818e+07	2.71113e+08	2.71742e+08	-86.1002	0.0000000E+000	0.0000000E+000	0.0000000E+000	86.1002	0.0000000E+000	0.0000000E+000	0.0000000E+000	-86.1002	0.0000000E+000	0.0000000E+000	0.0000000E+000	-3.89982	0.0000000E+000	0.0000000E+000	0.0000000E+000	3.89982	14.6692	3.89982	-0.00241901
1.78776	0.246972	0.0189531	0.247698	-4.3884	49.5483	-0.000975684	-2.37898	4.69711e+06	27501	1	9	0.0106378	0.0429468	0	-0.0337527	4.02534	0.308913	4.03718	4.3884	2.7501e+07	3.58356e+08	3.59409e+08	-85.6116	0.0000000E+000	0.0000000E+000	0.0000000E+000	85.6116	0.0000000E+000	0.0000000E+000	0.0000000E+000	-85.6116	0.0000000E+000	0.0000000E+000	0.0000000E+000	-4.3884	0.0000000E+000	0.0000000E+000	0.0000000E+000	4.3884	13.0307	4.3884	-0.000892811
1.33684	0.25014	0.0212109	0.251038	-4.84686	53.4431	-0.000966492	-2.32821	5.61282e+06	40070.2	1	9	0.0106387	0.0423788	0	-0.0350431	3.96922	0.336574	3.98346	4.84686	4.00702e+07	4.72547e+08	4.74243e+08	-85.1531	0.0000000E+000	0.0000000E+000	0.0000000E+000	85.1531	0.0000000E+000	0.0000000E+000	0.0000000E+000	-85.1531	0.0000000E+000	0.0000000E+000	0.0000000E+000	-4.84686	0.0000000E+000	0.0000000E+000	0.0000000E+000	4.84686	11.793	4.84686	-0.00129046
0.953907	0.253742	0.0241654	0.25489	-5.44023	59.7196	-0.000965765	-2.41879	6.90429e+06	62058.7	1	10	0.0106365	0.0417297	0	-0.0401131	3.90559	0.371954	3.92326	5.44023	6.20587e+07	6.51629e+08	6.54577e+08	-84.5598	0.0000000E+000	0.0000000E+000	0.0000000E+000	84.5598	0.0000000E+000	0.0000000E+000	0.0000000E+000	-84.5598	0.0000000E+000	0.0000000E+000	0.0000000E+000	-5.44023	0.0000000E+000	0.0000000E+000	0.0000000E+000	5.44023	10.5002	5.44023	-0.00507002
0.71204	0.258462	0.0276343	0.259935	-6.10278	66.961	-0.000961656	-2.39643	8.0885e+06	91418.8	1	10	0.0106361	0.0409182	0	-0.047222	3.82532	0.408997	3.84712	6.10278	9.14188e+07	8.55034e+08	8.59907e+08	-83.8972	0.0000000E+000	0.0000000E+000	0.0000000E+000	83.8972	0.0000000E+000	0.0000000E+000	0.0000000E+000	-83.8972	0.0000000E+000	0.0000000E+000	0.0000000E+000	-6.10278	0.0000000E+000	0.0000000E+000	0.0000000E+000	6.10278	9.35294	6.10278	-0.00710887
0.531897	0.263529	0.0309998	0.265347	-6.70905	76.6289	-0.000967517	-2.42854	9.65237e+06	131742	1	10	0.0106371	0.0400875	0	-0.0550163	3.74285	0.440283	3.76866	6.70905	1.31742e+08	1.11994e+09	1.12766e+09	-83.291	0.0000000E+000	0.0000000E+000	0.0000000E+000	83.291	0.0000000E+000	0.0000000E+000	0.0000000E+000	-83.291	0.0000000E+000	0.0000000E+000	0.0000000E+000	-6.70905	0.0000000E+000	0.0000000E+000	0.0000000E+000	6.70905	8.50101	6.70905	-0.00779431
0.397745	0.268877	0.034571	0.27109	-7.32665	89.5326	-0.000967773	-2.39633	1.15745e+07	188235	1	10	0.0106382	0.0392425	0	-0.0621814	3.65869	0.470419	3.68881	7.32665	1.88235e+08	1.464e+09	1.47605e+09	-82.6733	0.0000000E+000	0.0000000E+000	0.0000000E+000	82.6733	0.0000000E+000	0.0000000E+000	0.0000000E+000	-82.6733	0.0000000E+000	0.0000000E+000	0.0000000E+000	-7.32665	0.0000000E+000	0.0000000E+000	0.0000000E+000	7.32665	7.77752	7.32665	-0.00716506
0.297189	0.274404	0.0380466	0.277029	-7.89382	106.777	-0.000969965	-2.41466	1.40758e+07	265492	1	10	0.0106365	0.0383948	0	-0.0695483	3.57552	0.495751	3.60973	7.89382	2.65492e+08	1.91482e+09	1.93313e+09	-82.1062	0.0000000E+000	0.0000000E+000	0.0000000E+000	82.1062	0.0000000E+000	0.0000000E+000	0.0000000E+000	-82.1062	0.0000000E+000	0.0000000E+000	0.0000000E+000	-7.89382	0.0000000E+000	0.0000000E+000	0.0000000E+000	7.89382	7.21233	7.89382	-0.00736689
0.222085	0.280763	0.0423387	0.283937	-8.57551	129.831	-0.000974578	-2.43504	1.69264e+07	376352	1	10	0.0106371	0.0374629	0	-0.0804563	3.48253	0.525161	3.52191	8.57551	3.76352e+08	2.49572e+09	2.52394e+09	-81.4245	0.0000000E+000	0.0000000E+000	0.0000000E+000	81.4245	0.0000000E+000	0.0000000E+000	0.0000000E+000	-81.4245	0.0000000E+000	0.0000000E+000	0.0000000E+000	-8.57551	0.0000000E+000	0.0000000E+000	0.0000000E+000	8.57551	6.63136	8.57551	-0.0109081
0.165554	0.288452	0.0481814	0.292449	-9.48281	160.734	-0.000970553	-2.4204	1.99527e+07	541577	1	10	0.0106368	0.0363714	0	-0.0998123	3.37268	0.563353	3.4194	9.48281	5.41577e+08	3.24232e+09	3.28723e+09	-80.5172	0.0000000E+000	0.0000000E+000	0.0000000E+000	80.5172	0.0000000E+000	0.0000000E+000	0.0000000E+000	-80.5172	0.0000000E+000	0.0000000E+000	0.0000000E+000	-9.48281	0.0000000E+000	0.0000000E+000	0.0000000E+000	9.48281	5.9868	9.48281	-0.019356
0.123914	0.29814	0.0547152	0.303119	-10.3993	201.999	-0.000969244	-2.40706	2.34743e+07	764863	1	10	0.0106362	0.0350894	0	-0.132071	3.24484	0.5955	3.29903	10.3993	7.64863e+08	4.16769e+09	4.23729e+09	-79.6007	0.0000000E+000	0.0000000E+000	0.0000000E+000	79.6007	0.0000000E+000	0.0000000E+000	0.0000000E+000	-79.6007	0.0000000E+000	0.0000000E+000	0.0000000E+000	-10.3993	0.0000000E+000	0.0000000E+000	0.0000000E+000	10.3993	5.44894	10.3993	-0.032259
0.0925652	0.310562	0.0594859	0.316207	-10.8433	257.217	-0.000969638	-2.41713	2.8904e+07	1.02292e+06	1	10	0.0106372	0.0336398	0	-0.179973	3.10602	0.594935	3.16248	10.8433	1.02292e+09	5.34043e+09	5.43751e+09	-79.1567	0.0000000E+000	0.0000000E+000	0.0000000E+000	79.1567	0.0000000E+000	0.0000000E+000	0.0000000E+000	-79.1567	0.0000000E+000	0.0000000E+000	0.0000000E+000	-10.8433	0.0000000E+000	0.0000000E+000	0.0000000E+000	10.8433	5.22077	10.8433	-0.0479012
0.0690785	0.324932	0.0621053	0.330814	-10.8206	331.188	-0.000964037	-2.42336	3.70978e+07	1.30749e+06	1	10	0.0106302	0.0321334	0	-0.24232	2.9691	0.567494	3.02285	10.8206	1.30749e+09	6.84073e+09	6.96456e+09	-79.1794	0.0000000E+000	0.0000000E+000	0.0000000E+000	79.1794	0.0000000E+000	0.0000000E+000	0.0000000E+000	-79.1794	0.0000000E+000	0.0000000E+000	0.0000000E+000	-10.8206	0.0000000E+000	0.0000000E+000	0.0000000E+000	10.8206	5.23195	10.8206	-0.0623476
0.0515901	0.340239	0.0623418	0.345904	-10.3831	430.214	-0.000965718	-2.38553	4.94851e+07	1.6074e+06	1	10	0.0106349	0.0307452	0	-0.315177	2.84364	0.521038	2.89098	10.3831	1.60739e+09	8.77259e+09	8.91863e+09	-79.6169	0.0000000E+000	0.0000000E+000	0.0000000E+000	79.6169	0.0000000E+000	0.0000000E+000	0.0000000E+000	-79.6169	0.0000000E+000	0.0000000E+000	0.0000000E+000	-10.3831	0.0000000E+000	0.0000000E+000	0.0000000E+000	10.3831	5.45764	10.3831	-0.0728566
0.0385688	0.35485	0.058652	0.359664	-9.38539	562.65	-0.000962315	-2.38458	7.03559e+07	1.87099e+06	1	10	0.0106393	0.0295813	0	-0.395797	2.74315	0.453408	2.78037	9.38539	1.87099e+09	1.13197e+10	1.14733e+10	-80.6146	0.0000000E+000	0.0000000E+000	0.0000000E+000	80.6146	0.0000000E+000	0.0000000E+000	0.0000000E+000	-80.6146	0.0000000E+000	0.0000000E+000	0.0000000E+000	-9.38539	0.0000000E+000	0.0000000E+000	0.0000000E+000	9.38539	6.05008	9.38539	-0.0806199
0.0288152	0.367507	0.0516959	0.371125	-8.00705	739.894	-0.000971109	-2.39244	1.06842e+08	2.07307e+06	1	10	0.0106382	0.0286648	0	-0.489147	2.66824	0.375332	2.69451	8.00705	2.07307e+09	1.47375e+10	1.48826e+10	-81.9929	0.0000000E+000	0.0000000E+000	0.0000000E+000	81.9929	0.0000000E+000	0.0000000E+000	0.0000000E+000	-81.9929	0.0000000E+000	0.0000000E+000	0.0000000E+000	-8.00705	0.0000000E+000	0.0000000E+000	0.0000000E+000	8.00705	7.10902	8.00705	-0.0933502
0.0253603	0.375272	0.044113	0.377856	-6.70432	968.592	-0.000970612	-2.41943	1.42265e+08	1.93901e+06	1	10	0.0106365	0.0281495	0	-0.605484	2.62841	0.308969	2.64651	6.70432	1.93901e+09	1.64953e+10	1.66088e+10	-83.2957	0.0000000E+000	0.0000000E+000	0.0000000E+000	83.2957	0.0000000E+000	0.0000000E+000	0.0000000E+000	-83.2957	0.0000000E+000	0.0000000E+000	0.0000000E+000	-6.70432	0.0000000E+000	0.0000000E+000	0.0000000E+000	6.70432	8.50706	6.70432	-0.116337
0.0190072	0.378956	0.0393009	0.380988	-5.92089	1237.26	-0.000976569	-2.42483	2.13059e+08	2.26715e+06	1	10	0.0106387	0.0279239	0	-0.757248	2.61075	0.270757	2.62475	5.92089	2.26715e+09	2.18608e+10	2.19781e+10	-84.0791	0.0000000E+000	0.0000000E+000	0.0000000E+000	84.0791	0.0000000E+000	0.0000000E+000	0.0000000E+000	-84.0791	0.0000000E+000	0.0000000E+000	0.0000000E+000	-5.92089	0.0000000E+000	0.0000000E+000	0.0000000E+000	5.92089	9.64242	5.92089	-0.151764
0.0142408	0.38389	0.0323618	0.385251	-4.81862	1595.84	-0.000974967	-2.42068	3.45345e+08	2.43686e+06	1	10	0.0106386	0.0276148	0	-0.993333	2.58653	0.218044	2.59571	4.81862	2.43686e+09	2.89071e+10	2.90096e+10	-85.1814	0.0000000E+000	0.0000000E+000	0.0000000E+000	85.1814	0.0000000E+000	0.0000000E+000	0.0000000E+000	-85.1814	0.0000000E+000	0.0000000E+000	0.0000000E+000	-4.81862	0.0000000E+000	0.0000000E+000	0.0000000E+000	4.81862	11.8624	4.81862	-0.236085
0.0106895	0.387674	0.0263868	0.388571	-3.8938	2073.52	-0.000972684	-2.41362	5.64254e+08	2.60201e+06	1	10	0.0106383	0.027378	0	-1.35403	2.56759	0.174762	2.57353	3.8938	2.60201e+09	3.82286e+10	3.8317e+10	-86.1062	0.0000000E+000	0.0000000E+000	0.0000000E+000	86.1062	0.0000000E+000	0.0000000E+000	0.0000000E+000	-86.1062	0.0000000E+000	0.0000000E+000	0.0000000E+000	-3.8938	0.0000000E+000	0.0000000E+000	0.0000000E+000	3.8938	14.6919	3.8938	-0.360701
0.00800561	0.386542	0.0201506	0.387067	-2.98415	2711.33	-0.000972322	-2.45532	9.86594e+08	2.67388e+06	1	10	0.0106378	0.0274832	0	-1.87465	2.58003	0.134498	2.58353	2.98415	2.67387e+09	5.12921e+10	5.13618e+10	-87.0159	0.0000000E+000	0.0000000E+000	0.0000000E+000	87.0159	0.0000000E+000	0.0000000E+000	0.0000000E+000	-87.0159	0.0000000E+000	0.0000000E+000	0.0000000E+000	-2.98415	0.0000000E+000	0.0000000E+000	0.0000000E+000	2.98415	19.1827	2.98415	-0.520617