File: Python/Experiments/RDE/Dicarboxylferrocene/Data/240327-CVEIS-5mM_DiCaFerrocene-1M_NaCl-ReNeutralized-453p5mVvsRef-2000RPM-Ag_AgCl_BLF8-Au_RDE_02_PEIS_C15.mpt
EC-Lab ASCII FILE
Nb header lines : 65

Potentio Electrochemical Impedance Spectroscopy

Run on channel : 15 (SN 19485)
User :
Electrode connection : standard
Potential control : Ewe
Ewe ctrl range : min = -1.00 V, max = 1.00 V
Ewe,I filtering : <None>
Safety Limits :
	Do not start on E overload
Channel : Floating
Acquisition started on : 03/27/2024 16:11:02.884
Loaded Setting File :  C:\Data\mathias\GoldElectrode\240327-CVEIS-5mM_DiCaFerrocene-1M_NaCl-2000RPM-Ag_AgCl_BLF8-Au_RDE.mps
Saved on :
	File : 240327-CVEIS-5mM_DiCaFerrocene-1M_NaCl-ReNeutralized-453p5mVvsRef-2000RPM-Ag_AgCl_BLF8-Au_RDE_02_PEIS_C15.mpr
	Directory : C:\Data\mathias\GoldElectrode\
	Host : 192.168.0.1
Device : VMP-300 (SN 0826)
Address : USB
EC-Lab for windows v11.52 (software)
Internet server v11.52 (firmware)
Command interpretor v11.52 (firmware)
Electrode material :
Initial state :
Electrolyte :
Comments :
Cable : special
Electrode surface area : 0.001 cm²
Characteristic mass : 0.001 g
Equivalent Weight : 0.000 g/eq.
Density : 0.000 g/cm3
Volume (V) : 0.001 cm³
Cycle Definition : Charge/Discharge alternance
Mode                Multi sine
E (V)               0.4535
vs.                 Ref
tE (h:m:s)          0:00:30.0000
record              0
dI                  0.000
unit dI             mA
dt (s)              0.000
fi                  400.000
unit fi             kHz
ff                  100.000
unit ff             mHz
Nd                  10
Points              per decade
spacing             Logarithmic
Va (mV)             14.1
pw                  0.10
Na                  3
corr                0
E range min (V)     -1.000
E range max (V)     1.000
I Range             Auto
Bandwidth           8
nc cycles           2
goto Ns'            0
nr cycles           0
inc. cycle          1

freq/Hz	Re(Z)/Ohm	-Im(Z)/Ohm	|Z|/Ohm	Phase(Z)/deg	time/s	<Ewe>/V	<I>/mA	Cs/µF	Cp/µF	cycle number	I Range	|Ewe|/V	|I|/A	Ns	(Q-Qo)/mA.h	Re(Y)/Ohm-1	Im(Y)/Ohm-1	|Y|/Ohm-1	Phase(Y)/deg	Re(C)/nF	Im(C)/nF	|C|/nF	Phase(C)/deg	Re(M)	Im(M)	|M|	Phase(M)/deg	Re(Permittivity)	Im(Permittivity)	|Permittivity|	Phase(Permittivity)/deg	Re(Resistivity)/Ohm.cm	Im(Resistivity)/Ohm.cm	|Resistivity|/Ohm.cm	Phase(Resistivity)/deg	Re(Conductivity)/mS/cm	Im(Conductivity)/mS/cm	|Conductivity|/mS/cm	Phase(Conductivity)/deg	Tan(Delta)	Loss Angle(Delta)/deg	dq/mA.h
399996	10.9841	2.96692	11.3778	-15.1154	183.171	0.45334	0.136135	0.134109	0.00911917	1	38	0.0134474	0.0011819	0	0.0012943	0.0848498	0.0229188	0.0878906	15.1154	9.11917	33.761	34.9709	-74.8846	0.0000000E+000	0.0000000E+000	0.0000000E+000	74.8846	0.0000000E+000	0.0000000E+000	0.0000000E+000	-74.8846	0.0000000E+000	0.0000000E+000	0.0000000E+000	-15.1154	0.0000000E+000	0.0000000E+000	0.0000000E+000	15.1154	3.7022	74.8846	0.0012943
317705	11.1048	2.46525	11.3752	-12.5166	183.722	0.453388	0.135653	0.203205	0.00954423	1	38	0.014443	0.00126969	0	0.00131477	0.0858214	0.0190522	0.0879107	12.5166	9.54423	42.9924	44.039	-77.4834	0.0000000E+000	0.0000000E+000	0.0000000E+000	77.4834	0.0000000E+000	0.0000000E+000	0.0000000E+000	-77.4834	0.0000000E+000	0.0000000E+000	0.0000000E+000	-12.5166	0.0000000E+000	0.0000000E+000	0.0000000E+000	12.5166	4.50454	77.4834	2.04712e-05
252347	11.1696	2.10365	11.3659	-10.666	184.273	0.453361	0.136055	0.29981	0.0102703	1	38	0.0145538	0.00128048	0	0.00133662	0.0864621	0.0162841	0.0879822	10.666	10.2703	54.5314	55.4901	-79.334	0.0000000E+000	0.0000000E+000	0.0000000E+000	79.334	0.0000000E+000	0.0000000E+000	0.0000000E+000	-79.334	0.0000000E+000	0.0000000E+000	0.0000000E+000	-10.666	0.0000000E+000	0.0000000E+000	0.0000000E+000	10.666	5.3096	79.334	2.18457e-05
200434	11.2482	1.80941	11.3928	-9.13844	184.824	0.453344	0.136763	0.438844	0.0110694	1	38	0.0145649	0.00127843	0	0.0013597	0.0866604	0.0139404	0.0877745	9.13844	11.0694	68.8128	69.6974	-80.8616	0.0000000E+000	0.0000000E+000	0.0000000E+000	80.8616	0.0000000E+000	0.0000000E+000	0.0000000E+000	-80.8616	0.0000000E+000	0.0000000E+000	0.0000000E+000	-9.13844	0.0000000E+000	0.0000000E+000	0.0000000E+000	9.13844	6.2165	80.8616	2.3083e-05
159201	11.3064	1.65467	11.4268	-8.32606	185.375	0.453372	0.136764	0.604176	0.0126689	1	38	0.0145781	0.00127578	0	0.00137957	0.0865912	0.0126725	0.0875136	8.32606	12.6689	86.5664	87.4885	-81.6739	0.0000000E+000	0.0000000E+000	0.0000000E+000	81.6739	0.0000000E+000	0.0000000E+000	0.0000000E+000	-81.6739	0.0000000E+000	0.0000000E+000	0.0000000E+000	-8.32606	0.0000000E+000	0.0000000E+000	0.0000000E+000	8.32606	6.83299	81.6739	1.98736e-05
126447	11.3374	1.55246	11.4432	-7.79718	185.926	0.453366	0.136688	0.810757	0.0149224	1	38	0.0145256	0.00126937	0	0.0014	0.0865806	0.0118557	0.0873885	7.79718	14.9224	108.976	109.993	-82.2028	0.0000000E+000	0.0000000E+000	0.0000000E+000	82.2028	0.0000000E+000	0.0000000E+000	0.0000000E+000	-82.2028	0.0000000E+000	0.0000000E+000	0.0000000E+000	-7.79718	0.0000000E+000	0.0000000E+000	0.0000000E+000	7.79718	7.30285	82.2028	2.04283e-05
100431	11.3876	1.52559	11.4894	-7.6304	186.477	0.453377	0.137103	1.03877	0.0183146	1	38	0.0145215	0.0012639	0	0.00142019	0.0862662	0.011557	0.0870369	7.6304	18.3146	136.708	137.93	-82.3696	0.0000000E+000	0.0000000E+000	0.0000000E+000	82.3696	0.0000000E+000	0.0000000E+000	0.0000000E+000	-82.3696	0.0000000E+000	0.0000000E+000	0.0000000E+000	-7.6304	0.0000000E+000	0.0000000E+000	0.0000000E+000	7.6304	7.46444	82.3696	2.01852e-05
79767.3	11.456	1.5528	11.5608	-7.71911	187.028	0.453371	0.13653	1.28493	0.0231813	1	38	0.0145167	0.00125569	0	0.00144096	0.0857156	0.0116183	0.0864994	7.71911	23.1813	171.023	172.587	-82.2809	0.0000000E+000	0.0000000E+000	0.0000000E+000	82.2809	0.0000000E+000	0.0000000E+000	0.0000000E+000	-82.2809	0.0000000E+000	0.0000000E+000	0.0000000E+000	-7.71911	0.0000000E+000	0.0000000E+000	0.0000000E+000	7.71911	7.37763	82.2809	2.07745e-05
63362.9	11.5431	1.64572	11.6599	-8.11403	187.579	0.453383	0.137228	1.52626	0.0304055	1	38	0.0145373	0.00124678	0	0.00146252	0.0849057	0.0121051	0.0857642	8.11403	30.4055	213.266	215.423	-81.886	0.0000000E+000	0.0000000E+000	0.0000000E+000	81.886	0.0000000E+000	0.0000000E+000	0.0000000E+000	-81.886	0.0000000E+000	0.0000000E+000	0.0000000E+000	-8.11403	0.0000000E+000	0.0000000E+000	0.0000000E+000	8.11403	7.01405	81.886	2.15578e-05
50326.6	11.6577	1.80161	11.7961	-8.78511	188.13	0.453394	0.13718	1.75534	0.0409455	1	38	0.0145321	0.00123194	0	0.00148529	0.0837792	0.0129474	0.0847738	8.78511	40.9455	264.947	268.092	-81.2149	0.0000000E+000	0.0000000E+000	0.0000000E+000	81.2149	0.0000000E+000	0.0000000E+000	0.0000000E+000	-81.2149	0.0000000E+000	0.0000000E+000	0.0000000E+000	-8.78511	0.0000000E+000	0.0000000E+000	0.0000000E+000	8.78511	6.47073	81.2149	2.27667e-05
39971.8	11.7699	2.01472	11.9411	-9.71352	188.681	0.45338	0.137748	1.97629	0.0562592	1	38	0.0145456	0.00121811	0	0.00150521	0.0825438	0.0141295	0.0837444	9.71352	56.2592	328.663	333.443	-80.2865	0.0000000E+000	0.0000000E+000	0.0000000E+000	80.2865	0.0000000E+000	0.0000000E+000	0.0000000E+000	-80.2865	0.0000000E+000	0.0000000E+000	0.0000000E+000	-9.71352	0.0000000E+000	0.0000000E+000	0.0000000E+000	9.71352	5.84194	80.2865	1.99249e-05
31751	11.9363	2.2945	12.1548	-10.8812	189.232	0.453381	0.137141	2.18461	0.0778489	1	38	0.0145016	0.00119307	0	0.00152734	0.0807927	0.0155307	0.0822719	10.8812	77.8489	404.981	412.395	-79.1188	0.0000000E+000	0.0000000E+000	0.0000000E+000	79.1188	0.0000000E+000	0.0000000E+000	0.0000000E+000	-79.1188	0.0000000E+000	0.0000000E+000	0.0000000E+000	-10.8812	0.0000000E+000	0.0000000E+000	0.0000000E+000	10.8812	5.20213	79.1188	2.21287e-05
25219	12.1198	2.61596	12.3989	-12.18	189.783	0.453393	0.13656	2.41246	0.107389	1	38	0.0145081	0.00117011	0	0.00154785	0.078837	0.0170164	0.0806526	12.18	107.389	497.534	508.992	-77.82	0.0000000E+000	0.0000000E+000	0.0000000E+000	77.82	0.0000000E+000	0.0000000E+000	0.0000000E+000	-77.82	0.0000000E+000	0.0000000E+000	0.0000000E+000	-12.18	0.0000000E+000	0.0000000E+000	0.0000000E+000	12.18	4.633	77.82	2.05086e-05
20032.3	12.3411	3.03979	12.71	-13.8373	190.335	0.453376	0.13682	2.61364	0.149501	1	38	0.0144298	0.00113532	0	0.0015686	0.0763951	0.0188172	0.0786784	13.8373	149.501	606.953	625.094	-76.1627	0.0000000E+000	0.0000000E+000	0.0000000E+000	76.1627	0.0000000E+000	0.0000000E+000	0.0000000E+000	-76.1627	0.0000000E+000	0.0000000E+000	0.0000000E+000	-13.8373	0.0000000E+000	0.0000000E+000	0.0000000E+000	13.8373	4.05986	76.1627	2.07504e-05
15912.6	12.6029	3.53771	13.0901	-15.6797	190.886	0.453387	0.137033	2.8272	0.206499	1	38	0.014373	0.00109801	0	0.00159094	0.0735511	0.0206461	0.0763939	15.6797	206.499	735.643	764.076	-74.3203	0.0000000E+000	0.0000000E+000	0.0000000E+000	74.3203	0.0000000E+000	0.0000000E+000	0.0000000E+000	-74.3203	0.0000000E+000	0.0000000E+000	0.0000000E+000	-15.6797	0.0000000E+000	0.0000000E+000	0.0000000E+000	15.6797	3.56246	74.3203	2.23365e-05
12637.3	12.9221	4.13208	13.5667	-17.7326	191.437	0.45336	0.13715	3.04787	0.28274	1	38	0.0143578	0.00105831	0	0.00161316	0.0702079	0.0224503	0.07371	17.7326	282.74	884.201	928.307	-72.2674	0.0000000E+000	0.0000000E+000	0.0000000E+000	72.2674	0.0000000E+000	0.0000000E+000	0.0000000E+000	-72.2674	0.0000000E+000	0.0000000E+000	0.0000000E+000	-17.7326	0.0000000E+000	0.0000000E+000	0.0000000E+000	17.7326	3.12726	72.2674	2.22223e-05
10039.3	13.2969	4.8342	14.1484	-19.9791	191.989	0.453377	0.136893	3.27937	0.382845	1	38	0.0141726	0.00100171	0	0.00163255	0.0664255	0.0241495	0.0706792	19.9791	382.845	1053.05	1120.49	-70.0209	0.0000000E+000	0.0000000E+000	0.0000000E+000	70.0209	0.0000000E+000	0.0000000E+000	0.0000000E+000	-70.0209	0.0000000E+000	0.0000000E+000	0.0000000E+000	-19.9791	0.0000000E+000	0.0000000E+000	0.0000000E+000	19.9791	2.75059	70.0209	1.93965e-05
7967.67	13.7768	5.68354	14.9031	-22.4183	192.619	0.453245	0.135657	3.51455	0.511155	1	38	0.0144472	0.000969409	0	0.00165476	0.0620289	0.0255896	0.0671	22.4183	511.155	1239.03	1340.33	-67.5817	0.0000000E+000	0.0000000E+000	0.0000000E+000	67.5817	0.0000000E+000	0.0000000E+000	0.0000000E+000	-67.5817	0.0000000E+000	0.0000000E+000	0.0000000E+000	-22.4183	0.0000000E+000	0.0000000E+000	0.0000000E+000	22.4183	2.42399	67.5817	2.22089e-05
6332.63	14.3677	6.66705	15.8392	-24.8927	193.191	0.453255	0.137014	3.76966	0.667884	1	38	0.0152301	0.000961543	0	0.0016766	0.057269	0.0265745	0.0631343	24.8927	667.884	1439.32	1586.73	-65.1073	0.0000000E+000	0.0000000E+000	0.0000000E+000	65.1073	0.0000000E+000	0.0000000E+000	0.0000000E+000	-65.1073	0.0000000E+000	0.0000000E+000	0.0000000E+000	-24.8927	0.0000000E+000	0.0000000E+000	0.0000000E+000	24.8927	2.15504	65.1073	2.18364e-05
5028.39	15.0938	7.78771	16.9845	-27.2916	194.095	0.45322	0.13594	4.06426	0.854472	1	38	0.0142389	0.000838348	0	0.00171	0.0523234	0.0269964	0.0588774	27.2916	854.472	1656.1	1863.54	-62.7084	0.0000000E+000	0.0000000E+000	0.0000000E+000	62.7084	0.0000000E+000	0.0000000E+000	0.0000000E+000	-62.7084	0.0000000E+000	0.0000000E+000	0.0000000E+000	-27.2916	0.0000000E+000	0.0000000E+000	0.0000000E+000	27.2916	1.93816	62.7084	3.34017e-05
3993.72	15.9097	9.08243	18.3197	-29.7209	194.778	0.453257	0.136213	4.38774	1.07848	1	38	0.014354	0.000783528	0	0.0017361	0.0474054	0.0270625	0.0545862	29.7209	1078.48	1889.17	2175.33	-60.2791	0.0000000E+000	0.0000000E+000	0.0000000E+000	60.2791	0.0000000E+000	0.0000000E+000	0.0000000E+000	-60.2791	0.0000000E+000	0.0000000E+000	0.0000000E+000	-29.7209	0.0000000E+000	0.0000000E+000	0.0000000E+000	29.7209	1.7517	60.2791	2.60945e-05
3171.96	16.9198	10.5871	19.9591	-32.0353	195.462	0.453244	0.136377	4.73931	1.33349	1	38	0.0143723	0.000720087	0	0.00176123	0.042473	0.0265764	0.0501025	32.0353	1333.49	2131.11	2513.92	-57.9647	0.0000000E+000	0.0000000E+000	0.0000000E+000	57.9647	0.0000000E+000	0.0000000E+000	0.0000000E+000	-57.9647	0.0000000E+000	0.0000000E+000	0.0000000E+000	-32.0353	0.0000000E+000	0.0000000E+000	0.0000000E+000	32.0353	1.59814	57.9647	2.51298e-05
2519.19	18.1857	12.2828	21.9451	-34.0355	196.145	0.453248	0.136102	5.14353	1.61132	1	38	0.0143267	0.00065284	0	0.00178627	0.037762	0.0255048	0.0455682	34.0355	1611.32	2385.69	2878.86	-55.9645	0.0000000E+000	0.0000000E+000	0.0000000E+000	55.9645	0.0000000E+000	0.0000000E+000	0.0000000E+000	-55.9645	0.0000000E+000	0.0000000E+000	0.0000000E+000	-34.0355	0.0000000E+000	0.0000000E+000	0.0000000E+000	34.0355	1.48058	55.9645	2.50456e-05
2001.92	19.7191	14.1965	24.2978	-35.7514	196.829	0.453246	0.136327	5.60006	1.9117	1	38	0.0142651	0.000587092	0	0.00181234	0.0334005	0.0240462	0.041156	35.7514	1911.7	2655.38	3271.95	-54.2486	0.0000000E+000	0.0000000E+000	0.0000000E+000	54.2486	0.0000000E+000	0.0000000E+000	0.0000000E+000	-54.2486	0.0000000E+000	0.0000000E+000	0.0000000E+000	-35.7514	0.0000000E+000	0.0000000E+000	0.0000000E+000	35.7514	1.38901	54.2486	2.6072e-05
1589.49	21.5899	16.3047	27.0549	-37.0601	197.513	0.453249	0.136355	6.14114	2.2304	1	38	0.0141994	0.000524838	0	0.00183753	0.0294957	0.0222752	0.0369619	37.0601	2230.4	2953.39	3700.97	-52.9399	0.0000000E+000	0.0000000E+000	0.0000000E+000	52.9399	0.0000000E+000	0.0000000E+000	0.0000000E+000	-52.9399	0.0000000E+000	0.0000000E+000	0.0000000E+000	-37.0601	0.0000000E+000	0.0000000E+000	0.0000000E+000	37.0601	1.32415	52.9399	2.51903e-05
1262.98	23.7374	18.595	30.1535	-38.0738	198.198	0.453251	0.1359	6.77688	2.57717	1	38	0.0141064	0.00046782	0	0.00186284	0.026107	0.0204512	0.0331636	38.0738	2577.17	3289.89	4179.14	-51.9262	0.0000000E+000	0.0000000E+000	0.0000000E+000	51.9262	0.0000000E+000	0.0000000E+000	0.0000000E+000	-51.9262	0.0000000E+000	0.0000000E+000	0.0000000E+000	-38.0738	0.0000000E+000	0.0000000E+000	0.0000000E+000	38.0738	1.27655	51.9262	2.53084e-05
1002.75	26.4105	21.1162	33.8143	-38.6436	199.135	0.453228	0.142681	7.51643	2.93117	1	39	0.0149473	0.00044204	0	0.00189758	0.0230981	0.0184678	0.0295733	38.6436	2931.17	3666.09	4693.82	-51.3564	0.0000000E+000	0.0000000E+000	0.0000000E+000	51.3564	0.0000000E+000	0.0000000E+000	0.0000000E+000	-51.3564	0.0000000E+000	0.0000000E+000	0.0000000E+000	-38.6436	0.0000000E+000	0.0000000E+000	0.0000000E+000	38.6436	1.25072	51.3564	3.47375e-05
796.787	29.6219	23.7622	37.975	-38.736	199.818	0.453231	0.142976	8.40603	3.29131	1	39	0.0146962	0.000386997	0	0.00192412	0.0205408	0.0164775	0.0263331	38.736	3291.31	4102.94	5259.93	-51.264	0.0000000E+000	0.0000000E+000	0.0000000E+000	51.264	0.0000000E+000	0.0000000E+000	0.0000000E+000	-51.264	0.0000000E+000	0.0000000E+000	0.0000000E+000	-38.736	0.0000000E+000	0.0000000E+000	0.0000000E+000	38.736	1.2466	51.264	2.6538e-05
632.773	33.0973	26.4688	42.3796	-38.6502	200.504	0.453266	0.143501	9.50252	3.70675	1	39	0.0144537	0.000341053	0	0.00195082	0.0184281	0.0147374	0.0235963	38.6502	3706.75	4635.02	5934.93	-51.3498	0.0000000E+000	0.0000000E+000	0.0000000E+000	51.3498	0.0000000E+000	0.0000000E+000	0.0000000E+000	-51.3498	0.0000000E+000	0.0000000E+000	0.0000000E+000	-38.6502	0.0000000E+000	0.0000000E+000	0.0000000E+000	38.6502	1.25043	51.3498	2.67069e-05
502.588	37.3681	29.2224	47.4376	-38.026	201.19	0.453265	0.143096	10.8366	4.11225	1	39	0.0143246	0.000301966	0	0.0019779	0.0166056	0.0129859	0.0210803	38.026	4112.25	5258.52	6675.53	-51.974	0.0000000E+000	0.0000000E+000	0.0000000E+000	51.974	0.0000000E+000	0.0000000E+000	0.0000000E+000	-51.974	0.0000000E+000	0.0000000E+000	0.0000000E+000	-38.026	0.0000000E+000	0.0000000E+000	0.0000000E+000	38.026	1.27875	51.974	2.70774e-05
399.106	41.9102	31.8442	52.6357	-37.2283	201.875	0.453284	0.143053	12.5228	4.58355	1	39	0.0141897	0.000269583	0	0.00200498	0.0151272	0.011494	0.0189985	37.2283	4583.55	6032.41	7576.2	-52.7717	0.0000000E+000	0.0000000E+000	0.0000000E+000	52.7717	0.0000000E+000	0.0000000E+000	0.0000000E+000	-52.7717	0.0000000E+000	0.0000000E+000	0.0000000E+000	-37.2283	0.0000000E+000	0.0000000E+000	0.0000000E+000	37.2283	1.3161	52.7717	2.70815e-05
316.927	47.0745	34.4451	58.3307	-36.1935	202.555	0.453261	0.143382	14.5792	5.08386	1	39	0.0141239	0.000242134	0	0.00203188	0.0138354	0.0101235	0.0171436	36.1935	5083.86	6947.88	8609.22	-53.8065	0.0000000E+000	0.0000000E+000	0.0000000E+000	53.8065	0.0000000E+000	0.0000000E+000	0.0000000E+000	-53.8065	0.0000000E+000	0.0000000E+000	0.0000000E+000	-36.1935	0.0000000E+000	0.0000000E+000	0.0000000E+000	36.1935	1.36665	53.8065	2.6897e-05
251.853	52.5859	36.8024	64.1848	-34.9864	203.235	0.453267	0.143149	17.171	5.64525	1	39	0.0140584	0.00021903	0	0.00205839	0.0127645	0.00893329	0.01558	34.9864	5645.25	8066.34	9845.54	-55.0136	0.0000000E+000	0.0000000E+000	0.0000000E+000	55.0136	0.0000000E+000	0.0000000E+000	0.0000000E+000	-55.0136	0.0000000E+000	0.0000000E+000	0.0000000E+000	-34.9864	0.0000000E+000	0.0000000E+000	0.0000000E+000	34.9864	1.42887	55.0136	2.65087e-05
199.936	58.6257	38.9457	70.3828	-33.5965	203.918	0.453272	0.143222	20.4395	6.25827	1	39	0.0140376	0.000199446	0	0.00208546	0.0118346	0.00786187	0.014208	33.5965	6258.27	9420.71	11310	-56.4035	0.0000000E+000	0.0000000E+000	0.0000000E+000	56.4035	0.0000000E+000	0.0000000E+000	0.0000000E+000	-56.4035	0.0000000E+000	0.0000000E+000	0.0000000E+000	-33.5965	0.0000000E+000	0.0000000E+000	0.0000000E+000	33.5965	1.50532	56.4035	2.70711e-05
158.831	64.7265	41.0015	76.6202	-32.3525	204.606	0.453258	0.143215	24.4391	6.99841	1	39	0.0140085	0.000182831	0	0.00211228	0.0110254	0.00698416	0.0130514	32.3525	6998.41	11048	13078	-57.6475	0.0000000E+000	0.0000000E+000	0.0000000E+000	57.6475	0.0000000E+000	0.0000000E+000	0.0000000E+000	-57.6475	0.0000000E+000	0.0000000E+000	0.0000000E+000	-32.3525	0.0000000E+000	0.0000000E+000	0.0000000E+000	32.3525	1.57864	57.6475	2.68164e-05
126.171	70.8906	42.8851	82.8529	-31.1717	205.284	0.453285	0.1427	29.414	7.88044	1	39	0.0139842	0.000168783	0	0.00213892	0.010327	0.00624727	0.0120696	31.1717	7880.44	13026.7	15224.8	-58.8283	0.0000000E+000	0.0000000E+000	0.0000000E+000	58.8283	0.0000000E+000	0.0000000E+000	0.0000000E+000	-58.8283	0.0000000E+000	0.0000000E+000	0.0000000E+000	-31.1717	0.0000000E+000	0.0000000E+000	0.0000000E+000	31.1717	1.65304	58.8283	2.66455e-05
100.224	77.3507	44.597	89.2862	-29.9659	205.967	0.453274	0.142976	35.6074	8.88349	1	39	0.0139793	0.000156568	0	0.00216563	0.00970277	0.00559419	0.0111999	29.9659	8883.49	15407.9	17785.3	-60.0341	0.0000000E+000	0.0000000E+000	0.0000000E+000	60.0341	0.0000000E+000	0.0000000E+000	0.0000000E+000	-60.0341	0.0000000E+000	0.0000000E+000	0.0000000E+000	-29.9659	0.0000000E+000	0.0000000E+000	0.0000000E+000	29.9659	1.73444	60.0341	2.67109e-05
79.6177	83.8084	46.4962	95.8423	-29.0211	206.653	0.453259	0.14268	42.9926	10.1184	1	39	0.0139771	0.000145834	0	0.00219244	0.00912375	0.00506178	0.0104338	29.0211	10118.4	18238.3	20857.1	-60.9789	0.0000000E+000	0.0000000E+000	0.0000000E+000	60.9789	0.0000000E+000	0.0000000E+000	0.0000000E+000	-60.9789	0.0000000E+000	0.0000000E+000	0.0000000E+000	-29.0211	0.0000000E+000	0.0000000E+000	0.0000000E+000	29.0211	1.80248	60.9789	2.6811e-05
63.2394	90.3577	48.4324	102.519	-28.1916	207.354	0.453267	0.142875	51.9633	11.5973	1	39	0.0139563	0.000136133	0	0.00221987	0.00859714	0.00460812	0.00975426	28.1916	11597.3	21636.5	24548.6	-61.8084	0.0000000E+000	0.0000000E+000	0.0000000E+000	61.8084	0.0000000E+000	0.0000000E+000	0.0000000E+000	-61.8084	0.0000000E+000	0.0000000E+000	0.0000000E+000	-28.1916	0.0000000E+000	0.0000000E+000	0.0000000E+000	28.1916	1.86565	61.8084	2.74287e-05
50.2089	96.9813	50.9327	109.542	-27.7076	208.032	0.453252	0.143115	62.2361	13.4547	1	39	0.01395	0.000127348	0	0.00224663	0.0080821	0.00424457	0.00912889	27.7076	13454.7	25619.1	28937.3	-62.2924	0.0000000E+000	0.0000000E+000	0.0000000E+000	62.2924	0.0000000E+000	0.0000000E+000	0.0000000E+000	-62.2924	0.0000000E+000	0.0000000E+000	0.0000000E+000	-27.7076	0.0000000E+000	0.0000000E+000	0.0000000E+000	27.7076	1.9041	62.2924	2.67537e-05
39.8851	103.896	53.5066	116.865	-27.2485	208.718	0.453284	0.143293	74.5765	15.6332	1	39	0.0139585	0.000119441	0	0.00227339	0.00760733	0.00391777	0.00855689	27.2485	15633.2	30355.8	34144.9	-62.7515	0.0000000E+000	0.0000000E+000	0.0000000E+000	62.7515	0.0000000E+000	0.0000000E+000	0.0000000E+000	-62.7515	0.0000000E+000	0.0000000E+000	0.0000000E+000	-27.2485	0.0000000E+000	0.0000000E+000	0.0000000E+000	27.2485	1.94175	62.7515	2.67658e-05
31.6723	110.676	56.4679	124.249	-27.0311	209.369	0.453272	0.143058	88.9897	18.3805	1	39	0.0139417	0.000112208	0	0.00229905	0.00716916	0.00365777	0.00804836	27.0311	18380.5	36025.4	40443.5	-62.9689	0.0000000E+000	0.0000000E+000	0.0000000E+000	62.9689	0.0000000E+000	0.0000000E+000	0.0000000E+000	-62.9689	0.0000000E+000	0.0000000E+000	0.0000000E+000	-27.0311	0.0000000E+000	0.0000000E+000	0.0000000E+000	27.0311	1.95998	62.9689	2.56539e-05
25.1691	118.156	60.3906	132.694	-27.072	210.05	0.45327	0.142959	104.709	21.6878	1	39	0.0139432	0.000105078	0	0.00232568	0.00671042	0.00342976	0.00753611	27.072	21687.8	42432.8	47654	-62.928	0.0000000E+000	0.0000000E+000	0.0000000E+000	62.928	0.0000000E+000	0.0000000E+000	0.0000000E+000	-62.928	0.0000000E+000	0.0000000E+000	0.0000000E+000	-27.072	0.0000000E+000	0.0000000E+000	0.0000000E+000	27.072	1.95653	62.928	2.66383e-05
19.9808	125.704	64.6795	141.368	-27.2276	210.734	0.45325	0.143141	123.152	25.7794	1	39	0.0139372	9.85885e-05	0	0.00235286	0.00628995	0.00323643	0.00707375	27.2276	25779.4	50101.8	56345.1	-62.7724	0.0000000E+000	0.0000000E+000	0.0000000E+000	62.7724	0.0000000E+000	0.0000000E+000	0.0000000E+000	-62.7724	0.0000000E+000	0.0000000E+000	0.0000000E+000	-27.2276	0.0000000E+000	0.0000000E+000	0.0000000E+000	27.2276	1.94348	62.7724	2.71712e-05
15.879	133.863	70.5403	151.312	-27.7874	211.627	0.453269	0.143398	142.088	30.8807	1	40	0.0139751	9.23593e-05	0	0.00238694	0.00584676	0.003081	0.00660887	27.7874	30880.7	58601.8	66240.4	-62.2126	0.0000000E+000	0.0000000E+000	0.0000000E+000	62.2126	0.0000000E+000	0.0000000E+000	0.0000000E+000	-62.2126	0.0000000E+000	0.0000000E+000	0.0000000E+000	-27.7874	0.0000000E+000	0.0000000E+000	0.0000000E+000	27.7874	1.89768	62.2126	3.40837e-05
12.6144	142.927	77.0359	162.365	-28.3242	212.426	0.45327	0.143038	163.78	36.8689	1	40	0.0139839	8.61259e-05	0	0.00241829	0.00542158	0.00292217	0.00615894	28.3242	36868.9	68403.9	77707.2	-61.6758	0.0000000E+000	0.0000000E+000	0.0000000E+000	61.6758	0.0000000E+000	0.0000000E+000	0.0000000E+000	-61.6758	0.0000000E+000	0.0000000E+000	0.0000000E+000	-28.3242	0.0000000E+000	0.0000000E+000	0.0000000E+000	28.3242	1.85533	61.6758	3.13484e-05
10.016	152.434	84.3408	174.211	-28.9555	213.108	0.453268	0.143422	188.402	44.1582	1	40	0.0139563	8.01115e-05	0	0.00244529	0.00502262	0.00277899	0.00574017	28.9555	44158.2	79809.5	91211.3	-61.0445	0.0000000E+000	0.0000000E+000	0.0000000E+000	61.0445	0.0000000E+000	0.0000000E+000	0.0000000E+000	-61.0445	0.0000000E+000	0.0000000E+000	0.0000000E+000	-28.9555	0.0000000E+000	0.0000000E+000	0.0000000E+000	28.9555	1.80736	61.0445	2.70023e-05
7.90779	195.701	136.538	238.624	-34.903	244.324	0.453175	0.140672	147.404	48.2603	1	40	0.0140965	5.9074e-05	0	0.00365663	0.00343687	0.00239787	0.00419069	34.903	48260.3	69171.7	84343.2	-55.097	0.0000000E+000	0.0000000E+000	0.0000000E+000	55.097	0.0000000E+000	0.0000000E+000	0.0000000E+000	-55.097	0.0000000E+000	0.0000000E+000	0.0000000E+000	-34.903	0.0000000E+000	0.0000000E+000	0.0000000E+000	34.903	1.4333	55.097	0.00121134
6.30621	236.973	120.934	266.047	-27.0364	244.324	0.453175	0.140672	208.691	43.1202	1	40	0.0140871	5.29495e-05	0	0.00365663	0.00334797	0.00170856	0.00375873	27.0364	43120.2	84495.3	94862.1	-62.9636	0.0000000E+000	0.0000000E+000	0.0000000E+000	62.9636	0.0000000E+000	0.0000000E+000	0.0000000E+000	-62.9636	0.0000000E+000	0.0000000E+000	0.0000000E+000	-27.0364	0.0000000E+000	0.0000000E+000	0.0000000E+000	27.0364	1.95953	62.9636	0.000000000000000E+000
5.00493	226.707	164.186	279.916	-35.9129	244.325	0.453175	0.140672	193.68	66.635	1	40	0.0140955	5.03561e-05	0	0.00365663	0.0028934	0.00209547	0.0035725	35.9129	66635	92008.9	113604	-54.0871	0.0000000E+000	0.0000000E+000	0.0000000E+000	54.0871	0.0000000E+000	0.0000000E+000	0.0000000E+000	-54.0871	0.0000000E+000	0.0000000E+000	0.0000000E+000	-35.9129	0.0000000E+000	0.0000000E+000	0.0000000E+000	35.9129	1.38079	54.0871	0.000000000000000E+000
4.00395	272.98	190.555	332.911	-34.9171	244.326	0.453175	0.140672	208.599	68.3435	1	40	0.0141107	4.23858e-05	0	0.00365663	0.00246307	0.00171935	0.00300381	34.9171	68343.5	97905.7	119400	-55.0829	0.0000000E+000	0.0000000E+000	0.0000000E+000	55.0829	0.0000000E+000	0.0000000E+000	0.0000000E+000	-55.0829	0.0000000E+000	0.0000000E+000	0.0000000E+000	-34.9171	0.0000000E+000	0.0000000E+000	0.0000000E+000	34.9171	1.43255	55.0829	0.000000000000000E+000
3.20316	303.273	180.718	353.035	-30.7904	244.326	0.453175	0.140672	274.941	72.0458	1	40	0.014097	3.99309e-05	0	0.00365663	0.00243332	0.00145	0.00283258	30.7904	72045.8	120904	140742	-59.2096	0.0000000E+000	0.0000000E+000	0.0000000E+000	59.2096	0.0000000E+000	0.0000000E+000	0.0000000E+000	-59.2096	0.0000000E+000	0.0000000E+000	0.0000000E+000	-30.7904	0.0000000E+000	0.0000000E+000	0.0000000E+000	30.7904	1.67815	59.2096	0.000000000000000E+000
2.50247	322.913	206.274	383.174	-32.5701	244.327	0.453175	0.140672	308.323	89.3523	1	40	0.0140774	3.67389e-05	0	0.00365663	0.00219935	0.00140493	0.00260978	32.5701	89352.3	139877	165980	-57.4299	0.0000000E+000	0.0000000E+000	0.0000000E+000	57.4299	0.0000000E+000	0.0000000E+000	0.0000000E+000	-57.4299	0.0000000E+000	0.0000000E+000	0.0000000E+000	-32.5701	0.0000000E+000	0.0000000E+000	0.0000000E+000	32.5701	1.56545	57.4299	0.000000000000000E+000
2.00197	367.446	206.922	421.702	-29.3854	244.328	0.453175	0.140672	384.199	92.5029	1	40	0.0140865	3.34038e-05	0	0.00365663	0.00206624	0.00116357	0.00237134	29.3854	92502.9	164264	188519	-60.6146	0.0000000E+000	0.0000000E+000	0.0000000E+000	60.6146	0.0000000E+000	0.0000000E+000	0.0000000E+000	-60.6146	0.0000000E+000	0.0000000E+000	0.0000000E+000	-29.3854	0.0000000E+000	0.0000000E+000	0.0000000E+000	29.3854	1.77577	60.6146	0.000000000000000E+000
1.60158	437.96	217.772	489.115	-26.4386	244.329	0.453175	0.140672	456.319	90.4593	1	40	0.014086	2.8799e-05	0	0.00365663	0.00183068	0.000910293	0.00204451	26.4386	90459.3	181922	203171	-63.5614	0.0000000E+000	0.0000000E+000	0.0000000E+000	63.5614	0.0000000E+000	0.0000000E+000	0.0000000E+000	-63.5614	0.0000000E+000	0.0000000E+000	0.0000000E+000	-26.4386	0.0000000E+000	0.0000000E+000	0.0000000E+000	26.4386	2.01109	63.5614	0.000000000000000E+000
1.30128	486.109	222.044	534.421	-24.5499	244.329	0.453175	0.140672	550.819	95.087	1	40	0.0141002	2.6384e-05	0	0.00365663	0.00170203	0.00077745	0.00187118	24.5499	95087	208169	228857	-65.4501	0.0000000E+000	0.0000000E+000	0.0000000E+000	65.4501	0.0000000E+000	0.0000000E+000	0.0000000E+000	-65.4501	0.0000000E+000	0.0000000E+000	0.0000000E+000	-24.5499	0.0000000E+000	0.0000000E+000	0.0000000E+000	24.5499	2.18924	65.4501	0.000000000000000E+000
1.00099	525.844	156.292	548.579	-16.5531	244.33	0.453175	0.140672	1017.31	82.5752	1	40	0.014086	2.56773e-05	0	0.00365663	0.00174734	0.000519347	0.00182289	16.5531	82575.2	277824	289836	-73.4469	0.0000000E+000	0.0000000E+000	0.0000000E+000	73.4469	0.0000000E+000	0.0000000E+000	0.0000000E+000	-73.4469	0.0000000E+000	0.0000000E+000	0.0000000E+000	-16.5531	0.0000000E+000	0.0000000E+000	0.0000000E+000	16.5531	3.3645	73.4469	0.000000000000000E+000
0.800789	523.386	159.44	547.133	-16.9424	244.331	0.453175	0.140672	1246.54	105.856	1	40	0.0140823	2.57384e-05	0	0.00365663	0.00174838	0.000532613	0.00182771	16.9424	105855	347487	363253	-73.0576	0.0000000E+000	0.0000000E+000	0.0000000E+000	73.0576	0.0000000E+000	0.0000000E+000	0.0000000E+000	-73.0576	0.0000000E+000	0.0000000E+000	0.0000000E+000	-16.9424	0.0000000E+000	0.0000000E+000	0.0000000E+000	16.9424	3.28266	73.0576	0.000000000000000E+000
0.600592	547.997	198.75	582.925	-19.935	244.331	0.453175	0.140672	1333.31	154.997	1	40	0.0140891	2.41696e-05	0	0.00365663	0.00161269	0.000584901	0.00171549	19.935	154997	427359	454598	-70.065	0.0000000E+000	0.0000000E+000	0.0000000E+000	70.065	0.0000000E+000	0.0000000E+000	0.0000000E+000	-70.065	0.0000000E+000	0.0000000E+000	0.0000000E+000	-19.935	0.0000000E+000	0.0000000E+000	0.0000000E+000	19.935	2.75721	70.065	0.000000000000000E+000
0.500493	570.047	148.586	589.094	-14.6094	244.332	0.453175	0.140672	2140.16	136.154	1	40	0.0140988	2.39331e-05	0	0.00365663	0.00164264	0.000428162	0.00169752	14.6094	136154	522353	539806	-75.3906	0.0000000E+000	0.0000000E+000	0.0000000E+000	75.3906	0.0000000E+000	0.0000000E+000	0.0000000E+000	-75.3906	0.0000000E+000	0.0000000E+000	0.0000000E+000	-14.6094	0.0000000E+000	0.0000000E+000	0.0000000E+000	14.6094	3.83649	75.3906	0.000000000000000E+000
0.400395	525.737	124.881	540.365	-13.3622	244.333	0.453175	0.140672	3182.98	170.002	1	40	0.0140715	2.60407e-05	0	0.00365663	0.0018005	0.000427684	0.0018506	13.3622	170002	715691	735605	-76.6378	0.0000000E+000	0.0000000E+000	0.0000000E+000	76.6378	0.0000000E+000	0.0000000E+000	0.0000000E+000	-76.6378	0.0000000E+000	0.0000000E+000	0.0000000E+000	-13.3622	0.0000000E+000	0.0000000E+000	0.0000000E+000	13.3622	4.20989	76.6378	0.000000000000000E+000
0.300296	643.263	78.7302	648.063	-6.97784	244.333	0.453175	0.140672	6731.77	99.3522	1	40	0.0141008	2.17584e-05	0	0.00365663	0.00153163	0.000187459	0.00154306	6.97784	99352.2	811755	817812	-83.0222	0.0000000E+000	0.0000000E+000	0.0000000E+000	83.0222	0.0000000E+000	0.0000000E+000	0.0000000E+000	-83.0222	0.0000000E+000	0.0000000E+000	0.0000000E+000	-6.97784	0.0000000E+000	0.0000000E+000	0.0000000E+000	6.97784	8.17047	83.0222	0.000000000000000E+000
0.200197	571.161	58.8443	574.184	-5.88219	244.334	0.453175	0.140672	13510.1	141.894	1	40	0.0140789	2.45198e-05	0	0.00365664	0.00173243	0.000178485	0.0017416	5.88219	141894	1.37727e+06	1.38456e+06	-84.1178	0.0000000E+000	0.0000000E+000	0.0000000E+000	84.1178	0.0000000E+000	0.0000000E+000	0.0000000E+000	-84.1178	0.0000000E+000	0.0000000E+000	0.0000000E+000	-5.88219	0.0000000E+000	0.0000000E+000	0.0000000E+000	5.88219	9.7063	84.1178	9.40461e-09
0.100099	562.534	24.7735	563.079	-2.52163	244.335	0.453175	0.140672	64180.7	124.234	1	40	0.0140767	2.49996e-05	0	0.00365664	0.00177423	7.81357e-05	0.00177595	2.52163	124234	2.82099e+06	2.82373e+06	-87.4784	0.0000000E+000	0.0000000E+000	0.0000000E+000	87.4784	0.0000000E+000	0.0000000E+000	0.0000000E+000	-87.4784	0.0000000E+000	0.0000000E+000	0.0000000E+000	-2.52163	0.0000000E+000	0.0000000E+000	0.0000000E+000	2.52163	22.707	87.4784	0.000000000000000E+000
399996	10.9984	2.97357	11.3933	-15.129	246.118	0.453381	0.136534	0.133809	0.00911472	2	38	0.0134873	0.00118379	0	0.00372287	0.0847288	0.0229076	0.0877709	15.129	9.11472	33.7128	34.9233	-74.871	0.0000000E+000	0.0000000E+000	0.0000000E+000	74.871	0.0000000E+000	0.0000000E+000	0.0000000E+000	-74.871	0.0000000E+000	0.0000000E+000	0.0000000E+000	-15.129	0.0000000E+000	0.0000000E+000	0.0000000E+000	15.129	3.69872	74.871	6.62305e-05
317705	11.0816	2.48805	11.3575	-12.6542	246.669	0.453372	0.137196	0.201343	0.0096625	2	38	0.0144245	0.00127005	0	0.0037426	0.0859088	0.0192883	0.0880475	12.6542	9.6625	43.0362	44.1075	-77.3458	0.0000000E+000	0.0000000E+000	0.0000000E+000	77.3458	0.0000000E+000	0.0000000E+000	0.0000000E+000	-77.3458	0.0000000E+000	0.0000000E+000	0.0000000E+000	-12.6542	0.0000000E+000	0.0000000E+000	0.0000000E+000	12.6542	4.45393	77.3458	1.9731e-05
252347	11.1852	2.1139	11.3832	-10.7021	247.22	0.453365	0.137334	0.298357	0.010289	2	38	0.0145684	0.00127981	0	0.00376292	0.0863204	0.0163137	0.0878484	10.7021	10.289	54.4421	55.4058	-79.2979	0.0000000E+000	0.0000000E+000	0.0000000E+000	79.2979	0.0000000E+000	0.0000000E+000	0.0000000E+000	-79.2979	0.0000000E+000	0.0000000E+000	0.0000000E+000	-10.7021	0.0000000E+000	0.0000000E+000	0.0000000E+000	10.7021	5.29127	79.2979	2.03193e-05
200434	11.242	1.83555	11.3909	-9.27317	247.771	0.453365	0.137256	0.432595	0.0112331	2	38	0.0145403	0.00127648	0	0.00378426	0.086642	0.0141465	0.0877893	9.27317	11.2331	68.7982	69.7092	-80.7268	0.0000000E+000	0.0000000E+000	0.0000000E+000	80.7268	0.0000000E+000	0.0000000E+000	0.0000000E+000	-80.7268	0.0000000E+000	0.0000000E+000	0.0000000E+000	-9.27317	0.0000000E+000	0.0000000E+000	0.0000000E+000	9.27317	6.12462	80.7268	2.1334e-05
159201	11.3187	1.6732	11.4417	-8.40896	248.322	0.453367	0.137159	0.597484	0.0127775	2	38	0.0145993	0.00127598	0	0.00380285	0.0864602	0.0127812	0.0873998	8.40896	12.7775	86.4355	87.3748	-81.591	0.0000000E+000	0.0000000E+000	0.0000000E+000	81.591	0.0000000E+000	0.0000000E+000	0.0000000E+000	-81.591	0.0000000E+000	0.0000000E+000	0.0000000E+000	-8.40896	0.0000000E+000	0.0000000E+000	0.0000000E+000	8.40896	6.76466	81.591	1.85941e-05
126447	11.3323	1.56534	11.4399	-7.86453	248.873	0.453363	0.136664	0.804086	0.0150547	2	38	0.0145232	0.00126953	0	0.00382332	0.0865911	0.0119609	0.0874133	7.86453	15.0547	108.989	110.024	-82.1355	0.0000000E+000	0.0000000E+000	0.0000000E+000	82.1355	0.0000000E+000	0.0000000E+000	0.0000000E+000	-82.1355	0.0000000E+000	0.0000000E+000	0.0000000E+000	-7.86453	0.0000000E+000	0.0000000E+000	0.0000000E+000	7.86453	7.23953	82.1355	2.04641e-05
100431	11.394	1.53387	11.4968	-7.66712	249.424	0.453384	0.137133	1.03315	0.0183904	2	38	0.0145311	0.00126392	0	0.00384458	0.0862031	0.0116047	0.0869807	7.66712	18.3904	136.608	137.841	-82.3329	0.0000000E+000	0.0000000E+000	0.0000000E+000	82.3329	0.0000000E+000	0.0000000E+000	0.0000000E+000	-82.3329	0.0000000E+000	0.0000000E+000	0.0000000E+000	-7.66712	0.0000000E+000	0.0000000E+000	0.0000000E+000	7.66712	7.42826	82.3329	2.12597e-05
79767.3	11.4367	1.59006	11.5467	-7.9152	249.976	0.453379	0.13763	1.25482	0.0237955	2	38	0.0145626	0.0012612	0	0.0038645	0.08578	0.0119262	0.0866051	7.9152	23.7955	171.152	172.798	-82.0848	0.0000000E+000	0.0000000E+000	0.0000000E+000	82.0848	0.0000000E+000	0.0000000E+000	0.0000000E+000	-82.0848	0.0000000E+000	0.0000000E+000	0.0000000E+000	-7.9152	0.0000000E+000	0.0000000E+000	0.0000000E+000	7.9152	7.19259	82.0848	1.99287e-05
63362.9	11.5174	1.69371	11.6413	-8.36579	250.527	0.453376	0.137699	1.48301	0.0313925	2	38	0.0145423	0.0012492	0	0.00388479	0.0849873	0.012498	0.0859014	8.36579	31.3925	213.471	215.767	-81.6342	0.0000000E+000	0.0000000E+000	0.0000000E+000	81.6342	0.0000000E+000	0.0000000E+000	0.0000000E+000	-81.6342	0.0000000E+000	0.0000000E+000	0.0000000E+000	-8.36579	0.0000000E+000	0.0000000E+000	0.0000000E+000	8.36579	6.80008	81.6342	2.02831e-05
50326.6	11.6384	1.8419	11.7833	-8.99303	251.078	0.453375	0.137699	1.71695	0.0419522	2	38	0.0145747	0.0012369	0	0.00390558	0.0838228	0.0132658	0.084866	8.99303	41.9522	265.085	268.384	-81.007	0.0000000E+000	0.0000000E+000	0.0000000E+000	81.007	0.0000000E+000	0.0000000E+000	0.0000000E+000	-81.007	0.0000000E+000	0.0000000E+000	0.0000000E+000	-8.99303	0.0000000E+000	0.0000000E+000	0.0000000E+000	8.99303	6.31873	81.007	2.07936e-05
39971.8	11.763	2.07432	11.9445	-10.0008	251.629	0.453394	0.137196	1.91951	0.0578901	2	38	0.014536	0.00121696	0	0.00392646	0.0824482	0.0145391	0.0837203	10.0008	57.8901	328.282	333.348	-79.9992	0.0000000E+000	0.0000000E+000	0.0000000E+000	79.9992	0.0000000E+000	0.0000000E+000	0.0000000E+000	-79.9992	0.0000000E+000	0.0000000E+000	0.0000000E+000	-10.0008	0.0000000E+000	0.0000000E+000	0.0000000E+000	10.0008	5.67079	79.9992	2.08784e-05
31751	11.9062	2.35347	12.1365	-11.1814	252.18	0.453366	0.137794	2.12987	0.0800905	2	38	0.0145084	0.00119543	0	0.00394699	0.0808317	0.0159779	0.0823958	11.1814	80.0905	405.176	413.016	-78.8186	0.0000000E+000	0.0000000E+000	0.0000000E+000	78.8186	0.0000000E+000	0.0000000E+000	0.0000000E+000	-78.8186	0.0000000E+000	0.0000000E+000	0.0000000E+000	-11.1814	0.0000000E+000	0.0000000E+000	0.0000000E+000	11.1814	5.05898	78.8186	2.05315e-05
25219	12.0978	2.70734	12.397	-12.6143	252.731	0.453383	0.137569	2.33104	0.111174	2	38	0.0144835	0.00116831	0	0.00396731	0.0787176	0.0176161	0.0806647	12.6143	111.174	496.781	509.069	-77.3857	0.0000000E+000	0.0000000E+000	0.0000000E+000	77.3857	0.0000000E+000	0.0000000E+000	0.0000000E+000	-77.3857	0.0000000E+000	0.0000000E+000	0.0000000E+000	-12.6143	0.0000000E+000	0.0000000E+000	0.0000000E+000	12.6143	4.4685	77.3857	2.03236e-05
20032.3	12.3268	3.16597	12.7269	-14.4043	253.282	0.453377	0.1379	2.50948	0.155292	2	38	0.0144915	0.00113865	0	0.00398634	0.0761037	0.0195461	0.0785737	14.4043	155.292	604.638	624.261	-75.5957	0.0000000E+000	0.0000000E+000	0.0000000E+000	75.5957	0.0000000E+000	0.0000000E+000	0.0000000E+000	-75.5957	0.0000000E+000	0.0000000E+000	0.0000000E+000	-14.4043	0.0000000E+000	0.0000000E+000	0.0000000E+000	14.4043	3.89354	75.5957	1.90236e-05
15912.6	12.5919	3.68355	13.1196	-16.306	253.833	0.453383	0.138248	2.71526	0.214044	2	38	0.0144485	0.00110129	0	0.00400933	0.0731558	0.0214005	0.0762218	16.306	214.044	731.69	762.355	-73.694	0.0000000E+000	0.0000000E+000	0.0000000E+000	73.694	0.0000000E+000	0.0000000E+000	0.0000000E+000	-73.694	0.0000000E+000	0.0000000E+000	0.0000000E+000	-16.306	0.0000000E+000	0.0000000E+000	0.0000000E+000	16.306	3.41841	73.694	2.29867e-05
12637.3	12.9028	4.31175	13.6041	-18.4782	254.384	0.453388	0.138027	2.92087	0.293411	2	38	0.0143324	0.00105353	0	0.00403157	0.0697174	0.0232976	0.0735071	18.4782	293.411	878.023	925.751	-71.5218	0.0000000E+000	0.0000000E+000	0.0000000E+000	71.5218	0.0000000E+000	0.0000000E+000	0.0000000E+000	-71.5218	0.0000000E+000	0.0000000E+000	0.0000000E+000	-18.4782	0.0000000E+000	0.0000000E+000	0.0000000E+000	18.4782	2.99247	71.5218	2.22496e-05
10039.3	13.3107	5.08332	14.2483	-20.9017	254.935	0.453375	0.137492	3.11866	0.396949	2	38	0.0141749	0.000994844	0	0.00405152	0.0655652	0.0250392	0.0701837	20.9017	396.949	1039.41	1112.63	-69.0983	0.0000000E+000	0.0000000E+000	0.0000000E+000	69.0983	0.0000000E+000	0.0000000E+000	0.0000000E+000	-69.0983	0.0000000E+000	0.0000000E+000	0.0000000E+000	-20.9017	0.0000000E+000	0.0000000E+000	0.0000000E+000	20.9017	2.61851	69.0983	1.99499e-05
7967.67	13.7924	5.98146	15.0335	-23.4454	255.564	0.453256	0.137256	3.3395	0.528657	2	38	0.0144207	0.000959233	0	0.00407453	0.0610262	0.0264658	0.066518	23.4454	528.657	1219.01	1328.7	-66.5546	0.0000000E+000	0.0000000E+000	0.0000000E+000	66.5546	0.0000000E+000	0.0000000E+000	0.0000000E+000	-66.5546	0.0000000E+000	0.0000000E+000	0.0000000E+000	-23.4454	0.0000000E+000	0.0000000E+000	0.0000000E+000	23.4454	2.30585	66.5546	2.30044e-05
6332.63	14.3654	7.00245	15.9812	-25.987	256.137	0.453229	0.136872	3.5891	0.689073	2	38	0.0151593	0.000948567	0	0.00409598	0.0562468	0.0274176	0.0625734	25.987	689.073	1413.62	1572.63	-64.013	0.0000000E+000	0.0000000E+000	0.0000000E+000	64.013	0.0000000E+000	0.0000000E+000	0.0000000E+000	-64.013	0.0000000E+000	0.0000000E+000	0.0000000E+000	-25.987	0.0000000E+000	0.0000000E+000	0.0000000E+000	25.987	2.05149	64.013	2.1452e-05
5028.39	15.0618	8.25179	17.1741	-28.7167	257.041	0.453251	0.136176	3.83569	0.885509	2	38	0.0142773	0.000831328	0	0.00412964	0.0510657	0.027977	0.0582273	28.7167	885.509	1616.29	1842.97	-61.2833	0.0000000E+000	0.0000000E+000	0.0000000E+000	61.2833	0.0000000E+000	0.0000000E+000	0.0000000E+000	-61.2833	0.0000000E+000	0.0000000E+000	0.0000000E+000	-28.7167	0.0000000E+000	0.0000000E+000	0.0000000E+000	28.7167	1.82527	61.2833	3.36552e-05
3993.72	15.9514	9.67928	18.6584	-31.2493	257.725	0.453235	0.137306	4.11718	1.10799	2	38	0.0144181	0.000772738	0	0.00415581	0.0458195	0.0278032	0.0535952	31.2493	1107.99	1825.97	2135.84	-58.7507	0.0000000E+000	0.0000000E+000	0.0000000E+000	58.7507	0.0000000E+000	0.0000000E+000	0.0000000E+000	-58.7507	0.0000000E+000	0.0000000E+000	0.0000000E+000	-31.2493	0.0000000E+000	0.0000000E+000	0.0000000E+000	31.2493	1.648	58.7507	2.61753e-05
3171.96	17.0379	11.2886	20.4383	-33.5269	258.409	0.45325	0.136265	4.44479	1.35596	2	38	0.0143964	0.000704383	0	0.00418093	0.0407875	0.0270242	0.0489278	33.5269	1355.96	2046.54	2454.98	-56.4731	0.0000000E+000	0.0000000E+000	0.0000000E+000	56.4731	0.0000000E+000	0.0000000E+000	0.0000000E+000	-56.4731	0.0000000E+000	0.0000000E+000	0.0000000E+000	-33.5269	0.0000000E+000	0.0000000E+000	0.0000000E+000	33.5269	1.5093	56.4731	2.51203e-05
2519.19	18.3525	13.1708	22.5895	-35.6654	259.092	0.453227	0.135899	4.79675	1.63064	2	38	0.0143381	0.000634725	0	0.00420592	0.0359652	0.0258107	0.0442684	35.6654	1630.64	2272.18	2796.74	-54.3346	0.0000000E+000	0.0000000E+000	0.0000000E+000	54.3346	0.0000000E+000	0.0000000E+000	0.0000000E+000	-54.3346	0.0000000E+000	0.0000000E+000	0.0000000E+000	-35.6654	0.0000000E+000	0.0000000E+000	0.0000000E+000	35.6654	1.39342	54.3346	2.49928e-05
2001.92	19.9206	15.2955	25.1154	-37.5179	259.775	0.453238	0.136465	5.19767	1.92778	2	38	0.0142573	0.00056767	0	0.00423158	0.0315807	0.0242484	0.0398162	37.5179	1927.78	2510.7	3165.43	-52.4821	0.0000000E+000	0.0000000E+000	0.0000000E+000	52.4821	0.0000000E+000	0.0000000E+000	0.0000000E+000	-52.4821	0.0000000E+000	0.0000000E+000	0.0000000E+000	-37.5179	0.0000000E+000	0.0000000E+000	0.0000000E+000	37.5179	1.30238	52.4821	2.56567e-05
1589.49	21.9396	17.5618	28.1028	-38.6759	260.458	0.453238	0.136612	5.70153	2.22656	2	38	0.0141824	0.000504661	0	0.00425669	0.0277799	0.0222368	0.0355837	38.6759	2226.55	2781.59	3562.97	-51.3241	0.0000000E+000	0.0000000E+000	0.0000000E+000	51.3241	0.0000000E+000	0.0000000E+000	0.0000000E+000	-51.3241	0.0000000E+000	0.0000000E+000	0.0000000E+000	-38.6759	0.0000000E+000	0.0000000E+000	0.0000000E+000	38.6759	1.24928	51.3241	2.51051e-05
1262.98	24.3112	20.1335	31.5657	-39.6301	261.143	0.453248	0.136841	6.25901	2.54632	2	38	0.0141307	0.00044766	0	0.00428242	0.0243992	0.0202064	0.03168	39.6301	2546.32	3074.69	3992.18	-50.3699	0.0000000E+000	0.0000000E+000	0.0000000E+000	50.3699	0.0000000E+000	0.0000000E+000	0.0000000E+000	-50.3699	0.0000000E+000	0.0000000E+000	0.0000000E+000	-39.6301	0.0000000E+000	0.0000000E+000	0.0000000E+000	39.6301	1.2075	50.3699	2.57355e-05
1002.75	27.1607	22.8944	35.5226	-40.1283	262.08	0.453227	0.139695	6.93262	2.87969	2	39	0.0149479	0.000420799	0	0.0043171	0.0215244	0.0181434	0.0281511	40.1283	2879.69	3416.31	4468.09	-49.8717	0.0000000E+000	0.0000000E+000	0.0000000E+000	49.8717	0.0000000E+000	0.0000000E+000	0.0000000E+000	-49.8717	0.0000000E+000	0.0000000E+000	0.0000000E+000	-40.1283	0.0000000E+000	0.0000000E+000	0.0000000E+000	40.1283	1.18635	49.8717	3.46778e-05
796.787	30.5295	25.8103	39.9778	-40.2118	262.763	0.453215	0.139897	7.73901	3.22577	2	39	0.0146684	0.000366913	0	0.00434305	0.0191022	0.0161494	0.0250139	40.2118	3225.77	3815.58	4996.42	-49.7882	0.0000000E+000	0.0000000E+000	0.0000000E+000	49.7882	0.0000000E+000	0.0000000E+000	0.0000000E+000	-49.7882	0.0000000E+000	0.0000000E+000	0.0000000E+000	-40.2118	0.0000000E+000	0.0000000E+000	0.0000000E+000	40.2118	1.18284	49.7882	2.59544e-05
632.773	34.4892	28.8424	44.9599	-39.9048	263.45	0.453251	0.140385	8.72049	3.58883	2	39	0.0144665	0.000321764	0	0.0043692	0.0170621	0.0142686	0.022242	39.9048	3588.83	4291.46	5594.32	-50.0952	0.0000000E+000	0.0000000E+000	0.0000000E+000	50.0952	0.0000000E+000	0.0000000E+000	0.0000000E+000	-50.0952	0.0000000E+000	0.0000000E+000	0.0000000E+000	-39.9048	0.0000000E+000	0.0000000E+000	0.0000000E+000	39.9048	1.19578	50.0952	2.61501e-05
502.588	38.9783	31.8394	50.3294	-39.2436	264.136	0.453248	0.139993	9.94589	3.98042	2	39	0.0143053	0.000284233	0	0.0043957	0.0153879	0.0125696	0.0198691	39.2436	3980.41	4872.89	6291.96	-50.7564	0.0000000E+000	0.0000000E+000	0.0000000E+000	50.7564	0.0000000E+000	0.0000000E+000	0.0000000E+000	-50.7564	0.0000000E+000	0.0000000E+000	0.0000000E+000	-39.2436	0.0000000E+000	0.0000000E+000	0.0000000E+000	39.2436	1.22422	50.7564	2.6497e-05
399.106	44.0831	34.687	56.0937	-38.1975	264.821	0.453265	0.139788	11.4965	4.39612	2	39	0.014173	0.000252666	0	0.00442218	0.0140102	0.011024	0.0178273	38.1975	4396.12	5586.96	7109.15	-51.8025	0.0000000E+000	0.0000000E+000	0.0000000E+000	51.8025	0.0000000E+000	0.0000000E+000	0.0000000E+000	-51.8025	0.0000000E+000	0.0000000E+000	0.0000000E+000	-38.1975	0.0000000E+000	0.0000000E+000	0.0000000E+000	38.1975	1.27089	51.8025	2.64758e-05
316.927	49.7673	37.5813	62.3629	-37.0579	265.501	0.453265	0.139839	13.3626	4.85266	2	39	0.0141232	0.000226467	0	0.00444844	0.0127965	0.00966315	0.0160352	37.0579	4852.66	6426.17	8052.57	-52.9421	0.0000000E+000	0.0000000E+000	0.0000000E+000	52.9421	0.0000000E+000	0.0000000E+000	0.0000000E+000	-52.9421	0.0000000E+000	0.0000000E+000	0.0000000E+000	-37.0579	0.0000000E+000	0.0000000E+000	0.0000000E+000	37.0579	1.32426	52.9421	2.62672e-05
251.853	55.891	40.1101	68.7941	-35.665	266.18	0.453276	0.139662	15.755	5.35579	2	39	0.01407	0.000204524	0	0.0044744	0.0118097	0.00847523	0.0145361	35.665	5355.79	7462.98	9185.89	-54.335	0.0000000E+000	0.0000000E+000	0.0000000E+000	54.335	0.0000000E+000	0.0000000E+000	0.0000000E+000	-54.335	0.0000000E+000	0.0000000E+000	0.0000000E+000	-35.665	0.0000000E+000	0.0000000E+000	0.0000000E+000	35.665	1.39344	54.335	2.59594e-05
199.936	62.3146	42.3034	75.3173	-34.1713	266.864	0.453266	0.139874	18.8171	5.93628	2	39	0.0140215	0.000186166	0	0.0045008	0.010985	0.00745738	0.0132772	34.1713	5936.28	8744.39	10569	-55.8287	0.0000000E+000	0.0000000E+000	0.0000000E+000	55.8287	0.0000000E+000	0.0000000E+000	0.0000000E+000	-55.8287	0.0000000E+000	0.0000000E+000	0.0000000E+000	-34.1713	0.0000000E+000	0.0000000E+000	0.0000000E+000	34.1713	1.47304	55.8287	2.63972e-05
158.831	69.1335	44.3573	82.1402	-32.685	267.552	0.453269	0.139586	22.5902	6.58778	2	39	0.0139958	0.000170389	0	0.00452701	0.0102465	0.00657436	0.0121743	32.685	6587.78	10267.5	12199.2	-57.315	0.0000000E+000	0.0000000E+000	0.0000000E+000	57.315	0.0000000E+000	0.0000000E+000	0.0000000E+000	-57.315	0.0000000E+000	0.0000000E+000	0.0000000E+000	-32.685	0.0000000E+000	0.0000000E+000	0.0000000E+000	32.685	1.55856	57.315	2.62103e-05
126.171	75.877	46.2591	88.8663	-31.369	268.229	0.453276	0.140102	27.2686	7.38896	2	39	0.0139778	0.00015729	0	0.00455308	0.00960806	0.00585764	0.0112529	31.369	7388.96	12119.8	14194.6	-58.631	0.0000000E+000	0.0000000E+000	0.0000000E+000	58.631	0.0000000E+000	0.0000000E+000	0.0000000E+000	-58.631	0.0000000E+000	0.0000000E+000	0.0000000E+000	-31.369	0.0000000E+000	0.0000000E+000	0.0000000E+000	31.369	1.64026	58.631	2.60672e-05
100.224	82.6764	47.7201	95.4599	-29.9932	268.912	0.453259	0.139609	33.2771	8.31583	2	39	0.0139393	0.000146023	0	0.0045793	0.00907277	0.00523672	0.0104756	29.9932	8315.83	14407.4	16635.1	-60.0068	0.0000000E+000	0.0000000E+000	0.0000000E+000	60.0068	0.0000000E+000	0.0000000E+000	0.0000000E+000	-60.0068	0.0000000E+000	0.0000000E+000	0.0000000E+000	-29.9932	0.0000000E+000	0.0000000E+000	0.0000000E+000	29.9932	1.73253	60.0068	2.62198e-05
79.6177	89.9687	49.6573	102.763	-28.8961	269.598	0.453253	0.139871	40.2557	9.39986	2	39	0.0139477	0.000135727	0	0.00460567	0.00851959	0.0047023	0.00973114	28.8961	9399.86	17030.6	19452.5	-61.1039	0.0000000E+000	0.0000000E+000	0.0000000E+000	61.1039	0.0000000E+000	0.0000000E+000	0.0000000E+000	-61.1039	0.0000000E+000	0.0000000E+000	0.0000000E+000	-28.8961	0.0000000E+000	0.0000000E+000	0.0000000E+000	28.8961	1.81179	61.1039	2.63671e-05
63.2394	96.9074	51.8142	109.89	-28.1324	270.299	0.453269	0.139733	48.5717	10.7986	2	39	0.0139556	0.000126996	0	0.00463256	0.00802496	0.00429077	0.00910003	28.1324	10798.6	20196.5	22902.1	-61.8676	0.0000000E+000	0.0000000E+000	0.0000000E+000	61.8676	0.0000000E+000	0.0000000E+000	0.0000000E+000	-61.8676	0.0000000E+000	0.0000000E+000	0.0000000E+000	-28.1324	0.0000000E+000	0.0000000E+000	0.0000000E+000	28.1324	1.87029	61.8676	2.68933e-05
50.2089	104.137	53.7747	117.202	-27.3111	270.978	0.453277	0.139947	58.947	12.4094	2	39	0.0139542	0.000119061	0	0.00465867	0.00758119	0.0039148	0.0085323	27.3111	12409.4	24031.3	27046.2	-62.6889	0.0000000E+000	0.0000000E+000	0.0000000E+000	62.6889	0.0000000E+000	0.0000000E+000	0.0000000E+000	-62.6889	0.0000000E+000	0.0000000E+000	0.0000000E+000	-27.3111	0.0000000E+000	0.0000000E+000	0.0000000E+000	27.3111	1.93655	62.6889	2.6113e-05
39.8851	111.356	56.4033	124.826	-26.8629	271.664	0.453272	0.139899	70.7464	14.4446	2	39	0.0139426	0.000111697	0	0.0046848	0.00714669	0.0036199	0.00801117	26.8629	14444.6	28517.7	31967.2	-63.1371	0.0000000E+000	0.0000000E+000	0.0000000E+000	63.1371	0.0000000E+000	0.0000000E+000	0.0000000E+000	-63.1371	0.0000000E+000	0.0000000E+000	0.0000000E+000	-26.8629	0.0000000E+000	0.0000000E+000	0.0000000E+000	26.8629	1.97428	63.1371	2.61305e-05
31.6723	118.653	59.179	132.592	-26.508	272.315	0.453277	0.139761	84.9129	16.915	2	39	0.0139414	0.000105145	0	0.00471	0.00674905	0.00336613	0.00754192	26.508	16915	33914.4	37898.6	-63.492	0.0000000E+000	0.0000000E+000	0.0000000E+000	63.492	0.0000000E+000	0.0000000E+000	0.0000000E+000	-63.492	0.0000000E+000	0.0000000E+000	0.0000000E+000	-26.508	0.0000000E+000	0.0000000E+000	0.0000000E+000	26.508	2.00499	63.492	2.51967e-05