File: Python/Experiments/RDE/Dicarboxylferrocene/Data/240327-CVEIS-5mM_DiCaFerrocene-1M_NaCl-ReNeutralized-453p5mVvsRef-0000RPM-Ag_AgCl_BLF8-Au_RDE_PEIS_C15.mpt
EC-Lab ASCII FILE
Nb header lines : 65

Potentio Electrochemical Impedance Spectroscopy

Run on channel : 15 (SN 19485)
User :
Electrode connection : standard
Potential control : Ewe
Ewe ctrl range : min = -1.00 V, max = 1.00 V
Ewe,I filtering : <None>
Safety Limits :
	Do not start on E overload
Channel : Floating
Acquisition started on : 03/27/2024 15:36:45.743
Loaded Setting File :  C:\Data\mathias\GoldElectrode\240327-CVEIS-5mM_DiCaFerrocene-1M_NaCl-453p5mVvsRef-2000RPM-Ag_AgCl_BLF8-Au_RDE_02_PEIS_C15.mpr
Saved on :
	File : 240327-CVEIS-5mM_DiCaFerrocene-1M_NaCl-ReNeutralized-453p5mVvsRef-2000RPM-Ag_AgCl_BLF8-Au_RDE_PEIS_C15.mpr
	Directory : C:\Data\mathias\GoldElectrode\
	Host : 192.168.0.1
Device : VMP-300 (SN 0826)
Address : USB
EC-Lab for windows v11.52 (software)
Internet server v11.52 (firmware)
Command interpretor v11.52 (firmware)
Electrode material :
Initial state :
Electrolyte :
Comments :
Cable : special
Electrode surface area : 0.001 cm²
Characteristic mass : 0.001 g
Equivalent Weight : 0.000 g/eq.
Density : 0.000 g/cm3
Volume (V) : 0.001 cm³
Cycle Definition : Charge/Discharge alternance
Mode                Multi sine
E (V)               0.4535
vs.                 Ref
tE (h:m:s)          0:00:0.0000
record              0
dI                  0.000
unit dI             mA
dt (s)              0.000
fi                  400.000
unit fi             kHz
ff                  100.000
unit ff             mHz
Nd                  10
Points              per decade
spacing             Logarithmic
Va (mV)             5.0
pw                  0.10
Na                  3
corr                0
E range min (V)     -1.000
E range max (V)     1.000
I Range             Auto
Bandwidth           8
nc cycles           2
goto Ns'            0
nr cycles           0
inc. cycle          1

freq/Hz	Re(Z)/Ohm	-Im(Z)/Ohm	|Z|/Ohm	Phase(Z)/deg	time/s	<Ewe>/V	<I>/mA	Cs/µF	Cp/µF	cycle number	I Range	|Ewe|/V	|I|/A	Ns	(Q-Qo)/mA.h	Re(Y)/Ohm-1	Im(Y)/Ohm-1	|Y|/Ohm-1	Phase(Y)/deg	Re(C)/nF	Im(C)/nF	|C|/nF	Phase(C)/deg	Re(M)	Im(M)	|M|	Phase(M)/deg	Re(Permittivity)	Im(Permittivity)	|Permittivity|	Phase(Permittivity)/deg	Re(Resistivity)/Ohm.cm	Im(Resistivity)/Ohm.cm	|Resistivity|/Ohm.cm	Phase(Resistivity)/deg	Re(Conductivity)/mS/cm	Im(Conductivity)/mS/cm	|Conductivity|/mS/cm	Phase(Conductivity)/deg	Tan(Delta)	Loss Angle(Delta)/deg	dq/mA.h
399996	13.2676	3.43246	13.7044	-14.505	2.18548	0.453382	0.0170625	0.11592	0.00727196	1	38	0.00496757	0.000362481	0	1.8758e-05	0.0706436	0.0182763	0.0729694	14.505	7.27196	28.1084	29.0339	-75.495	0.0000000E+000	0.0000000E+000	0.0000000E+000	75.495	0.0000000E+000	0.0000000E+000	0.0000000E+000	-75.495	0.0000000E+000	0.0000000E+000	0.0000000E+000	-14.505	0.0000000E+000	0.0000000E+000	0.0000000E+000	14.505	3.86532	75.495	1.8758e-05
252347	13.5082	2.4218	13.7236	-10.1642	3.28749	0.453384	0.0115996	0.260425	0.00811003	1	38	0.00518394	0.000377738	0	2.23749e-05	0.0717235	0.0128588	0.0728671	10.1642	8.11003	45.2358	45.9571	-79.8358	0.0000000E+000	0.0000000E+000	0.0000000E+000	79.8358	0.0000000E+000	0.0000000E+000	0.0000000E+000	-79.8358	0.0000000E+000	0.0000000E+000	0.0000000E+000	-10.1642	0.0000000E+000	0.0000000E+000	0.0000000E+000	10.1642	5.57776	79.8358	1.78927e-06
159201	13.657	1.95352	13.796	-8.14044	4.3895	0.453382	0.00922373	0.511751	0.0102609	1	38	0.00516355	0.000374278	0	2.47478e-05	0.0717543	0.0102638	0.0724847	8.14044	10.2609	71.7337	72.4639	-81.8596	0.0000000E+000	0.0000000E+000	0.0000000E+000	81.8596	0.0000000E+000	0.0000000E+000	0.0000000E+000	-81.8596	0.0000000E+000	0.0000000E+000	0.0000000E+000	-8.14044	0.0000000E+000	0.0000000E+000	0.0000000E+000	8.14044	6.99099	81.8596	1.08627e-06
100431	13.8242	1.87319	13.9506	-7.71662	5.49148	0.453353	0.00771928	0.846003	0.0152529	1	38	0.00514741	0.000368975	0	2.77535e-05	0.0710326	0.00962497	0.0716817	7.71662	15.2529	112.567	113.596	-82.2834	0.0000000E+000	0.0000000E+000	0.0000000E+000	82.2834	0.0000000E+000	0.0000000E+000	0.0000000E+000	-82.2834	0.0000000E+000	0.0000000E+000	0.0000000E+000	-7.71662	0.0000000E+000	0.0000000E+000	0.0000000E+000	7.71662	7.38003	82.2834	1.50783e-06
63362.9	14.0083	2.01912	14.1531	-8.20196	6.5945	0.453367	0.00653695	1.24401	0.0253189	1	38	0.00518398	0.000366279	0	2.98564e-05	0.0699332	0.01008	0.0706559	8.20196	25.3189	175.658	177.474	-81.798	0.0000000E+000	0.0000000E+000	0.0000000E+000	81.798	0.0000000E+000	0.0000000E+000	0.0000000E+000	-81.798	0.0000000E+000	0.0000000E+000	0.0000000E+000	-8.20196	0.0000000E+000	0.0000000E+000	0.0000000E+000	8.20196	6.93784	81.798	9.65385e-07
39971.8	14.359	2.49551	14.5742	-9.8592	7.69649	0.453354	0.00659281	1.59554	0.0467794	1	38	0.00515273	0.000353551	0	3.18865e-05	0.067601	0.0117487	0.0686143	9.8592	46.7794	269.166	273.2	-80.1408	0.0000000E+000	0.0000000E+000	0.0000000E+000	80.1408	0.0000000E+000	0.0000000E+000	0.0000000E+000	-80.1408	0.0000000E+000	0.0000000E+000	0.0000000E+000	-9.8592	0.0000000E+000	0.0000000E+000	0.0000000E+000	9.8592	5.75393	80.1408	1.00823e-06
25219	14.8981	3.17669	15.233	-12.0368	8.79848	0.453356	0.00518705	1.98663	0.0863963	1	38	0.00514031	0.000337445	0	3.32399e-05	0.0642035	0.01369	0.0656468	12.0368	86.3963	405.183	414.292	-77.9632	0.0000000E+000	0.0000000E+000	0.0000000E+000	77.9632	0.0000000E+000	0.0000000E+000	0.0000000E+000	-77.9632	0.0000000E+000	0.0000000E+000	0.0000000E+000	-12.0368	0.0000000E+000	0.0000000E+000	0.0000000E+000	12.0368	4.68982	77.9632	7.46235e-07
15912.6	15.6516	4.15825	16.1946	-14.8783	9.90048	0.453351	0.00548868	2.40529	0.15858	1	38	0.00507686	0.000313491	0	3.48941e-05	0.0596788	0.0158551	0.061749	14.8783	158.58	596.895	617.601	-75.1217	0.0000000E+000	0.0000000E+000	0.0000000E+000	75.1217	0.0000000E+000	0.0000000E+000	0.0000000E+000	-75.1217	0.0000000E+000	0.0000000E+000	0.0000000E+000	-14.8783	0.0000000E+000	0.0000000E+000	0.0000000E+000	14.8783	3.764	75.1217	8.64556e-07
10039.3	16.5932	5.53081	17.4907	-18.4342	10.8675	0.453366	0.0050232	2.86633	0.28661	1	38	0.00540552	0.000309052	0	3.64496e-05	0.0542397	0.0180791	0.0571734	18.4342	286.61	859.868	906.376	-71.5658	0.0000000E+000	0.0000000E+000	0.0000000E+000	71.5658	0.0000000E+000	0.0000000E+000	0.0000000E+000	-71.5658	0.0000000E+000	0.0000000E+000	0.0000000E+000	-18.4342	0.0000000E+000	0.0000000E+000	0.0000000E+000	18.4342	3.00013	71.5658	2.98981e-07
6332.63	18.0605	7.30766	19.4829	-22.0292	12.0699	0.453232	0.00463591	3.4392	0.483844	1	38	0.00532932	0.000273538	0	3.8834e-05	0.0475797	0.0192517	0.0513269	22.0292	483.844	1195.8	1289.98	-67.9707	0.0000000E+000	0.0000000E+000	0.0000000E+000	67.9707	0.0000000E+000	0.0000000E+000	0.0000000E+000	-67.9707	0.0000000E+000	0.0000000E+000	0.0000000E+000	-22.0292	0.0000000E+000	0.0000000E+000	0.0000000E+000	22.0292	2.47145	67.9707	9.71374e-07
3993.72	19.9819	9.56708	22.1542	-25.5845	13.4398	0.453237	0.00444972	4.16546	0.776805	1	38	0.0054793	0.000247326	0	4.01621e-05	0.0407124	0.0194926	0.0451383	25.5845	776.805	1622.44	1798.82	-64.4155	0.0000000E+000	0.0000000E+000	0.0000000E+000	64.4155	0.0000000E+000	0.0000000E+000	0.0000000E+000	-64.4155	0.0000000E+000	0.0000000E+000	0.0000000E+000	-25.5845	0.0000000E+000	0.0000000E+000	0.0000000E+000	25.5845	2.08861	64.4155	6.15117e-07
2519.19	22.5275	12.352	25.6916	-28.7364	14.8068	0.453236	0.00388928	5.11471	1.18226	1	38	0.00546266	0.000212624	0	4.21335e-05	0.0341294	0.0187135	0.0389232	28.7364	1182.26	2156.2	2459.05	-61.2636	0.0000000E+000	0.0000000E+000	0.0000000E+000	61.2636	0.0000000E+000	0.0000000E+000	0.0000000E+000	-61.2636	0.0000000E+000	0.0000000E+000	0.0000000E+000	-28.7364	0.0000000E+000	0.0000000E+000	0.0000000E+000	28.7364	1.82379	61.2636	9.49324e-07
1589.49	26.3018	15.7163	30.6396	-30.8598	16.1738	0.453236	0.00390417	6.37107	1.67627	1	38	0.00543545	0.000177399	0	4.37498e-05	0.0280168	0.016741	0.0326375	30.8598	1676.27	2805.31	3267.97	-59.1402	0.0000000E+000	0.0000000E+000	0.0000000E+000	59.1402	0.0000000E+000	0.0000000E+000	0.0000000E+000	-59.1402	0.0000000E+000	0.0000000E+000	0.0000000E+000	-30.8598	0.0000000E+000	0.0000000E+000	0.0000000E+000	30.8598	1.67354	59.1402	9.65655e-07
1002.75	31.3856	19.6531	37.0311	-32.054	18.0182	0.453223	0.010371	8.076	2.27471	1	39	0.00501652	0.000135468	0	4.8683e-05	0.0228875	0.0143317	0.0270044	32.054	2274.71	3632.66	4286.09	-57.946	0.0000000E+000	0.0000000E+000	0.0000000E+000	57.946	0.0000000E+000	0.0000000E+000	0.0000000E+000	-57.946	0.0000000E+000	0.0000000E+000	0.0000000E+000	-32.054	0.0000000E+000	0.0000000E+000	0.0000000E+000	32.054	1.59698	57.946	2.00048e-06
632.773	37.5362	23.8383	44.466	-32.4186	19.3865	0.453252	0.0100918	10.5511	3.03243	1	39	0.00489993	0.000110195	0	5.26334e-05	0.0189842	0.0120564	0.0224891	32.4186	3032.43	4774.92	5656.45	-57.5814	0.0000000E+000	0.0000000E+000	0.0000000E+000	57.5814	0.0000000E+000	0.0000000E+000	0.0000000E+000	-57.5814	0.0000000E+000	0.0000000E+000	0.0000000E+000	-32.4186	0.0000000E+000	0.0000000E+000	0.0000000E+000	32.4186	1.57462	57.5814	2.04451e-06
399.106	45.6052	27.7341	53.3762	-31.3052	20.7582	0.453242	0.00993939	14.3786	3.88196	1	39	0.00485524	9.09627e-05	0	5.63418e-05	0.0160074	0.00973463	0.018735	31.3052	3881.96	6383.39	7471.1	-58.6948	0.0000000E+000	0.0000000E+000	0.0000000E+000	58.6948	0.0000000E+000	0.0000000E+000	0.0000000E+000	-58.6948	0.0000000E+000	0.0000000E+000	0.0000000E+000	-31.3052	0.0000000E+000	0.0000000E+000	0.0000000E+000	31.3052	1.64437	58.6948	1.82362e-06
251.853	53.8241	31.105	62.1655	-30.0236	22.1183	0.453247	0.00986353	20.3162	5.08631	1	39	0.00478129	7.69123e-05	0	6.00269e-05	0.0139276	0.00804879	0.0160861	30.0236	5086.31	8801.36	10165.4	-59.9764	0.0000000E+000	0.0000000E+000	0.0000000E+000	59.9764	0.0000000E+000	0.0000000E+000	0.0000000E+000	-59.9764	0.0000000E+000	0.0000000E+000	0.0000000E+000	-30.0236	0.0000000E+000	0.0000000E+000	0.0000000E+000	30.0236	1.7304	59.9763	1.83574e-06
158.831	63.5224	34.7384	72.4006	-28.6729	23.4902	0.453251	0.00957315	28.8454	6.64065	1	39	0.00476719	6.58446e-05	0	6.36652e-05	0.0121183	0.00662713	0.013812	28.6729	6640.65	12143.1	13840.2	-61.3271	0.0000000E+000	0.0000000E+000	0.0000000E+000	61.3271	0.0000000E+000	0.0000000E+000	0.0000000E+000	-61.3271	0.0000000E+000	0.0000000E+000	0.0000000E+000	-28.6729	0.0000000E+000	0.0000000E+000	0.0000000E+000	28.6729	1.82859	61.3271	1.8342e-06
100.224	73.2099	39.3911	83.1345	-28.2828	24.8503	0.453221	0.00978078	40.3133	9.05068	1	39	0.00475948	5.72504e-05	0	6.72823e-05	0.0105927	0.00569948	0.0120287	28.2828	9050.68	16821.1	19101.4	-61.7172	0.0000000E+000	0.0000000E+000	0.0000000E+000	61.7172	0.0000000E+000	0.0000000E+000	0.0000000E+000	-61.7172	0.0000000E+000	0.0000000E+000	0.0000000E+000	-28.2828	0.0000000E+000	0.0000000E+000	0.0000000E+000	28.2828	1.85854	61.7172	1.77852e-06
63.2394	84.4776	45.3238	95.8682	-28.2144	26.2373	0.453239	0.00939348	55.5273	12.4111	1	39	0.00477989	4.9859e-05	0	7.08479e-05	0.00919163	0.00493147	0.010431	28.2144	12411.1	23132.6	26251.7	-61.7856	0.0000000E+000	0.0000000E+000	0.0000000E+000	61.7856	0.0000000E+000	0.0000000E+000	0.0000000E+000	-61.7856	0.0000000E+000	0.0000000E+000	0.0000000E+000	-28.2144	0.0000000E+000	0.0000000E+000	0.0000000E+000	28.2144	1.86387	61.7856	1.81648e-06
39.8851	96.2257	52.0224	109.388	-28.3969	27.6023	0.45324	0.00942908	76.7041	17.3485	1	39	0.00475913	4.35069e-05	0	7.43674e-05	0.00804179	0.00434762	0.00914178	28.3969	17348.5	32089.4	36478.8	-61.6031	0.0000000E+000	0.0000000E+000	0.0000000E+000	61.6031	0.0000000E+000	0.0000000E+000	0.0000000E+000	-61.6031	0.0000000E+000	0.0000000E+000	0.0000000E+000	-28.3969	0.0000000E+000	0.0000000E+000	0.0000000E+000	28.3969	1.8497	61.6031	1.8031e-06
25.1691	109.009	60.2283	124.541	-28.9209	28.9344	0.453231	0.00916685	104.991	24.5543	1	39	0.00473173	3.79933e-05	0	7.77302e-05	0.00702811	0.00388307	0.00802948	28.9209	24554.3	44441.7	50773.8	-61.0791	0.0000000E+000	0.0000000E+000	0.0000000E+000	61.0791	0.0000000E+000	0.0000000E+000	0.0000000E+000	-61.0791	0.0000000E+000	0.0000000E+000	0.0000000E+000	-28.9209	0.0000000E+000	0.0000000E+000	0.0000000E+000	28.9209	1.80993	61.0791	1.70778e-06
15.879	125.589	75.4841	146.528	-31.0076	30.5107	0.453241	0.00940305	132.782	35.2379	1	40	0.0047746	3.25849e-05	0	8.14064e-05	0.00584939	0.00351573	0.00682464	31.0076	35238	58628.2	68403	-58.9924	0.0000000E+000	0.0000000E+000	0.0000000E+000	58.9924	0.0000000E+000	0.0000000E+000	0.0000000E+000	-58.9924	0.0000000E+000	0.0000000E+000	0.0000000E+000	-31.0076	0.0000000E+000	0.0000000E+000	0.0000000E+000	31.0076	1.66378	58.9924	2.0568e-06
10.016	145.334	90.5472	171.233	-31.924	31.9925	0.453225	0.00927389	175.489	49.0707	1	40	0.00475474	2.77676e-05	0	8.51932e-05	0.00495669	0.00308815	0.00583998	31.924	49070.7	78761.8	92797.4	-58.076	0.0000000E+000	0.0000000E+000	0.0000000E+000	58.076	0.0000000E+000	0.0000000E+000	0.0000000E+000	-58.076	0.0000000E+000	0.0000000E+000	0.0000000E+000	-31.924	0.0000000E+000	0.0000000E+000	0.0000000E+000	31.924	1.60507	58.076	1.73537e-06
6.30621	182.432	116.806	216.622	-32.6302	63.2091	0.453209	0.0085233	216.066	62.8219	1	40	0.00500763	2.31169e-05	0	0.000157417	0.00388773	0.0024892	0.00461634	32.6302	62821.9	98117.8	116506	-57.3698	0.0000000E+000	0.0000000E+000	0.0000000E+000	57.3698	0.0000000E+000	0.0000000E+000	0.0000000E+000	-57.3698	0.0000000E+000	0.0000000E+000	0.0000000E+000	-32.6302	0.0000000E+000	0.0000000E+000	0.0000000E+000	32.6302	1.56184	57.3698	0.000000000000000E+000
4.00395	206.785	152.262	256.796	-36.3654	63.2106	0.453209	0.0085233	261.06	91.7803	1	40	0.00501491	1.95288e-05	0	0.000157417	0.00313577	0.00230897	0.00389415	36.3654	91780.3	124645	154791	-53.6346	0.0000000E+000	0.0000000E+000	0.0000000E+000	53.6346	0.0000000E+000	0.0000000E+000	0.0000000E+000	-53.6346	0.0000000E+000	0.0000000E+000	0.0000000E+000	-36.3654	0.0000000E+000	0.0000000E+000	0.0000000E+000	36.3654	1.35809	53.6346	0.000000000000000E+000
2.50247	248.599	189.007	312.291	-37.2453	63.2121	0.453209	0.0085233	336.491	123.257	1	40	0.00500285	1.60198e-05	0	0.000157417	0.00254907	0.00193803	0.00320215	37.2453	123257	162119	203654	-52.7547	0.0000000E+000	0.0000000E+000	0.0000000E+000	52.7547	0.0000000E+000	0.0000000E+000	0.0000000E+000	-52.7547	0.0000000E+000	0.0000000E+000	0.0000000E+000	-37.2453	0.0000000E+000	0.0000000E+000	0.0000000E+000	37.2453	1.31529	52.7547	0.000000000000000E+000
1.60158	301.151	241.887	386.266	-38.7717	63.2136	0.453209	0.0085233	410.828	161.106	1	40	0.00500593	1.29598e-05	0	0.000157417	0.00201842	0.00162121	0.00258889	38.7717	161106	200578	257268	-51.2283	0.0000000E+000	0.0000000E+000	0.0000000E+000	51.2283	0.0000000E+000	0.0000000E+000	0.0000000E+000	-51.2283	0.0000000E+000	0.0000000E+000	0.0000000E+000	-38.7717	0.0000000E+000	0.0000000E+000	0.0000000E+000	38.7717	1.24501	51.2283	0.000000000000000E+000
1.00099	359.069	276.191	453.003	-37.5669	63.215	0.453209	0.0085233	575.683	213.992	1	40	0.00500622	1.10512e-05	0	0.000157417	0.00174975	0.00134588	0.00220749	37.5669	213992	278207	350987	-52.4331	0.0000000E+000	0.0000000E+000	0.0000000E+000	52.4331	0.0000000E+000	0.0000000E+000	0.0000000E+000	-52.4331	0.0000000E+000	0.0000000E+000	0.0000000E+000	-37.5669	0.0000000E+000	0.0000000E+000	0.0000000E+000	37.5669	1.30008	52.4331	0.000000000000000E+000
0.600592	439.851	384.611	584.29	-41.1668	63.2165	0.453209	0.0085233	689	298.542	1	40	0.00500816	8.57136e-06	0	0.000157417	0.0012884	0.00112659	0.00171148	41.1668	298542	341421	453536	-48.8332	0.0000000E+000	0.0000000E+000	0.0000000E+000	48.8332	0.0000000E+000	0.0000000E+000	0.0000000E+000	-48.8332	0.0000000E+000	0.0000000E+000	0.0000000E+000	-41.1668	0.0000000E+000	0.0000000E+000	0.0000000E+000	41.1668	1.14363	48.8332	0.000000000000000E+000
0.400395	504.078	450.908	676.323	-41.8133	63.218	0.453209	0.0085233	881.544	391.842	1	40	0.00500335	7.39787e-06	0	0.000157417	0.00110202	0.000985779	0.00147858	41.8133	391842	438048	587730	-48.1867	0.0000000E+000	0.0000000E+000	0.0000000E+000	48.1867	0.0000000E+000	0.0000000E+000	0.0000000E+000	-48.1867	0.0000000E+000	0.0000000E+000	0.0000000E+000	-41.8133	0.0000000E+000	0.0000000E+000	0.0000000E+000	41.8133	1.11792	48.1868	0.000000000000000E+000
0.200197	692.23	636.519	940.393	-42.5991	63.2195	0.453209	0.0085233	1248.97	572.209	1	40	0.0049998	5.31671e-06	0	0.000157419	0.000782765	0.000719768	0.00106338	42.5991	572208	622291	845381	-47.4009	0.0000000E+000	0.0000000E+000	0.0000000E+000	47.4009	0.0000000E+000	0.0000000E+000	0.0000000E+000	-47.4009	0.0000000E+000	0.0000000E+000	0.0000000E+000	-42.5991	0.0000000E+000	0.0000000E+000	0.0000000E+000	42.5991	1.08752	47.4009	1.90211e-09
399996	13.2943	3.46447	13.7383	-14.6062	65.3095	0.453361	0.00450931	0.114849	0.00730351	2	38	0.00492017	0.000358134	0	0.000162975	0.0704365	0.0183555	0.072789	14.6062	7.30351	28.0261	28.9621	-75.3938	0.0000000E+000	0.0000000E+000	0.0000000E+000	75.3938	0.0000000E+000	0.0000000E+000	0.0000000E+000	-75.3938	0.0000000E+000	0.0000000E+000	0.0000000E+000	-14.6062	0.0000000E+000	0.0000000E+000	0.0000000E+000	14.6062	3.83734	75.3938	5.55616e-06
252347	13.5115	2.49677	13.7402	-10.4695	66.4125	0.453359	0.00396004	0.252605	0.00834089	2	38	0.00518099	0.000377067	0	0.000164816	0.0715674	0.0132249	0.072779	10.4695	8.34089	45.1374	45.9016	-79.5305	0.0000000E+000	0.0000000E+000	0.0000000E+000	79.5305	0.0000000E+000	0.0000000E+000	0.0000000E+000	-79.5305	0.0000000E+000	0.0000000E+000	0.0000000E+000	-10.4695	0.0000000E+000	0.0000000E+000	0.0000000E+000	10.4695	5.41158	79.5305	8.20961e-07
159201	13.6581	2.04114	13.8098	-8.49969	67.5155	0.453349	0.00369564	0.489782	0.0106998	2	38	0.00517429	0.000374684	0	0.000166013	0.0716172	0.0107029	0.0724126	8.49969	10.6998	71.5967	72.3918	-81.5003	0.0000000E+000	0.0000000E+000	0.0000000E+000	81.5003	0.0000000E+000	0.0000000E+000	0.0000000E+000	-81.5003	0.0000000E+000	0.0000000E+000	0.0000000E+000	-8.49969	0.0000000E+000	0.0000000E+000	0.0000000E+000	8.49969	6.69141	81.5003	4.04892e-07
100431	13.7822	1.98199	13.924	-8.18347	68.6175	0.453357	0.00331208	0.799562	0.0162004	2	38	0.00510388	0.000366552	0	0.000167369	0.071087	0.0102229	0.0718183	8.18347	16.2004	112.653	113.812	-81.8165	0.0000000E+000	0.0000000E+000	0.0000000E+000	81.8165	0.0000000E+000	0.0000000E+000	0.0000000E+000	-81.8165	0.0000000E+000	0.0000000E+000	0.0000000E+000	-8.18347	0.0000000E+000	0.0000000E+000	0.0000000E+000	8.18347	6.95373	81.8165	4.65248e-07
63362.9	14.0634	2.14818	14.2265	-8.68477	69.7195	0.453374	0.00413692	1.16927	0.0266598	2	38	0.00515767	0.000362539	0	0.00016772	0.0694853	0.0106138	0.0702913	8.68477	26.6599	174.533	176.558	-81.3152	0.0000000E+000	0.0000000E+000	0.0000000E+000	81.3152	0.0000000E+000	0.0000000E+000	0.0000000E+000	-81.3152	0.0000000E+000	0.0000000E+000	0.0000000E+000	-8.68477	0.0000000E+000	0.0000000E+000	0.0000000E+000	8.68477	6.54667	81.3152	2.67365e-07
39971.8	14.4649	2.64398	14.7045	-10.3585	70.8215	0.453352	0.00351503	1.50594	0.048688	2	38	0.0051486	0.000350137	0	0.000168582	0.0668978	0.012228	0.0680062	10.3585	48.6881	266.366	270.779	-79.6415	0.0000000E+000	0.0000000E+000	0.0000000E+000	79.6415	0.0000000E+000	0.0000000E+000	0.0000000E+000	-79.6415	0.0000000E+000	0.0000000E+000	0.0000000E+000	-10.3585	0.0000000E+000	0.0000000E+000	0.0000000E+000	10.3585	5.47087	79.6415	5.79701e-07
25219	15.0249	3.46629	15.4195	-12.9911	71.9245	0.453377	0.00369936	1.82065	0.0920061	2	38	0.00512887	0.000332622	0	0.000169819	0.063193	0.0145789	0.0648529	12.9911	92.006	398.806	409.281	-77.0089	0.0000000E+000	0.0000000E+000	0.0000000E+000	77.0089	0.0000000E+000	0.0000000E+000	0.0000000E+000	-77.0089	0.0000000E+000	0.0000000E+000	0.0000000E+000	-12.9911	0.0000000E+000	0.0000000E+000	0.0000000E+000	12.9911	4.33456	77.0089	8.14298e-07
15912.6	15.7221	4.51551	16.3577	-16.0245	73.0265	0.453364	0.00382784	2.21499	0.168788	2	38	0.00512004	0.000313005	0	0.00017107	0.058758	0.0168758	0.0611334	16.0245	168.788	587.685	611.444	-73.9755	0.0000000E+000	0.0000000E+000	0.0000000E+000	73.9755	0.0000000E+000	0.0000000E+000	0.0000000E+000	-73.9755	0.0000000E+000	0.0000000E+000	0.0000000E+000	-16.0245	0.0000000E+000	0.0000000E+000	0.0000000E+000	16.0245	3.48179	73.9755	9.25375e-07
10039.3	16.7625	6.04505	17.8192	-19.8308	73.9935	0.453354	0.00401961	2.6225	0.301814	2	38	0.00533039	0.000299138	0	0.000172313	0.0527914	0.0190382	0.0561193	19.8308	301.814	836.908	889.667	-70.1692	0.0000000E+000	0.0000000E+000	0.0000000E+000	70.1692	0.0000000E+000	0.0000000E+000	0.0000000E+000	-70.1692	0.0000000E+000	0.0000000E+000	0.0000000E+000	-19.8308	0.0000000E+000	0.0000000E+000	0.0000000E+000	19.8308	2.77292	70.1692	2.34281e-07
6332.63	18.1832	8.00573	19.8676	-23.763	75.1969	0.453213	0.0039079	3.13932	0.509739	2	38	0.00531197	0.000267369	0	0.000174225	0.0460661	0.0202821	0.0503333	23.763	509.739	1157.76	1265	-66.237	0.0000000E+000	0.0000000E+000	0.0000000E+000	66.237	0.0000000E+000	0.0000000E+000	0.0000000E+000	-66.237	0.0000000E+000	0.0000000E+000	0.0000000E+000	-23.763	0.0000000E+000	0.0000000E+000	0.0000000E+000	23.763	2.27127	66.237	8.82806e-07
3993.72	20.404	10.4507	22.9246	-27.1211	76.5628	0.453231	0.00507533	3.81326	0.79247	2	38	0.00547545	0.000238845	0	0.000175587	0.0388248	0.0198857	0.0436212	27.1211	792.47	1547.22	1738.36	-62.8789	0.0000000E+000	0.0000000E+000	0.0000000E+000	62.8789	0.0000000E+000	0.0000000E+000	0.0000000E+000	-62.8789	0.0000000E+000	0.0000000E+000	0.0000000E+000	-27.1211	0.0000000E+000	0.0000000E+000	0.0000000E+000	27.1211	1.9524	62.8789	7.45196e-07
2519.19	23.3053	13.3495	26.8579	-29.8045	77.9298	0.453253	0.00380735	4.73255	1.16918	2	38	0.00546745	0.00020357	0	0.000177585	0.0323081	0.0185064	0.0372331	29.8045	1169.18	2041.13	2352.27	-60.1955	0.0000000E+000	0.0000000E+000	0.0000000E+000	60.1955	0.0000000E+000	0.0000000E+000	0.0000000E+000	-60.1955	0.0000000E+000	0.0000000E+000	0.0000000E+000	-29.8045	0.0000000E+000	0.0000000E+000	0.0000000E+000	29.8045	1.74578	60.1955	9.78902e-07
1589.49	27.2879	17.2376	32.2763	-32.2803	79.2958	0.453238	0.00482583	5.80879	1.6568	2	38	0.00544663	0.00016875	0	0.000179463	0.026194	0.0165466	0.0309825	32.2803	1656.8	2622.79	3102.26	-57.7197	0.0000000E+000	0.0000000E+000	0.0000000E+000	57.7197	0.0000000E+000	0.0000000E+000	0.0000000E+000	-57.7197	0.0000000E+000	0.0000000E+000	0.0000000E+000	-32.2803	0.0000000E+000	0.0000000E+000	0.0000000E+000	32.2803	1.58305	57.7197	1.10954e-06
1002.75	32.4668	21.3556	38.8607	-33.3356	81.1402	0.453209	0.00820196	7.43215	2.24449	2	39	0.0050059	0.000128816	0	0.000183489	0.021499	0.0141413	0.0257329	33.3356	2244.49	3412.28	4084.28	-56.6644	0.0000000E+000	0.0000000E+000	0.0000000E+000	56.6644	0.0000000E+000	0.0000000E+000	0.0000000E+000	-56.6644	0.0000000E+000	0.0000000E+000	0.0000000E+000	-33.3356	0.0000000E+000	0.0000000E+000	0.0000000E+000	33.3356	1.52029	56.6644	1.58957e-06
632.773	39.3123	25.3862	46.7966	-32.8527	82.5105	0.453266	0.00840661	9.90773	2.9157	2	39	0.0048879	0.00010445	0	0.000186711	0.0179515	0.0115923	0.0213691	32.8527	2915.7	4515.16	5374.75	-57.1473	0.0000000E+000	0.0000000E+000	0.0000000E+000	57.1473	0.0000000E+000	0.0000000E+000	0.0000000E+000	-57.1473	0.0000000E+000	0.0000000E+000	0.0000000E+000	-32.8527	0.0000000E+000	0.0000000E+000	0.0000000E+000	32.8527	1.54857	57.1473	1.68877e-06
399.106	47.8121	29.6274	56.2475	-31.785	83.8822	0.45324	0.00855179	13.4598	3.73438	2	39	0.00484144	8.60739e-05	0	0.000189736	0.0151123	0.00936455	0.0177786	31.785	3734.38	6026.47	7089.71	-58.215	0.0000000E+000	0.0000000E+000	0.0000000E+000	58.215	0.0000000E+000	0.0000000E+000	0.0000000E+000	-58.215	0.0000000E+000	0.0000000E+000	0.0000000E+000	-31.785	0.0000000E+000	0.0000000E+000	0.0000000E+000	31.785	1.61378	58.215	1.51481e-06
251.853	56.8306	33.4979	65.9684	-30.5166	85.2403	0.453287	0.00811119	18.8649	4.86428	2	39	0.00479309	7.26574e-05	0	0.000192919	0.013059	0.00769744	0.0151588	30.5166	4864.28	8252.45	9579.36	-59.4834	0.0000000E+000	0.0000000E+000	0.0000000E+000	59.4834	0.0000000E+000	0.0000000E+000	0.0000000E+000	-59.4834	0.0000000E+000	0.0000000E+000	0.0000000E+000	-30.5166	0.0000000E+000	0.0000000E+000	0.0000000E+000	30.5166	1.69654	59.4834	1.62556e-06
158.831	66.7522	37.258	76.4461	-29.1682	86.6132	0.453245	0.00838237	26.8947	6.38842	2	39	0.00477327	6.24396e-05	0	0.000196091	0.0114223	0.00637541	0.0130811	29.1682	6388.42	11445.6	13107.8	-60.8318	0.0000000E+000	0.0000000E+000	0.0000000E+000	60.8318	0.0000000E+000	0.0000000E+000	0.0000000E+000	-60.8318	0.0000000E+000	0.0000000E+000	0.0000000E+000	-29.1682	0.0000000E+000	0.0000000E+000	0.0000000E+000	29.1682	1.79162	60.8318	1.65977e-06
100.224	78.1897	41.4257	88.4857	-27.9151	87.9733	0.453267	0.00814418	38.3333	8.40175	2	39	0.00477874	5.40058e-05	0	0.000199144	0.00998627	0.00529083	0.0113013	27.9151	8401.75	15858	17946.2	-62.0849	0.0000000E+000	0.0000000E+000	0.0000000E+000	62.0849	0.0000000E+000	0.0000000E+000	0.0000000E+000	-62.0849	0.0000000E+000	0.0000000E+000	0.0000000E+000	-27.9151	0.0000000E+000	0.0000000E+000	0.0000000E+000	27.9151	1.88747	62.0849	1.52108e-06
63.2394	88.1548	47.1129	99.9544	-28.1215	89.3603	0.453252	0.00843605	53.4186	11.8677	2	39	0.00474846	4.75063e-05	0	0.000202216	0.00882352	0.00471558	0.0100046	28.1215	11867.7	22206.2	25178.5	-61.8784	0.0000000E+000	0.0000000E+000	0.0000000E+000	61.8784	0.0000000E+000	0.0000000E+000	0.0000000E+000	-61.8784	0.0000000E+000	0.0000000E+000	0.0000000E+000	-28.1215	0.0000000E+000	0.0000000E+000	0.0000000E+000	28.1215	1.87114	61.8784	1.57364e-06
39.8851	100.627	55.0776	114.714	-28.6939	90.7283	0.453275	0.00845133	72.4493	16.7014	2	39	0.0047524	4.14282e-05	0	0.000205407	0.00764682	0.00418545	0.00871733	28.6939	16701.4	30513.4	34785.1	-61.3061	0.0000000E+000	0.0000000E+000	0.0000000E+000	61.3061	0.0000000E+000	0.0000000E+000	0.0000000E+000	-61.3061	0.0000000E+000	0.0000000E+000	0.0000000E+000	-28.6939	0.0000000E+000	0.0000000E+000	0.0000000E+000	28.6939	1.827	61.3061	1.64491e-06
25.1691	115.672	64.1754	132.282	-29.0218	92.0614	0.45325	0.00842971	98.5334	23.1911	2	39	0.00475476	3.59442e-05	0	0.000208385	0.0066104	0.0036675	0.00755963	29.0218	23191.1	41800.4	47802.7	-60.9782	0.0000000E+000	0.0000000E+000	0.0000000E+000	60.9782	0.0000000E+000	0.0000000E+000	0.0000000E+000	-60.9782	0.0000000E+000	0.0000000E+000	0.0000000E+000	-29.0218	0.0000000E+000	0.0000000E+000	0.0000000E+000	29.0218	1.80243	60.9782	1.57088e-06
15.879	132.221	77.8249	153.424	-30.481	93.6377	0.453273	0.00844006	128.788	33.138	2	40	0.00477004	3.10905e-05	0	0.000211754	0.00561709	0.00330621	0.00651787	30.481	33138	56299.8	65328.3	-59.519	0.0000000E+000	0.0000000E+000	0.0000000E+000	59.519	0.0000000E+000	0.0000000E+000	0.0000000E+000	-59.519	0.0000000E+000	0.0000000E+000	0.0000000E+000	-30.481	0.0000000E+000	0.0000000E+000	0.0000000E+000	30.481	1.69895	59.519	1.93839e-06
10.016	152.169	96.0241	179.933	-32.2534	95.1195	0.45327	0.00848974	165.479	47.1282	2	40	0.00477004	2.651e-05	0	0.000215095	0.00470005	0.0029659	0.00555761	32.2534	47128.2	74683.8	88310.5	-57.7466	0.0000000E+000	0.0000000E+000	0.0000000E+000	57.7466	0.0000000E+000	0.0000000E+000	0.0000000E+000	-57.7466	0.0000000E+000	0.0000000E+000	0.0000000E+000	-32.2534	0.0000000E+000	0.0000000E+000	0.0000000E+000	32.2534	1.5847	57.7466	1.48092e-06
6.30621	189.809	120.876	225.03	-32.4901	126.336	0.453223	0.0083406	208.791	60.2436	2	40	0.00500727	2.22516e-05	0	0.000284933	0.00374832	0.00238704	0.00444386	32.4901	60243.6	94599.4	112153	-57.5099	0.0000000E+000	0.0000000E+000	0.0000000E+000	57.5099	0.0000000E+000	0.0000000E+000	0.0000000E+000	-57.5099	0.0000000E+000	0.0000000E+000	0.0000000E+000	-32.4901	0.0000000E+000	0.0000000E+000	0.0000000E+000	32.4901	1.57028	57.5099	0.000000000000000E+000
4.00395	215.522	156.901	266.585	-36.0548	126.338	0.453223	0.0083406	253.341	87.7579	2	40	0.00501507	1.88123e-05	0	0.000284933	0.00303263	0.00220777	0.00375114	36.0548	87757.9	120546	149106	-53.9452	0.0000000E+000	0.0000000E+000	0.0000000E+000	53.9452	0.0000000E+000	0.0000000E+000	0.0000000E+000	-53.9452	0.0000000E+000	0.0000000E+000	0.0000000E+000	-36.0548	0.0000000E+000	0.0000000E+000	0.0000000E+000	36.0548	1.37362	53.9452	0.000000000000000E+000
2.50247	258.192	194.555	323.288	-36.999	126.339	0.453223	0.0083406	326.896	118.39	2	40	0.00500204	1.54724e-05	0	0.000284933	0.00247039	0.0018615	0.00309322	36.999	118390	157115	196726	-53.001	0.0000000E+000	0.0000000E+000	0.0000000E+000	53.001	0.0000000E+000	0.0000000E+000	0.0000000E+000	-53.001	0.0000000E+000	0.0000000E+000	0.0000000E+000	-36.999	0.0000000E+000	0.0000000E+000	0.0000000E+000	36.999	1.32709	53.001	0.000000000000000E+000
1.60158	312.404	248.291	399.054	-38.4768	126.341	0.453223	0.0083406	400.232	154.942	2	40	0.00500563	1.25437e-05	0	0.000284933	0.00196179	0.00155918	0.00250593	38.4768	154942	194950	249023	-51.5232	0.0000000E+000	0.0000000E+000	0.0000000E+000	51.5232	0.0000000E+000	0.0000000E+000	0.0000000E+000	-51.5232	0.0000000E+000	0.0000000E+000	0.0000000E+000	-38.4768	0.0000000E+000	0.0000000E+000	0.0000000E+000	38.4768	1.25822	51.5232	0.000000000000000E+000
1.00099	372.454	285.069	469.027	-37.4297	126.342	0.453223	0.0083406	557.753	206.037	2	40	0.00500664	1.06745e-05	0	0.000284933	0.00169308	0.00129585	0.00213207	37.4297	206037	269196	338995	-52.5703	0.0000000E+000	0.0000000E+000	0.0000000E+000	52.5703	0.0000000E+000	0.0000000E+000	0.0000000E+000	-52.5703	0.0000000E+000	0.0000000E+000	0.0000000E+000	-37.4297	0.0000000E+000	0.0000000E+000	0.0000000E+000	37.4297	1.30654	52.5703	0.000000000000000E+000
0.600592	454.285	395.534	602.347	-41.0452	126.343	0.453223	0.0083406	669.972	288.889	2	40	0.00500727	8.31294e-06	0	0.000284933	0.00125209	0.00109016	0.00166017	41.0452	288889	331799	439941	-48.9548	0.0000000E+000	0.0000000E+000	0.0000000E+000	48.9548	0.0000000E+000	0.0000000E+000	0.0000000E+000	-48.9548	0.0000000E+000	0.0000000E+000	0.0000000E+000	-41.0452	0.0000000E+000	0.0000000E+000	0.0000000E+000	41.0452	1.14854	48.9548	0.000000000000000E+000
0.400395	522.154	464.016	698.538	-41.6261	126.345	0.453223	0.0083406	856.641	377.994	2	40	0.00500261	7.16153e-06	0	0.000284933	0.00107008	0.000950939	0.00143156	41.6261	377994	425354	569038	-48.3739	0.0000000E+000	0.0000000E+000	0.0000000E+000	48.3739	0.0000000E+000	0.0000000E+000	0.0000000E+000	-48.3739	0.0000000E+000	0.0000000E+000	0.0000000E+000	-41.6261	0.0000000E+000	0.0000000E+000	0.0000000E+000	41.6261	1.12529	48.3739	0.000000000000000E+000
0.200197	721.576	657.763	976.383	-42.3512	126.346	0.453223	0.0083406	1208.63	548.518	2	40	0.00500391	5.12494e-06	0	0.000284935	0.000756906	0.000689968	0.00102419	42.3512	548518	601733	814220	-47.6488	0.0000000E+000	0.0000000E+000	0.0000000E+000	47.6488	0.0000000E+000	0.0000000E+000	0.0000000E+000	-47.6488	0.0000000E+000	0.0000000E+000	0.0000000E+000	-42.3512	0.0000000E+000	0.0000000E+000	0.0000000E+000	42.3512	1.09702	47.6488	1.87371e-09
399996	13.2872	3.48381	13.7363	-14.6919	128.283	0.453372	0.00509954	0.114212	0.00734647	3	38	0.00494674	0.000360122	0	0.000289832	0.0704196	0.0184635	0.0727998	14.6919	7.34647	28.0193	28.9664	-75.3081	0.0000000E+000	0.0000000E+000	0.0000000E+000	75.3081	0.0000000E+000	0.0000000E+000	0.0000000E+000	-75.3081	0.0000000E+000	0.0000000E+000	0.0000000E+000	-14.6919	0.0000000E+000	0.0000000E+000	0.0000000E+000	14.6919	3.81398	75.3081	4.89692e-06
252347	13.5193	2.51997	13.7522	-10.5586	129.385	0.453357	0.00462847	0.25028	0.00840376	3	38	0.00516624	0.000375667	0	0.000291405	0.0714845	0.0133246	0.0727158	10.5586	8.40376	45.0851	45.8617	-79.4414	0.0000000E+000	0.0000000E+000	0.0000000E+000	79.4414	0.0000000E+000	0.0000000E+000	0.0000000E+000	-79.4414	0.0000000E+000	0.0000000E+000	0.0000000E+000	-10.5586	0.0000000E+000	0.0000000E+000	0.0000000E+000	10.5586	5.36487	79.4414	1.0885e-06
159201	13.7299	2.07528	13.8859	-8.59521	130.486	0.453359	0.00414809	0.481725	0.0107598	3	38	0.00519672	0.000374245	0	0.000293652	0.0712069	0.0107629	0.0720157	8.59521	10.7598	71.1864	71.995	-81.4048	0.0000000E+000	0.0000000E+000	0.0000000E+000	81.4048	0.0000000E+000	0.0000000E+000	0.0000000E+000	-81.4048	0.0000000E+000	0.0000000E+000	0.0000000E+000	-8.59521	0.0000000E+000	0.0000000E+000	0.0000000E+000	8.59521	6.61593	81.4048	1.17962e-06
100431	13.8402	1.97665	13.9806	-8.128	131.588	0.453361	0.00483701	0.801725	0.0160263	3	38	0.00514455	0.000367978	0	0.000295084	0.0708092	0.0101129	0.0715277	8.128	16.0263	112.213	113.352	-81.872	0.0000000E+000	0.0000000E+000	0.0000000E+000	81.872	0.0000000E+000	0.0000000E+000	0.0000000E+000	-81.872	0.0000000E+000	0.0000000E+000	0.0000000E+000	-8.128	0.0000000E+000	0.0000000E+000	0.0000000E+000	8.128	7.00184	81.872	1.10088e-06
63362.9	14.1055	2.20137	14.2762	-8.87033	132.691	0.453331	0.00532111	1.14102	0.0271302	3	38	0.00513936	0.000359995	0	0.000296991	0.0692089	0.0108011	0.0700466	8.87033	27.1302	173.839	175.943	-81.1297	0.0000000E+000	0.0000000E+000	0.0000000E+000	81.1297	0.0000000E+000	0.0000000E+000	0.0000000E+000	-81.1297	0.0000000E+000	0.0000000E+000	0.0000000E+000	-8.87033	0.0000000E+000	0.0000000E+000	0.0000000E+000	8.87033	6.40757	81.1297	8.09592e-07
39971.8	14.4922	2.74561	14.75	-10.7278	133.793	0.453359	0.00482397	1.4502	0.0502485	3	38	0.00517535	0.000350872	0	0.000298551	0.0666119	0.0126199	0.0677968	10.7278	50.2485	265.227	269.945	-79.2722	0.0000000E+000	0.0000000E+000	0.0000000E+000	79.2722	0.0000000E+000	0.0000000E+000	0.0000000E+000	-79.2722	0.0000000E+000	0.0000000E+000	0.0000000E+000	-10.7278	0.0000000E+000	0.0000000E+000	0.0000000E+000	10.7278	5.27831	79.2722	7.79755e-07
25219	14.9958	3.5132	15.4019	-13.1854	134.895	0.453362	0.00454096	1.79635	0.093465	3	38	0.00512705	0.000332885	0	0.000299613	0.0632156	0.01481	0.0649272	13.1854	93.4651	398.948	409.751	-76.8146	0.0000000E+000	0.0000000E+000	0.0000000E+000	76.8146	0.0000000E+000	0.0000000E+000	0.0000000E+000	-76.8146	0.0000000E+000	0.0000000E+000	0.0000000E+000	-13.1854	0.0000000E+000	0.0000000E+000	0.0000000E+000	13.1854	4.26842	76.8146	6.62607e-07
15912.6	15.796	4.67882	16.4744	-16.4994	135.997	0.453363	0.00446089	2.13768	0.172423	3	38	0.00515101	0.000312668	0	0.000299995	0.0582008	0.0172392	0.0607003	16.4994	172.423	582.113	607.112	-73.5006	0.0000000E+000	0.0000000E+000	0.0000000E+000	73.5006	0.0000000E+000	0.0000000E+000	0.0000000E+000	-73.5006	0.0000000E+000	0.0000000E+000	0.0000000E+000	-16.4994	0.0000000E+000	0.0000000E+000	0.0000000E+000	16.4994	3.37607	73.5006	1.45497e-08
10039.3	16.8534	6.23433	17.9695	-20.3002	136.966	0.453378	0.00489659	2.54287	0.306077	3	38	0.00536112	0.000298345	0	0.00030153	0.0521932	0.0193071	0.0556498	20.3002	306.077	827.425	882.222	-69.6998	0.0000000E+000	0.0000000E+000	0.0000000E+000	69.6998	0.0000000E+000	0.0000000E+000	0.0000000E+000	-69.6998	0.0000000E+000	0.0000000E+000	0.0000000E+000	-20.3002	0.0000000E+000	0.0000000E+000	0.0000000E+000	20.3002	2.70332	69.6998	7.63515e-07
6332.63	18.2928	8.27117	20.0758	-24.3303	138.168	0.453271	0.00419836	3.03857	0.515771	3	38	0.00533286	0.000265636	0	0.000302772	0.0453872	0.020522	0.0498112	24.3303	515.771	1140.7	1251.88	-65.6697	0.0000000E+000	0.0000000E+000	0.0000000E+000	65.6697	0.0000000E+000	0.0000000E+000	0.0000000E+000	-65.6697	0.0000000E+000	0.0000000E+000	0.0000000E+000	-24.3303	0.0000000E+000	0.0000000E+000	0.0000000E+000	24.3303	2.21163	65.6697	4.78269e-07
3993.72	20.4241	10.9361	23.1677	-28.1669	139.534	0.453244	0.00435662	3.64401	0.811972	3	38	0.00545601	0.000235501	0	0.000304858	0.038052	0.020375	0.0431636	28.1669	811.972	1516.42	1720.13	-61.8331	0.0000000E+000	0.0000000E+000	0.0000000E+000	61.8331	0.0000000E+000	0.0000000E+000	0.0000000E+000	-61.8331	0.0000000E+000	0.0000000E+000	0.0000000E+000	-28.1669	0.0000000E+000	0.0000000E+000	0.0000000E+000	28.1669	1.86758	61.8331	1.01658e-06
2519.19	23.6328	14.0579	27.4979	-30.7462	140.901	0.453235	0.00474949	4.49406	1.17458	3	38	0.0054771	0.000199182	0	0.000306275	0.0312548	0.0185918	0.0363664	30.7462	1174.58	1974.58	2297.52	-59.2538	0.0000000E+000	0.0000000E+000	0.0000000E+000	59.2538	0.0000000E+000	0.0000000E+000	0.0000000E+000	-59.2538	0.0000000E+000	0.0000000E+000	0.0000000E+000	-30.7462	0.0000000E+000	0.0000000E+000	0.0000000E+000	30.7462	1.6811	59.2538	6.85892e-07
1589.49	27.5731	18.0212	32.94	-33.1677	142.268	0.453252	0.00455771	5.55621	1.66303	3	38	0.00541984	0.000164537	0	0.000308208	0.0254121	0.0166088	0.0303583	33.1677	1663.03	2544.5	3039.76	-56.8323	0.0000000E+000	0.0000000E+000	0.0000000E+000	56.8323	0.0000000E+000	0.0000000E+000	0.0000000E+000	-56.8323	0.0000000E+000	0.0000000E+000	0.0000000E+000	-33.1677	0.0000000E+000	0.0000000E+000	0.0000000E+000	33.1677	1.53004	56.8323	8.87152e-07
1002.75	33.3641	22.1506	40.0476	-33.5804	144.112	0.453232	0.00817587	7.16542	2.19209	3	39	0.00499335	0.000124685	0	0.000311802	0.020803	0.0138112	0.0249703	33.5804	2192.09	3301.82	3963.24	-56.4196	0.0000000E+000	0.0000000E+000	0.0000000E+000	56.4196	0.0000000E+000	0.0000000E+000	0.0000000E+000	-56.4196	0.0000000E+000	0.0000000E+000	0.0000000E+000	-33.5804	0.0000000E+000	0.0000000E+000	0.0000000E+000	33.5804	1.50624	56.4196	1.43526e-06
632.773	40.5117	26.6784	48.507	-33.3663	145.48	0.453251	0.00834808	9.42786	2.85182	3	39	0.0048868	0.000100744	0	0.000314856	0.0172175	0.0113383	0.0206156	33.3663	2851.82	4330.55	5185.23	-56.6337	0.0000000E+000	0.0000000E+000	0.0000000E+000	56.6337	0.0000000E+000	0.0000000E+000	0.0000000E+000	-56.6337	0.0000000E+000	0.0000000E+000	0.0000000E+000	-33.3663	0.0000000E+000	0.0000000E+000	0.0000000E+000	33.3663	1.51852	56.6337	1.48661e-06
399.106	49.516	30.7318	58.2776	-31.8255	146.853	0.453265	0.00829254	12.9761	3.60842	3	39	0.00483306	8.29317e-05	0	0.000318013	0.0145795	0.00904867	0.0171593	31.8255	3608.42	5813.99	6842.75	-58.1745	0.0000000E+000	0.0000000E+000	0.0000000E+000	58.1745	0.0000000E+000	0.0000000E+000	0.0000000E+000	-58.1745	0.0000000E+000	0.0000000E+000	0.0000000E+000	-31.8255	0.0000000E+000	0.0000000E+000	0.0000000E+000	31.8255	1.61123	58.1745	1.5957e-06
251.853	59.0305	35.074	68.6643	-30.7174	148.212	0.45327	0.00825862	18.0172	4.70106	3	39	0.00479862	6.98852e-05	0	0.000321219	0.0125203	0.00743915	0.0145636	30.7174	4701.06	7912	9203.24	-59.2826	0.0000000E+000	0.0000000E+000	0.0000000E+000	59.2826	0.0000000E+000	0.0000000E+000	0.0000000E+000	-59.2826	0.0000000E+000	0.0000000E+000	0.0000000E+000	-30.7174	0.0000000E+000	0.0000000E+000	0.0000000E+000	30.7174	1.68303	59.2826	1.61504e-06
158.831	69.4806	38.953	79.6548	-29.2764	149.584	0.453272	0.00836467	25.7244	6.15181	3	39	0.00477912	5.99979e-05	0	0.000324387	0.0109506	0.00613928	0.0125542	29.2764	6151.81	10973	12579.8	-60.7236	0.0000000E+000	0.0000000E+000	0.0000000E+000	60.7236	0.0000000E+000	0.0000000E+000	0.0000000E+000	-60.7236	0.0000000E+000	0.0000000E+000	0.0000000E+000	-29.2764	0.0000000E+000	0.0000000E+000	0.0000000E+000	29.2764	1.7837	60.7236	1.6194e-06
100.224	81.2158	43.0383	91.9146	-27.9203	150.943	0.453271	0.00831696	36.897	8.0897	3	39	0.00477731	5.19755e-05	0	0.00032744	0.00961327	0.00509432	0.0108797	27.9203	8089.7	15265.7	17276.7	-62.0797	0.0000000E+000	0.0000000E+000	0.0000000E+000	62.0797	0.0000000E+000	0.0000000E+000	0.0000000E+000	-62.0797	0.0000000E+000	0.0000000E+000	0.0000000E+000	-27.9203	0.0000000E+000	0.0000000E+000	0.0000000E+000	27.9203	1.88706	62.0797	1.53917e-06
63.2394	91.7154	48.8727	103.924	-28.0519	152.33	0.453267	0.00826626	51.4952	11.3884	3	39	0.00474291	4.56381e-05	0	0.000330523	0.00849197	0.00452514	0.00962239	28.0519	11388.4	21371.8	24216.7	-61.9481	0.0000000E+000	0.0000000E+000	0.0000000E+000	61.9481	0.0000000E+000	0.0000000E+000	0.0000000E+000	-61.9481	0.0000000E+000	0.0000000E+000	0.0000000E+000	-28.0519	0.0000000E+000	0.0000000E+000	0.0000000E+000	28.0519	1.87662	61.9481	1.57525e-06
39.8851	105.072	56.736	119.411	-28.3679	153.695	0.45328	0.00851396	70.3317	15.8773	3	39	0.00475532	3.98231e-05	0	0.000333697	0.00736878	0.00397894	0.00837442	28.3679	15877.3	29403.9	33416.7	-61.6321	0.0000000E+000	0.0000000E+000	0.0000000E+000	61.6321	0.0000000E+000	0.0000000E+000	0.0000000E+000	-61.6321	0.0000000E+000	0.0000000E+000	0.0000000E+000	-28.3679	0.0000000E+000	0.0000000E+000	0.0000000E+000	28.3679	1.85194	61.6321	1.57122e-06
25.1691	120.633	66.5469	137.771	-28.8832	155.027	0.453268	0.00847612	95.0221	22.17	3	39	0.00476405	3.45795e-05	0	0.000336721	0.00635553	0.00350601	0.00725843	28.8832	22170	40188.7	45898.1	-61.1168	0.0000000E+000	0.0000000E+000	0.0000000E+000	61.1168	0.0000000E+000	0.0000000E+000	0.0000000E+000	-61.1168	0.0000000E+000	0.0000000E+000	0.0000000E+000	-28.8832	0.0000000E+000	0.0000000E+000	0.0000000E+000	28.8832	1.81275	61.1168	1.56127e-06
15.879	136.621	79.6928	158.166	-30.2555	156.615	0.453292	0.00858742	125.77	31.9294	3	40	0.00475072	3.00364e-05	0	0.000340304	0.00546129	0.00318563	0.00632249	30.2555	31929.4	54738.2	63370	-59.7445	0.0000000E+000	0.0000000E+000	0.0000000E+000	59.7445	0.0000000E+000	0.0000000E+000	0.0000000E+000	-59.7445	0.0000000E+000	0.0000000E+000	0.0000000E+000	-30.2555	0.0000000E+000	0.0000000E+000	0.0000000E+000	30.2555	1.71435	59.7445	1.57591e-06
10.016	159.111	97.753	186.741	-31.5653	158.095	0.453286	0.00860189	162.553	44.5427	3	40	0.00477992	2.55966e-05	0	0.000343676	0.00456272	0.00280319	0.00535502	31.5653	44542.7	72501.6	85091.4	-58.4347	0.0000000E+000	0.0000000E+000	0.0000000E+000	58.4347	0.0000000E+000	0.0000000E+000	0.0000000E+000	-58.4347	0.0000000E+000	0.0000000E+000	0.0000000E+000	-31.5653	0.0000000E+000	0.0000000E+000	0.0000000E+000	31.5653	1.62769	58.4347	1.48378e-06
6.30621	196.069	123.432	231.687	-32.1919	189.312	0.453205	0.00814579	204.466	58.0335	3	40	0.00500786	2.16148e-05	0	0.000413039	0.00365265	0.00229947	0.00431618	32.1919	58033.5	92184.7	108931	-57.8081	0.0000000E+000	0.0000000E+000	0.0000000E+000	57.8081	0.0000000E+000	0.0000000E+000	0.0000000E+000	-57.8081	0.0000000E+000	0.0000000E+000	0.0000000E+000	-32.1919	0.0000000E+000	0.0000000E+000	0.0000000E+000	32.1919	1.58847	57.8081	0.000000000000000E+000
4.00395	222.516	159.742	273.918	-35.6742	189.313	0.453205	0.00814579	248.836	84.6276	3	40	0.00501482	1.83078e-05	0	0.000413039	0.00296566	0.00212902	0.00365073	35.6742	84627.6	117884	145115	-54.3258	0.0000000E+000	0.0000000E+000	0.0000000E+000	54.3258	0.0000000E+000	0.0000000E+000	0.0000000E+000	-54.3258	0.0000000E+000	0.0000000E+000	0.0000000E+000	-35.6742	0.0000000E+000	0.0000000E+000	0.0000000E+000	35.6742	1.39297	54.3258	0.000000000000000E+000
2.50247	266.062	197.849	331.562	-36.6353	189.315	0.453205	0.00814579	321.453	114.461	3	40	0.00500391	1.5092e-05	0	0.000413039	0.00242022	0.00179972	0.00301603	36.6353	114461	153924	191817	-53.3647	0.0000000E+000	0.0000000E+000	0.0000000E+000	53.3647	0.0000000E+000	0.0000000E+000	0.0000000E+000	-53.3647	0.0000000E+000	0.0000000E+000	0.0000000E+000	-36.6353	0.0000000E+000	0.0000000E+000	0.0000000E+000	36.6353	1.34477	53.3647	0.000000000000000E+000
1.60158	321.426	251.612	408.195	-38.0538	189.316	0.453205	0.00814579	394.949	150.061	3	40	0.0050075	1.22674e-05	0	0.000413039	0.00192906	0.00151007	0.00244981	38.0538	150061	191698	243447	-51.9462	0.0000000E+000	0.0000000E+000	0.0000000E+000	51.9462	0.0000000E+000	0.0000000E+000	0.0000000E+000	-51.9462	0.0000000E+000	0.0000000E+000	0.0000000E+000	-38.0538	0.0000000E+000	0.0000000E+000	0.0000000E+000	38.0538	1.27747	51.9462	0.000000000000000E+000
1.00099	381.831	289.326	479.066	-37.1524	189.317	0.453205	0.00814579	549.547	200.442	3	40	0.00500844	1.04546e-05	0	0.000413039	0.00166372	0.00126066	0.0020874	37.1524	200442	264529	331892	-52.8476	0.0000000E+000	0.0000000E+000	0.0000000E+000	52.8476	0.0000000E+000	0.0000000E+000	0.0000000E+000	-52.8476	0.0000000E+000	0.0000000E+000	0.0000000E+000	-37.1524	0.0000000E+000	0.0000000E+000	0.0000000E+000	37.1524	1.31973	52.8476	0.000000000000000E+000
0.600592	465.523	400.749	614.257	-40.7237	189.319	0.453205	0.00814579	661.254	281.458	3	40	0.00500827	8.15338e-06	0	0.000413039	0.00123379	0.00106212	0.00162798	40.7237	281458	326950	431410	-49.2763	0.0000000E+000	0.0000000E+000	0.0000000E+000	49.2763	0.0000000E+000	0.0000000E+000	0.0000000E+000	-49.2763	0.0000000E+000	0.0000000E+000	0.0000000E+000	-40.7237	0.0000000E+000	0.0000000E+000	0.0000000E+000	40.7237	1.16163	49.2762	0.000000000000000E+000
0.400395	532.52	471.166	711.037	-41.5019	189.32	0.453205	0.00814579	843.642	370.442	3	40	0.00500351	7.03692e-06	0	0.000413039	0.0010533	0.000931941	0.0014064	41.5019	370442	418680	559036	-48.4981	0.0000000E+000	0.0000000E+000	0.0000000E+000	48.4981	0.0000000E+000	0.0000000E+000	0.0000000E+000	-48.4981	0.0000000E+000	0.0000000E+000	0.0000000E+000	-41.5019	0.0000000E+000	0.0000000E+000	0.0000000E+000	41.5019	1.13022	48.4981	0.000000000000000E+000
0.200197	731.121	664.533	987.999	-42.2684	189.321	0.453205	0.00814579	1196.31	541.21	3	40	0.0050023	5.06306e-06	0	0.000413041	0.00074899	0.000680775	0.00101215	42.2684	541210	595440	804647	-47.7316	0.0000000E+000	0.0000000E+000	0.0000000E+000	47.7316	0.0000000E+000	0.0000000E+000	0.0000000E+000	-47.7316	0.0000000E+000	0.0000000E+000	0.0000000E+000	-42.2684	0.0000000E+000	0.0000000E+000	0.0000000E+000	42.2684	1.1002	47.7316	1.82073e-09
0.100099	972.362	935.859	1349.56	-43.9041	189.322	0.453205	0.00814579	1698.95	816.988	3	40	0.00500371	3.70765e-06	0	0.000413041	0.000533878	0.000513835	0.000740981	43.9041	816988	848855	1.17814e+06	-46.0959	0.0000000E+000	0.0000000E+000	0.0000000E+000	46.0959	0.0000000E+000	0.0000000E+000	0.0000000E+000	-46.0959	0.0000000E+000	0.0000000E+000	0.0000000E+000	-43.9041	0.0000000E+000	0.0000000E+000	0.0000000E+000	43.9041	1.03901	46.0959	0.000000000000000E+000