File: Python/Experiments/RDE/Dicarboxylferrocene/Data/240327-CVEIS-5mM_DiCaFerrocene-1M_NaCl-2000RPM-Ag_AgCl_BLF8-Au_RDE_02_PEIS_C15.mpt
EC-Lab ASCII FILE
Nb header lines : 66

Potentio Electrochemical Impedance Spectroscopy

Run on channel : 15 (SN 19485)
User :
Electrode connection : standard
Potential control : Ewe
Ewe ctrl range : min = -1.00 V, max = 1.00 V
Ewe,I filtering : <None>
Safety Limits :
	Do not start on E overload
Channel : Floating
Acquisition started on : 03/27/2024 12:54:48.643
Loaded Setting File :  C:\Data\mathias\GoldElectrode\240322-CVEIS-PostActivation-5mM_Fe2Fe3-1M_H2SO4-2000RPM-Ag_AgCl_BLF8-Au_RDE.mps
Saved on :
	File : 240327-CVEIS-5mM_DiCaFerrocene-1M_NaCl-2000RPM-Ag_AgCl_BLF8-Au_RDE_02_PEIS_C15.mpr
	Directory : C:\Data\mathias\GoldElectrode\
	Host : 192.168.0.1
Device : VMP-300 (SN 0826)
Address : USB
EC-Lab for windows v11.52 (software)
Internet server v11.52 (firmware)
Command interpretor v11.52 (firmware)
Electrode material :
Initial state :
Electrolyte :
Comments :
Cable : special
Electrode surface area : 0.001 cm²
Characteristic mass : 0.001 g
Equivalent Weight : 0.000 g/eq.
Density : 0.000 g/cm3
Volume (V) : 0.001 cm³
Record EIS quality indicators
Cycle Definition : Charge/Discharge alternance
Mode                Single sine
E (V)               0.0000
vs.                 Eoc
tE (h:m:s)          0:00:0.0000
record              0
dI                  0.000
unit dI             mA
dt (s)              0.000
fi                  400.000
unit fi             kHz
ff                  100.000
unit ff             mHz
Nd                  10
Points              per decade
spacing             Logarithmic
Va (mV)             5.0
pw                  0.10
Na                  3
corr                0
E range min (V)     -1.000
E range max (V)     1.000
I Range             Auto
Bandwidth           8
nc cycles           2
goto Ns'            0
nr cycles           0
inc. cycle          1

freq/Hz	Re(Z)/Ohm	-Im(Z)/Ohm	|Z|/Ohm	Phase(Z)/deg	time/s	<Ewe>/V	<I>/mA	Cs/µF	Cp/µF	cycle number	I Range	|Ewe|/V	|I|/A	Ns	(Q-Qo)/mA.h	THD Ewe/%	NSD Ewe/%	NSR Ewe/%	|Ewe h2|/V	|Ewe h3|/V	|Ewe h4|/V	|Ewe h5|/V	|Ewe h6|/V	|Ewe h7|/V	THD I/%	NSD I/%	NSR I/%	|I h2|/A	|I h3|/A	|I h4|/A	|I h5|/A	|I h6|/A	|I h7|/A	Re(Y)/Ohm-1	Im(Y)/Ohm-1	|Y|/Ohm-1	Phase(Y)/deg	Re(C)/nF	Im(C)/nF	|C|/nF	Phase(C)/deg	Re(M)	Im(M)	|M|	Phase(M)/deg	Re(Permittivity)	Im(Permittivity)	|Permittivity|	Phase(Permittivity)/deg	Re(Resistivity)/Ohm.cm	Im(Resistivity)/Ohm.cm	|Resistivity|/Ohm.cm	Phase(Resistivity)/deg	Re(Conductivity)/mS/cm	Im(Conductivity)/mS/cm	|Conductivity|/mS/cm	Phase(Conductivity)/deg	Tan(Delta)	Loss Angle(Delta)/deg	dq/mA.h
399996	11.059	2.8366	11.417	-14.3861	143.658	0.033356	-0.00590641	0.14027	0.00865888	1	38	0.00495313	0.000433839	0	-2.72082e-06	-1	-1	-1	0	0	0	0	0	0	-1	-1	-1	0	0	0	0	0	0	0.0848425	0.0217619	0.087589	14.3861	8.65888	33.7581	34.8509	-75.6139	0.0000000E+000	0.0000000E+000	0.0000000E+000	75.6139	0.0000000E+000	0.0000000E+000	0.0000000E+000	-75.6139	0.0000000E+000	0.0000000E+000	0.0000000E+000	-14.3861	0.0000000E+000	0.0000000E+000	0.0000000E+000	14.3861	3.89866	75.6139	-2.72082e-06
200434	11.2163	1.85855	11.3692	-9.40849	147.1	0.0333678	0.00145574	0.427243	0.0114173	1	38	0.00517155	0.000454873	0	-2.7933e-07	-1	-1	-1	0	0	0	0	0	0	-1	-1	-1	0	0	0	0	0	0	0.0867737	0.0143785	0.0879569	9.40849	11.4173	68.9027	69.8422	-80.5915	0.0000000E+000	0.0000000E+000	0.0000000E+000	80.5915	0.0000000E+000	0.0000000E+000	0.0000000E+000	-80.5915	0.0000000E+000	0.0000000E+000	0.0000000E+000	-9.40849	0.0000000E+000	0.0000000E+000	0.0000000E+000	9.40849	6.03496	80.5915	1.68586e-06
100431	11.4392	1.71571	11.5671	-8.52996	150.541	0.0333368	0.000459603	0.923657	0.0203212	1	38	0.00519642	0.000449241	0	1.04714e-06	1.3203	0.942	26.2176	2.70434e-05	2.55624e-05	3.39151e-05	1.72961e-05	1.85474e-05	2.6415e-05	0.384553	0.197915	6.7474	1.04487e-06	4.37494e-07	4.32596e-07	5.62821e-07	5.46747e-07	8.06625e-07	0.0854958	0.0128231	0.0864521	8.52996	20.3212	135.487	137.003	-81.47	0.0000000E+000	0.0000000E+000	0.0000000E+000	81.47	0.0000000E+000	0.0000000E+000	0.0000000E+000	-81.47	0.0000000E+000	0.0000000E+000	0.0000000E+000	-8.52996	0.0000000E+000	0.0000000E+000	0.0000000E+000	8.52996	6.66731	81.47	-1.37242e-08
50326.6	11.7344	2.19169	11.9373	-10.5795	153.982	0.03335	0.000575042	1.44292	0.0486392	1	38	0.00514324	0.000430853	0	1.37484e-06	1.19634	0.474358	26.0114	1.59142e-05	1.60083e-05	3.28811e-05	1.8656e-05	3.49945e-05	2.05011e-05	0.41673	0.176629	6.94649	5.83488e-07	8.36096e-07	8.87474e-07	2.82213e-07	7.01727e-07	6.45471e-07	0.0823467	0.0153803	0.0837707	10.5795	48.6392	260.417	264.92	-79.4205	0.0000000E+000	0.0000000E+000	0.0000000E+000	79.4205	0.0000000E+000	0.0000000E+000	0.0000000E+000	-79.4205	0.0000000E+000	0.0000000E+000	0.0000000E+000	-10.5795	0.0000000E+000	0.0000000E+000	0.0000000E+000	10.5795	5.35405	79.4205	3.82872e-07
25219	12.2434	3.40876	12.7091	-15.5581	157.424	0.0333631	0.000910188	1.85138	0.133187	1	38	0.00521366	0.000410232	0	1.79457e-06	1.53114	1.05685	26.4015	2.10987e-05	1.87094e-05	2.71603e-05	4.92297e-05	2.55527e-05	3.3923e-05	0.464818	0.31255	7.328	6.33891e-07	6.73161e-07	2.71352e-07	1.33401e-06	3.90963e-07	8.0568e-07	0.075801	0.0211042	0.078684	15.5581	133.187	478.374	496.569	-74.4419	0.0000000E+000	0.0000000E+000	0.0000000E+000	74.4419	0.0000000E+000	0.0000000E+000	0.0000000E+000	-74.4419	0.0000000E+000	0.0000000E+000	0.0000000E+000	-15.5581	0.0000000E+000	0.0000000E+000	0.0000000E+000	15.5581	3.59174	74.4419	2.68177e-07
12637.3	13.0864	5.5727	14.2235	-23.0663	160.865	0.0333636	0.001061	2.25995	0.346911	1	38	0.00510327	0.000358792	0	2.38663e-06	1.48316	0.920859	27.387	2.50149e-05	2.43587e-05	2.65285e-05	3.27714e-05	2.97054e-05	2.60062e-05	0.431285	0.209892	8.42772	6.23485e-07	4.77947e-07	6.80435e-07	4.60426e-07	4.95179e-07	7.99823e-07	0.0646854	0.0275457	0.0703063	23.0663	346.911	814.651	885.44	-66.9337	0.0000000E+000	0.0000000E+000	0.0000000E+000	66.9337	0.0000000E+000	0.0000000E+000	0.0000000E+000	-66.9337	0.0000000E+000	0.0000000E+000	0.0000000E+000	-23.0663	0.0000000E+000	0.0000000E+000	0.0000000E+000	23.0663	2.3483	66.9337	1.29577e-07
6332.63	14.5622	9.37997	17.3217	-32.7869	164.24	0.0332192	0.000362775	2.67938	0.785701	1	38	0.00533658	0.000308087	0	3.21163e-06	1.52524	0.770151	27.7566	3.79252e-05	1.54892e-05	2.76655e-05	2.34691e-05	2.97108e-05	4.34097e-05	0.524379	0.218437	9.82987	3.1166e-07	8.30436e-07	7.81878e-07	5.4295e-07	6.43347e-07	4.61993e-07	0.048534	0.0312623	0.0577311	32.7869	785.701	1219.78	1450.93	-57.2131	0.0000000E+000	0.0000000E+000	0.0000000E+000	57.2131	0.0000000E+000	0.0000000E+000	0.0000000E+000	-57.2131	0.0000000E+000	0.0000000E+000	0.0000000E+000	-32.7869	0.0000000E+000	0.0000000E+000	0.0000000E+000	32.7869	1.55248	57.2131	3.42337e-07
3171.96	17.0816	16.1673	23.5194	-43.4249	167.573	0.0331699	0.000455869	3.10352	1.46648	1	38	0.00542596	0.000230701	0	4.07269e-06	1.6353	0.657815	25.1619	3.61075e-05	2.81044e-05	6.31478e-05	2.78058e-05	1.52508e-05	1.66458e-05	0.849337	0.34987	13.2993	6.68867e-07	4.57094e-07	9.1754e-07	6.93285e-07	1.05433e-06	6.65158e-07	0.0308798	0.029227	0.042518	43.4249	1466.48	1549.41	2133.37	-46.5751	0.0000000E+000	0.0000000E+000	0.0000000E+000	46.5751	0.0000000E+000	0.0000000E+000	0.0000000E+000	-46.5751	0.0000000E+000	0.0000000E+000	0.0000000E+000	-43.4249	0.0000000E+000	0.0000000E+000	0.0000000E+000	43.4249	1.05655	46.5751	1.27657e-07
1589.49	21.4316	27.9231	35.1996	-52.493	171.366	0.0332483	-0.000155654	3.5859	2.25657	1	39	0.00511688	0.000145367	0	4.61148e-06	1.12518	0.641326	23.2802	2.77535e-05	1.80158e-05	1.38351e-05	1.6496e-05	2.60498e-05	1.78084e-05	0.467721	0.17277	8.03332	3.52944e-07	3.12587e-07	2.56312e-07	1.15278e-07	2.78913e-07	1.45065e-07	0.0172973	0.0225366	0.0284094	52.493	2256.57	1731.97	2844.62	-37.507	0.0000000E+000	0.0000000E+000	0.0000000E+000	37.507	0.0000000E+000	0.0000000E+000	0.0000000E+000	-37.507	0.0000000E+000	0.0000000E+000	0.0000000E+000	-52.493	0.0000000E+000	0.0000000E+000	0.0000000E+000	52.493	0.767521	37.507	1.4894e-07
796.787	28.4627	48.3939	56.1435	-59.5382	174.685	0.0332143	-6.82436e-05	4.1275	3.06668	1	39	0.00467849	8.33309e-05	0	4.52939e-06	1.48958	0.361388	26.018	1.29542e-05	2.04121e-05	2.02112e-05	4.05546e-05	3.05839e-05	2.17509e-05	0.887589	0.285951	13.8827	1.5492e-07	1.88736e-07	2.1418e-07	5.16109e-07	2.31854e-07	2.553e-07	0.00902979	0.0153529	0.0178115	59.5382	3066.68	1803.66	3557.77	-30.4618	0.0000000E+000	0.0000000E+000	0.0000000E+000	30.4618	0.0000000E+000	0.0000000E+000	0.0000000E+000	-30.4618	0.0000000E+000	0.0000000E+000	0.0000000E+000	-59.5382	0.0000000E+000	0.0000000E+000	0.0000000E+000	59.5382	0.588148	30.4618	4.81401e-08
399.106	40.4569	83.1193	92.4423	-64.0463	178.009	0.0332645	0.000105088	4.79767	3.87875	1	39	0.00451651	4.88576e-05	0	4.69006e-06	2.05453	1.29052	26.9646	4.41031e-05	3.72855e-05	2.96703e-05	3.14161e-05	1.79865e-05	3.16438e-05	1.78844	0.600549	23.7321	3.88957e-07	2.96902e-07	2.13571e-07	4.36714e-07	3.39023e-07	2.76671e-07	0.00473426	0.00972658	0.0108176	64.0463	3878.75	1887.92	4313.81	-25.9537	0.0000000E+000	0.0000000E+000	0.0000000E+000	25.9537	0.0000000E+000	0.0000000E+000	0.0000000E+000	-25.9537	0.0000000E+000	0.0000000E+000	0.0000000E+000	-64.0463	0.0000000E+000	0.0000000E+000	0.0000000E+000	64.0463	0.486734	25.9537	8.38063e-08
199.936	61.4686	145.205	157.68	-67.056	181.543	0.0332563	6.12035e-06	5.48208	4.64898	1	39	0.00494116	3.13366e-05	0	4.92627e-06	1.16648	0.492697	24.9094	1.63178e-05	3.2123e-05	2.82426e-05	1.94066e-05	2.13189e-05	1.72615e-05	1.82534	0.850363	37.7018	1.39546e-07	1.6515e-07	3.62871e-07	2.37919e-07	1.46824e-07	2.09027e-07	0.00247229	0.00584022	0.00634196	67.056	4648.98	1968.01	5048.38	-22.944	0.0000000E+000	0.0000000E+000	0.0000000E+000	22.944	0.0000000E+000	0.0000000E+000	0.0000000E+000	-22.944	0.0000000E+000	0.0000000E+000	0.0000000E+000	-67.056	0.0000000E+000	0.0000000E+000	0.0000000E+000	67.056	0.423321	22.944	8.96107e-08
100.224	96.4978	253.599	271.338	-69.1675	185.109	0.0332298	1.02236e-05	6.2618	5.46982	1	40	0.00498382	1.83676e-05	0	4.99885e-06	1.60392	0.872681	33.279	1.9141e-05	2.83693e-05	3.64759e-05	3.04282e-05	2.83704e-05	3.77933e-05	0.636088	0.340852	10.9918	4.15505e-08	3.83988e-08	5.06703e-08	4.16735e-08	2.84008e-08	6.62355e-08	0.00131068	0.00344451	0.00368545	69.1675	5469.82	2081.34	5852.43	-20.8325	0.0000000E+000	0.0000000E+000	0.0000000E+000	20.8325	0.0000000E+000	0.0000000E+000	0.0000000E+000	-20.8325	0.0000000E+000	0.0000000E+000	0.0000000E+000	-69.1675	0.0000000E+000	0.0000000E+000	0.0000000E+000	69.1675	0.380514	20.8325	1.20499e-08
50.2089	156.911	446.913	473.659	-70.6538	188.338	0.0332358	-1.01544e-05	7.09278	6.3144	1	40	0.00493709	1.04233e-05	0	4.97891e-06	1.74314	1.06333	33.308	4.93111e-05	2.83732e-05	2.88581e-05	3.37945e-05	2.58166e-05	2.90332e-05	1.1939	0.631198	19.375	8.10118e-08	2.9358e-08	3.22618e-08	5.36633e-08	3.49097e-08	3.83373e-08	0.000699395	0.00199201	0.00211122	70.6538	6314.4	2216.98	6692.28	-19.3462	0.0000000E+000	0.0000000E+000	0.0000000E+000	19.3462	0.0000000E+000	0.0000000E+000	0.0000000E+000	-19.3462	0.0000000E+000	0.0000000E+000	0.0000000E+000	-70.6538	0.0000000E+000	0.0000000E+000	0.0000000E+000	70.6538	0.3511	19.3462	3.51007e-09
25.1691	248.005	786.699	824.865	-72.5027	191.514	0.0332749	-3.77968e-05	8.03792	7.31131	1	40	0.00492424	5.96975e-06	0	4.91536e-06	1.54142	0.821119	33.0647	2.53692e-05	2.87289e-05	3.35442e-05	3.5004e-05	2.84293e-05	1.75396e-05	1.72491	1.1045	33.2104	5.02695e-08	2.19513e-08	3.87964e-08	5.05665e-08	3.73721e-08	2.77906e-08	0.000364498	0.00115623	0.00121232	72.5027	7311.31	2304.87	7666.01	-17.4973	0.0000000E+000	0.0000000E+000	0.0000000E+000	17.4973	0.0000000E+000	0.0000000E+000	0.0000000E+000	-17.4973	0.0000000E+000	0.0000000E+000	0.0000000E+000	-72.5027	0.0000000E+000	0.0000000E+000	0.0000000E+000	72.5027	0.315248	17.4973	-2.58213e-08
12.6144	418.053	1391.6	1453.04	-73.2792	195.081	0.0332379	-1.27651e-05	9.06651	8.31602	1	41	0.00491274	3.38101e-06	0	4.92894e-06	1.53593	0.824022	27.1367	3.987e-05	3.43691e-05	2.57125e-05	3.23983e-05	2.6003e-05	1.19744e-05	0.815711	0.232196	7.56674	1.08763e-08	8.44968e-09	1.84792e-08	1.15598e-08	5.62981e-09	3.75918e-09	0.000198005	0.000659113	0.000688213	73.2792	8316.02	2498.22	8683.16	-16.7208	0.0000000E+000	0.0000000E+000	0.0000000E+000	16.7208	0.0000000E+000	0.0000000E+000	0.0000000E+000	-16.7208	0.0000000E+000	0.0000000E+000	0.0000000E+000	-73.2792	0.0000000E+000	0.0000000E+000	0.0000000E+000	73.2792	0.300411	16.7209	3.14467e-08
6.31569	699.988	2490.41	2586.91	-74.3007	198.731	0.0332639	-2.99697e-05	10.1188	9.37792	1	41	0.00490267	1.89518e-06	0	4.89849e-06	1.37694	0.588836	26.8206	2.29086e-05	2.40552e-05	1.0475e-05	2.82472e-05	2.17424e-05	3.54394e-05	0.776236	0.265695	13.4102	6.60118e-09	6.11987e-09	1.61082e-09	5.71418e-09	4.47729e-09	5.76015e-09	0.000104599	0.000372141	0.000386561	74.3007	9377.92	2635.89	9741.32	-15.6993	0.0000000E+000	0.0000000E+000	0.0000000E+000	15.6993	0.0000000E+000	0.0000000E+000	0.0000000E+000	-15.6993	0.0000000E+000	0.0000000E+000	0.0000000E+000	-74.3007	0.0000000E+000	0.0000000E+000	0.0000000E+000	74.3007	0.281074	15.6993	-5.13004e-09
3.16616	1198.75	4499.65	4656.59	-75.0823	204.574	0.0332616	-2.52097e-05	11.1714	10.4311	1	41	0.00490374	1.05307e-06	0	4.85753e-06	0.958898	0.445697	16.4946	9.64824e-06	2.45707e-05	1.68256e-05	2.18588e-05	1.37098e-05	1.65712e-05	0.965365	0.391707	16.5422	5.10057e-09	2.67392e-09	3.36585e-09	5.44873e-09	3.67967e-09	2.26318e-09	5.52831e-05	0.000207511	0.000214749	75.0823	10431.1	2778.94	10794.9	-14.9177	0.0000000E+000	0.0000000E+000	0.0000000E+000	14.9177	0.0000000E+000	0.0000000E+000	0.0000000E+000	-14.9177	0.0000000E+000	0.0000000E+000	0.0000000E+000	-75.0823	0.0000000E+000	0.0000000E+000	0.0000000E+000	75.0823	0.26641	14.9177	5.16262e-09
1.5871	2107.99	8230.58	8496.24	-75.6344	216.057	0.0332664	-2.67456e-05	12.1839	11.4339	1	42	0.00491373	5.78342e-07	0	4.75338e-06	0.581317	0.241317	11.6535	1.44921e-05	1.11426e-05	1.12276e-05	1.15132e-05	4.20447e-06	1.21071e-05	0.427257	0.155542	8.33406	1.39718e-09	1.39309e-09	5.64416e-10	1.14183e-09	4.57844e-10	4.31247e-10	2.92021e-05	0.000114019	0.000117699	75.6344	11433.9	2928.4	11802.9	-14.3656	0.0000000E+000	0.0000000E+000	0.0000000E+000	14.3656	0.0000000E+000	0.0000000E+000	0.0000000E+000	-14.3656	0.0000000E+000	0.0000000E+000	0.0000000E+000	-75.6344	0.0000000E+000	0.0000000E+000	0.0000000E+000	75.6344	0.256116	14.3656	-5.76021e-08
0.79456	3795.84	15137.1	15605.8	-75.9226	235.733	0.0332666	-2.49406e-05	13.2328	12.4499	1	42	0.00490175	3.14099e-07	0	4.63929e-06	0.355102	0.127232	7.37857	8.02061e-06	4.46372e-06	6.32815e-06	6.96873e-06	6.02045e-06	7.73246e-06	0.50558	0.127783	15.1778	7.89984e-10	1.00482e-09	3.20233e-10	7.26703e-10	2.99482e-10	2.73779e-10	1.55861e-05	6.21545e-05	6.40789e-05	75.9226	12449.9	3121.99	12835.4	-14.0774	0.0000000E+000	0.0000000E+000	0.0000000E+000	14.0774	0.0000000E+000	0.0000000E+000	0.0000000E+000	-14.0774	0.0000000E+000	0.0000000E+000	0.0000000E+000	-75.9226	0.0000000E+000	0.0000000E+000	0.0000000E+000	75.9226	0.250764	14.0774	-3.03171e-08
0.398211	7196.63	28158.4	29063.5	-75.6634	277.078	0.0332507	-2.33607e-05	14.1938	13.3235	1	43	0.00490907	1.68908e-07	0	4.36231e-06	0.355448	0.152815	5.38271	4.45211e-06	8.14339e-06	6.28995e-06	7.81164e-06	5.34747e-06	7.8677e-06	0.702388	0.344958	7.35344	7.49302e-10	5.40544e-10	2.95973e-10	5.40485e-10	1.43497e-10	2.8395e-10	8.51987e-06	3.33359e-05	3.44074e-05	75.6634	13323.5	3405.18	13751.8	-14.3366	0.0000000E+000	0.0000000E+000	0.0000000E+000	14.3366	0.0000000E+000	0.0000000E+000	0.0000000E+000	-14.3366	0.0000000E+000	0.0000000E+000	0.0000000E+000	-75.6634	0.0000000E+000	0.0000000E+000	0.0000000E+000	75.6634	0.255577	14.3366	-7.81244e-08
0.199573	14165	52552.7	54428.2	-74.915	352.231	0.0332553	-2.20154e-05	15.1748	14.147	1	43	0.00490276	9.00776e-08	0	3.85849e-06	0.272234	0.115227	3.9855	5.46606e-06	6.06441e-06	3.35967e-06	5.46228e-06	3.87098e-06	5.12904e-06	0.585849	0.232644	12.4422	2.61655e-10	2.99523e-10	8.89741e-11	2.539e-10	1.62867e-10	8.30888e-11	4.78156e-06	1.77397e-05	1.83728e-05	74.915	14147	3813.17	14651.9	-15.085	0.0000000E+000	0.0000000E+000	0.0000000E+000	15.085	0.0000000E+000	0.0000000E+000	0.0000000E+000	-15.085	0.0000000E+000	0.0000000E+000	0.0000000E+000	-74.915	0.0000000E+000	0.0000000E+000	0.0000000E+000	74.915	0.26954	15.085	-2.0417e-07
0.0999518	29025.5	97925.3	102136	-73.4899	501.287	0.0332415	-2.11837e-05	16.2605	14.9473	1	43	0.00490371	4.80114e-08	0	3.00318e-06	0.204929	0.211122	3.69876	3.01665e-06	5.52944e-06	3.71936e-06	5.15e-06	2.51706e-06	2.05781e-06	0.581962	0.279987	23.5385	1.59096e-10	1.07595e-10	9.76114e-11	1.21859e-10	8.62645e-11	7.33619e-11	2.7824e-06	9.38715e-06	9.79083e-06	73.4899	14947.3	4430.46	15590.1	-16.5101	0.0000000E+000	0.0000000E+000	0.0000000E+000	16.5101	0.0000000E+000	0.0000000E+000	0.0000000E+000	-16.5101	0.0000000E+000	0.0000000E+000	0.0000000E+000	-73.4899	0.0000000E+000	0.0000000E+000	0.0000000E+000	73.4899	0.296405	16.5101	-3.48436e-07
252347	11.1509	2.10793	11.3484	-10.7047	506.811	0.0333536	-0.00240219	0.299203	0.010323	2	38	0.00519043	0.000457371	0	-3.10459e-06	-1	-1	-1	0	0	0	0	0	0	-1	-1	-1	0	0	0	0	0	0	0.0865847	0.0163677	0.0881181	10.7047	10.323	54.6088	55.5759	-79.2953	0.0000000E+000	0.0000000E+000	0.0000000E+000	79.2953	0.0000000E+000	0.0000000E+000	0.0000000E+000	-79.2953	0.0000000E+000	0.0000000E+000	0.0000000E+000	-10.7047	0.0000000E+000	0.0000000E+000	0.0000000E+000	10.7047	5.28999	79.2953	-2.74415e-07
126447	11.2472	1.8353	11.396	-9.26775	510.252	0.033349	-0.00223276	0.685809	0.0177875	2	38	0.00512856	0.000450033	0	-5.49629e-06	-1	-1	-1	0	0	0	0	0	0	-1	-1	-1	0	0	0	0	0	0	0.086605	0.0141321	0.0877505	9.26775	17.7875	109.007	110.448	-80.7322	0.0000000E+000	0.0000000E+000	0.0000000E+000	80.7322	0.0000000E+000	0.0000000E+000	0.0000000E+000	-80.7322	0.0000000E+000	0.0000000E+000	0.0000000E+000	-9.26775	0.0000000E+000	0.0000000E+000	0.0000000E+000	9.26775	6.12826	80.7322	4.18956e-07
63362.9	11.502	2.23936	11.718	-11.0173	513.695	0.0333495	-0.00166859	1.12166	0.0409643	2	38	0.00513704	0.000438391	0	-6.67314e-06	1.54038	0.542327	27.0461	2.48623e-05	3.15357e-05	3.59456e-05	2.5545e-05	1.9819e-05	3.44929e-05	0.344074	0.089236	6.77854	8.56955e-07	3.66471e-07	5.82339e-07	4.11443e-07	5.40759e-07	6.1419e-07	0.0837663	0.0163087	0.0853392	11.0173	40.9643	210.404	214.355	-78.9827	0.0000000E+000	0.0000000E+000	0.0000000E+000	78.9827	0.0000000E+000	0.0000000E+000	0.0000000E+000	-78.9827	0.0000000E+000	0.0000000E+000	0.0000000E+000	-11.0173	0.0000000E+000	0.0000000E+000	0.0000000E+000	11.0173	5.13629	78.9827	-6.75334e-08
31751	11.9446	3.32066	12.3976	-15.5362	517.136	0.0333038	-0.000998294	1.50952	0.108296	2	38	0.00512353	0.000413267	0	-6.90879e-06	1.26818	0.576208	26.9801	4.02813e-05	1.15009e-05	2.75534e-05	1.53617e-05	1.6976e-05	3.09823e-05	0.472699	0.153637	7.21024	1.36715e-06	5.23426e-07	3.9343e-07	8.57488e-07	6.19626e-07	4.05978e-07	0.0777135	0.0216047	0.0806607	15.5362	108.296	389.546	404.319	-74.4638	0.0000000E+000	0.0000000E+000	0.0000000E+000	74.4638	0.0000000E+000	0.0000000E+000	0.0000000E+000	-74.4638	0.0000000E+000	0.0000000E+000	0.0000000E+000	-15.5362	0.0000000E+000	0.0000000E+000	0.0000000E+000	15.5362	3.59706	74.4638	-5.5777e-07
15912.6	12.6213	5.55564	13.79	-23.7581	520.578	0.0333573	-0.00248971	1.8003	0.292204	2	38	0.00512616	0.000371731	0	-8.00159e-06	1.31083	0.690856	27.7253	2.32781e-05	1.75081e-05	3.93096e-05	1.99339e-05	2.61041e-05	1.80761e-05	0.37448	0.1787	8.04644	6.37045e-07	2.41242e-07	5.82407e-07	5.86979e-07	5.89819e-07	5.18193e-07	0.0663711	0.0292152	0.0725166	23.7581	292.204	663.83	725.296	-66.2419	0.0000000E+000	0.0000000E+000	0.0000000E+000	66.2419	0.0000000E+000	0.0000000E+000	0.0000000E+000	-66.2419	0.0000000E+000	0.0000000E+000	0.0000000E+000	-23.7581	0.0000000E+000	0.0000000E+000	0.0000000E+000	23.7581	2.2718	66.2419	-1.0094e-07
7967.67	13.7262	9.62921	16.7669	-35.0504	523.914	0.0332274	-0.00154571	2.07443	0.684183	2	38	0.00529385	0.000315731	0	-1.01519e-05	1.33071	1.12913	26.0596	2.69401e-05	2.55723e-05	2.84557e-05	2.90198e-05	2.3801e-05	2.30473e-05	0.532812	0.285907	9.67311	6.02601e-07	2.33786e-07	8.98444e-07	5.1718e-07	6.33793e-07	7.83928e-07	0.0488251	0.0342518	0.0596412	35.0504	684.183	975.286	1191.34	-54.9496	0.0000000E+000	0.0000000E+000	0.0000000E+000	54.9496	0.0000000E+000	0.0000000E+000	0.0000000E+000	-54.9496	0.0000000E+000	0.0000000E+000	0.0000000E+000	-35.0504	0.0000000E+000	0.0000000E+000	0.0000000E+000	35.0504	1.42547	54.9496	-1.37296e-06
3993.72	15.8751	16.9676	23.2361	-46.9053	527.413	0.0332301	-0.00149172	2.34867	1.25238	2	38	0.00501261	0.000215725	0	-1.20905e-05	1.59091	0.731624	28.3961	2.48948e-05	2.34972e-05	4.72997e-05	2.23792e-05	4.0654e-05	1.63858e-05	0.67434	0.354013	14.4191	7.17415e-07	4.76733e-07	4.43468e-07	7.08059e-07	3.32134e-07	6.42987e-07	0.0294028	0.0314263	0.0430365	46.9053	1252.38	1171.74	1715.06	-43.0947	0.0000000E+000	0.0000000E+000	0.0000000E+000	43.0947	0.0000000E+000	0.0000000E+000	0.0000000E+000	-43.0947	0.0000000E+000	0.0000000E+000	0.0000000E+000	-46.9053	0.0000000E+000	0.0000000E+000	0.0000000E+000	46.9053	0.935611	43.0947	-4.99936e-07
2001.92	19.8174	30.0931	36.0322	-56.6336	531.205	0.0332391	-0.000163855	2.64185	1.84271	2	39	0.00499683	0.000138677	0	-1.27229e-05	1.0969	0.872783	24.8682	1.74591e-05	2.22807e-05	1.96738e-05	2.21313e-05	1.34507e-05	2.55442e-05	0.43514	0.337948	8.63247	1.66693e-07	2.60995e-07	2.06251e-07	3.00836e-07	2.81077e-07	1.53151e-07	0.0152639	0.0231784	0.0277529	56.6336	1842.71	1213.5	2206.39	-33.3664	0.0000000E+000	0.0000000E+000	0.0000000E+000	33.3664	0.0000000E+000	0.0000000E+000	0.0000000E+000	-33.3664	0.0000000E+000	0.0000000E+000	0.0000000E+000	-56.6336	0.0000000E+000	0.0000000E+000	0.0000000E+000	56.6336	0.658538	33.3664	-1.11217e-07
1002.75	26.6986	53.0607	59.3991	-63.2897	534.748	0.0332026	2.99782e-05	2.99126	2.38693	2	39	0.00488935	8.23136e-05	0	-1.29215e-05	1.31192	0.662957	24.811	3.56168e-05	1.57625e-05	1.69264e-05	1.27797e-05	3.08572e-05	2.25679e-05	0.86669	0.486769	14.4428	3.95993e-07	1.85419e-07	1.82198e-07	2.94839e-07	3.12283e-07	1.87694e-07	0.0075671	0.0150388	0.0168353	63.2897	2386.93	1201.04	2672.07	-26.7103	0.0000000E+000	0.0000000E+000	0.0000000E+000	26.7103	0.0000000E+000	0.0000000E+000	0.0000000E+000	-26.7103	0.0000000E+000	0.0000000E+000	0.0000000E+000	-63.2897	0.0000000E+000	0.0000000E+000	0.0000000E+000	63.2897	0.503172	26.7103	5.08101e-09
502.588	40.0007	92.9251	101.169	-66.71	538.07	0.033235	-5.0725e-05	3.40781	2.87507	2	39	0.00467254	4.61856e-05	0	-1.29758e-05	1.76469	0.664251	26.2103	2.93932e-05	2.02247e-05	3.01263e-05	2.71736e-05	3.06524e-05	4.14497e-05	1.68686	0.679902	26.4677	1.56443e-07	2.70274e-07	3.12354e-07	3.14863e-07	2.95051e-07	3.65353e-07	0.00390817	0.00907903	0.00988447	66.71	2875.07	1237.6	3130.12	-23.29	0.0000000E+000	0.0000000E+000	0.0000000E+000	23.29	0.0000000E+000	0.0000000E+000	0.0000000E+000	-23.29	0.0000000E+000	0.0000000E+000	0.0000000E+000	-66.71	0.0000000E+000	0.0000000E+000	0.0000000E+000	66.71	0.430461	23.29	1.90314e-08
251.853	61.6863	163.2	174.469	-69.2944	541.384	0.033283	-0.000183055	3.87216	3.3881	2	39	0.00463728	2.65795e-05	0	-1.28884e-05	1.16858	0.662087	26.947	1.82668e-05	1.59269e-05	2.52439e-05	2.25994e-05	1.54438e-05	1.79604e-05	2.01515	0.985824	43.9878	1.95401e-07	2.3718e-07	1.22462e-07	1.68734e-07	2.44363e-07	2.41716e-07	0.00202654	0.00536147	0.00573169	69.2944	3388.1	1280.64	3622.05	-20.7056	0.0000000E+000	0.0000000E+000	0.0000000E+000	20.7056	0.0000000E+000	0.0000000E+000	0.0000000E+000	-20.7056	0.0000000E+000	0.0000000E+000	0.0000000E+000	-69.2944	0.0000000E+000	0.0000000E+000	0.0000000E+000	69.2944	0.377981	20.7056	6.10427e-09
126.171	103.067	282.65	300.855	-69.9659	544.955	0.0332929	-6.82328e-05	4.46284	3.93908	2	40	0.00468654	1.55774e-05	0	-1.28645e-05	1.7367	1.05708	33.9483	2.78441e-05	2.88611e-05	2.27657e-05	2.08698e-05	3.70708e-05	2.95758e-05	0.869523	0.346509	12.444	3.79263e-08	7.19737e-08	3.66389e-08	6.67019e-08	5.20738e-08	4.32598e-08	0.00113868	0.00312273	0.00332386	69.9659	3939.08	1436.36	4192.79	-20.0341	0.0000000E+000	0.0000000E+000	0.0000000E+000	20.0341	0.0000000E+000	0.0000000E+000	0.0000000E+000	-20.0341	0.0000000E+000	0.0000000E+000	0.0000000E+000	-69.9659	0.0000000E+000	0.0000000E+000	0.0000000E+000	69.9659	0.364644	20.0341	-1.68192e-08
63.2394	169.892	490.89	519.458	-70.9098	548.224	0.0332361	2.71666e-06	5.12682	4.57842	2	40	0.00463051	8.91412e-06	0	-1.29034e-05	1.79392	0.785063	35.8368	2.71827e-05	3.86268e-05	3.09539e-05	2.40593e-05	3.64194e-05	3.05317e-05	1.12271	0.656182	22.2528	2.32722e-08	4.98596e-08	4.29078e-08	2.66779e-08	3.43781e-08	4.67355e-08	0.000629611	0.00181921	0.00192508	70.9098	4578.42	1584.54	4844.87	-19.0902	0.0000000E+000	0.0000000E+000	0.0000000E+000	19.0902	0.0000000E+000	0.0000000E+000	0.0000000E+000	-19.0902	0.0000000E+000	0.0000000E+000	0.0000000E+000	-70.9098	0.0000000E+000	0.0000000E+000	0.0000000E+000	70.9098	0.346089	19.0902	-6.17085e-09
31.6723	286.646	856.803	903.481	-71.5022	551.399	0.0332254	1.20778e-06	5.86489	5.27453	2	40	0.00461939	5.11288e-06	0	-1.29319e-05	1.83826	0.930279	35.0403	3.2411e-05	3.38582e-05	4.09465e-05	2.93139e-05	2.58021e-05	3.24477e-05	1.78096	0.938531	38.171	2.82714e-08	5.35673e-08	5.04166e-08	2.44698e-08	1.27851e-08	2.22929e-08	0.000351163	0.00104965	0.00110683	71.5022	5274.54	1764.61	5561.89	-18.4978	0.0000000E+000	0.0000000E+000	0.0000000E+000	18.4978	0.0000000E+000	0.0000000E+000	0.0000000E+000	-18.4978	0.0000000E+000	0.0000000E+000	0.0000000E+000	-71.5022	0.0000000E+000	0.0000000E+000	0.0000000E+000	71.5022	0.334553	18.4978	-1.56483e-08
15.879	482.439	1472.8	1549.8	-71.8629	554.813	0.0332572	-1.15388e-05	6.80538	6.14592	2	41	0.0045944	2.96451e-06	0	-1.29745e-05	2.0523	1.41799	42.0086	2.91504e-05	3.18541e-05	3.78859e-05	4.04252e-05	3.95285e-05	3.6316e-05	0.881387	0.428897	12.1784	8.53394e-09	1.71831e-08	4.36576e-09	1.13212e-08	9.62139e-09	4.2003e-09	0.000200859	0.000613185	0.000645244	71.8629	6145.92	2013.2	6467.25	-18.1371	0.0000000E+000	0.0000000E+000	0.0000000E+000	18.1371	0.0000000E+000	0.0000000E+000	0.0000000E+000	-18.1371	0.0000000E+000	0.0000000E+000	0.0000000E+000	-71.8629	0.0000000E+000	0.0000000E+000	0.0000000E+000	71.8629	0.327566	18.1371	-1.76229e-08
7.95573	798.976	2610.08	2729.63	-72.98	558.248	0.0332654	-2.0596e-05	7.66455	7.00788	2	41	0.00461186	1.68956e-06	0	-1.29906e-05	1.45606	0.776152	29.0817	3.56645e-05	3.43094e-05	1.38429e-05	2.25889e-05	2.16242e-05	1.9864e-05	0.840656	0.392251	15.3812	3.99005e-09	6.20476e-09	5.48946e-09	4.42176e-09	6.34286e-09	5.24104e-09	0.000107233	0.000350305	0.00036635	72.98	7007.88	2145.2	7328.86	-17.02	0.0000000E+000	0.0000000E+000	0.0000000E+000	17.02	0.0000000E+000	0.0000000E+000	0.0000000E+000	-17.02	0.0000000E+000	0.0000000E+000	0.0000000E+000	-72.98	0.0000000E+000	0.0000000E+000	0.0000000E+000	72.98	0.306112	17.02	-2.30364e-08
3.98597	1335.58	4603.03	4792.87	-73.8198	563.169	0.0332598	-2.18391e-05	8.67446	8.00088	2	41	0.00459622	9.58969e-07	0	-1.29918e-05	0.97559	0.484852	20.2096	1.37767e-05	1.5462e-05	8.34262e-06	1.73036e-05	1.9067e-05	2.68004e-05	0.932711	0.652223	19.9781	3.10135e-09	3.67934e-09	1.53455e-09	3.3465e-09	4.20523e-09	4.70568e-09	5.81402e-05	0.000200379	0.000208643	73.8198	8000.88	2321.47	8330.86	-16.1802	0.0000000E+000	0.0000000E+000	0.0000000E+000	16.1802	0.0000000E+000	0.0000000E+000	0.0000000E+000	-16.1802	0.0000000E+000	0.0000000E+000	0.0000000E+000	-73.8198	0.0000000E+000	0.0000000E+000	0.0000000E+000	73.8198	0.290152	16.1802	3.4529e-09
1.99783	2299.97	8194.32	8510.98	-74.3217	572.543	0.0332608	-2.07327e-05	9.72186	9.01189	2	42	0.00459626	5.40039e-07	0	-1.30518e-05	0.704804	0.360462	13.6056	1.13882e-05	1.12609e-05	7.69868e-06	9.80407e-06	1.53089e-05	1.53829e-05	0.431654	0.19512	9.2575	1.20577e-09	1.18835e-09	3.70167e-10	1.42871e-09	3.4316e-10	3.79652e-10	3.17515e-05	0.000113124	0.000117495	74.3217	9011.89	2529.45	9360.14	-15.6783	0.0000000E+000	0.0000000E+000	0.0000000E+000	15.6783	0.0000000E+000	0.0000000E+000	0.0000000E+000	-15.6783	0.0000000E+000	0.0000000E+000	0.0000000E+000	-74.3217	0.0000000E+000	0.0000000E+000	0.0000000E+000	74.3217	0.280679	15.6783	-1.03549e-08
1.00122	3989.26	14680.7	15213	-74.7978	588.408	0.0332448	-2.0212e-05	10.8279	10.0834	2	42	0.00459477	3.02028e-07	0	-1.31261e-05	0.515983	0.367148	9.7056	6.99048e-06	1.09415e-05	5.61649e-06	9.37873e-06	1.17872e-05	7.72778e-06	0.505008	0.193372	15.3112	6.68022e-10	9.46883e-10	2.2939e-10	8.80805e-10	2.73006e-10	1.68043e-10	1.72369e-05	6.34328e-05	6.5733e-05	74.7978	10083.4	2740.01	10449	-15.2022	0.0000000E+000	0.0000000E+000	0.0000000E+000	15.2022	0.0000000E+000	0.0000000E+000	0.0000000E+000	-15.2022	0.0000000E+000	0.0000000E+000	0.0000000E+000	-74.7978	0.0000000E+000	0.0000000E+000	0.0000000E+000	74.7978	0.271735	15.2022	-1.07834e-08
0.501541	7182.12	26438.5	27396.7	-74.8021	621.471	0.0332498	-2.00994e-05	12.0026	11.1778	2	43	0.00459989	1.679e-07	0	-1.33097e-05	0.425822	0.197503	6.62221	6.27959e-06	7.67845e-06	9.33048e-06	5.73628e-06	8.90351e-06	7.4569e-06	0.494376	0.150385	8.11088	3.55893e-10	4.41379e-10	1.63809e-10	4.7532e-10	1.91819e-10	2.24847e-10	9.5688e-06	3.52242e-05	3.65008e-05	74.8021	11177.8	3036.48	11582.9	-15.1979	0.0000000E+000	0.0000000E+000	0.0000000E+000	15.1979	0.0000000E+000	0.0000000E+000	0.0000000E+000	-15.1979	0.0000000E+000	0.0000000E+000	0.0000000E+000	-74.8021	0.0000000E+000	0.0000000E+000	0.0000000E+000	74.8021	0.271654	15.1978	-5.22989e-08
0.251222	13272.8	47834	49641.3	-74.492	681.364	0.0332557	-1.97663e-05	13.2442	12.2974	2	43	0.00459575	9.25791e-08	0	-1.36676e-05	0.309376	0.205355	5.03879	4.61669e-06	5.7809e-06	5.29083e-06	5.48174e-06	5.63856e-06	6.2735e-06	0.494038	0.125568	15.6868	1.98232e-10	2.11776e-10	1.05284e-10	2.08076e-10	1.03205e-10	1.7715e-10	5.38611e-06	1.94111e-05	2.01445e-05	74.492	12297.4	3412.23	12762	-15.508	0.0000000E+000	0.0000000E+000	0.0000000E+000	15.508	0.0000000E+000	0.0000000E+000	0.0000000E+000	-15.508	0.0000000E+000	0.0000000E+000	0.0000000E+000	-74.492	0.0000000E+000	0.0000000E+000	0.0000000E+000	74.492	0.277476	15.508	-1.32437e-07
0.125939	26086.8	86925.6	90755.7	-73.2953	799.926	0.033278	-1.8732e-05	14.5383	13.3371	2	43	0.00459676	5.06499e-08	0	-1.42751e-05	0.214953	0.123339	3.41535	3.52463e-06	6.24756e-06	2.98008e-06	2.82502e-06	4.10808e-06	2.16233e-06	0.463652	0.159128	27.2815	9.13198e-11	1.04444e-10	6.33573e-11	1.58596e-10	5.68891e-11	3.48167e-11	3.16718e-06	1.05536e-05	1.10186e-05	73.2953	13337.1	4002.53	13924.7	-16.7047	0.0000000E+000	0.0000000E+000	0.0000000E+000	16.7047	0.0000000E+000	0.0000000E+000	0.0000000E+000	-16.7047	0.0000000E+000	0.0000000E+000	0.0000000E+000	-73.2953	0.0000000E+000	0.0000000E+000	0.0000000E+000	73.2953	0.300105	16.7047	-2.58155e-07
317705	11.0551	2.43489	11.32	-12.4212	866.014	0.0333309	-0.00293657	0.205739	0.00951876	3	38	0.00515224	0.000455144	0	-2.16268e-05	-1	-1	-1	0	0	0	0	0	0	-1	-1	-1	0	0	0	0	0	0	0.0862712	0.0190014	0.088339	12.4212	9.51876	43.2177	44.2535	-77.5788	0.0000000E+000	0.0000000E+000	0.0000000E+000	77.5788	0.0000000E+000	0.0000000E+000	0.0000000E+000	-77.5788	0.0000000E+000	0.0000000E+000	0.0000000E+000	-12.4212	0.0000000E+000	0.0000000E+000	0.0000000E+000	12.4212	4.54027	77.5788	-9.06282e-07
159201	11.2143	1.83646	11.3636	-9.3003	869.455	0.0333296	-0.00337226	0.544369	0.0142175	3	38	0.00520254	0.000457824	0	-2.43583e-05	-1	-1	-1	0	0	0	0	0	0	-1	-1	-1	0	0	0	0	0	0	0.0868433	0.0142216	0.0880001	9.3003	14.2175	86.8184	87.9748	-80.6997	0.0000000E+000	0.0000000E+000	0.0000000E+000	80.6997	0.0000000E+000	0.0000000E+000	0.0000000E+000	-80.6997	0.0000000E+000	0.0000000E+000	0.0000000E+000	-9.3003	0.0000000E+000	0.0000000E+000	0.0000000E+000	9.3003	6.10644	80.6997	-7.2324e-07
79767.3	11.3903	2.0692	11.5767	-10.2963	872.897	0.0333603	-0.00318048	0.964255	0.0308055	3	38	0.00515447	0.000445245	0	-2.71298e-05	1.69583	0.856351	26.8402	2.01699e-05	2.69351e-05	2.97239e-05	4.02705e-05	2.47166e-05	4.99121e-05	0.319136	0.166441	6.6427	3.9957e-07	9.24946e-07	3.88441e-07	3.97366e-07	4.66014e-07	5.11794e-07	0.0849893	0.0154395	0.0863803	10.2963	30.8055	169.574	172.35	-79.7037	0.0000000E+000	0.0000000E+000	0.0000000E+000	79.7037	0.0000000E+000	0.0000000E+000	0.0000000E+000	-79.7037	0.0000000E+000	0.0000000E+000	0.0000000E+000	-10.2963	0.0000000E+000	0.0000000E+000	0.0000000E+000	10.2963	5.50467	79.7037	-1.16608e-06
39971.8	11.8015	2.85833	12.1427	-13.6148	876.337	0.0333477	-0.0029645	1.39301	0.0771871	3	38	0.005215	0.000429475	0	-2.93228e-05	1.50766	0.610794	27.2476	3.19321e-05	3.46202e-05	2.08332e-05	2.04568e-05	3.22744e-05	3.31818e-05	0.396624	0.191107	7.0072	3.23717e-07	7.12148e-07	5.92219e-07	6.3598e-07	5.52994e-07	8.63085e-07	0.0800396	0.0193856	0.0823537	13.6148	77.1871	318.692	327.906	-76.3852	0.0000000E+000	0.0000000E+000	0.0000000E+000	76.3852	0.0000000E+000	0.0000000E+000	0.0000000E+000	-76.3852	0.0000000E+000	0.0000000E+000	0.0000000E+000	-13.6148	0.0000000E+000	0.0000000E+000	0.0000000E+000	13.6148	4.12883	76.3852	-6.39312e-07
20032.3	12.3107	4.73119	13.1886	-21.0225	879.778	0.0333485	-0.00278389	1.67927	0.216105	3	38	0.00522753	0.000396369	0	-3.19131e-05	1.33501	0.696725	26.4757	2.76797e-05	2.85791e-05	2.65396e-05	2.69964e-05	1.90432e-05	2.35051e-05	0.366374	0.190987	7.61818	4.29197e-07	6.43365e-07	6.12756e-07	4.50617e-07	6.58564e-07	4.73424e-07	0.0707765	0.0272004	0.0758233	21.0225	216.105	562.314	602.41	-68.9775	0.0000000E+000	0.0000000E+000	0.0000000E+000	68.9775	0.0000000E+000	0.0000000E+000	0.0000000E+000	-68.9775	0.0000000E+000	0.0000000E+000	0.0000000E+000	-21.0225	0.0000000E+000	0.0000000E+000	0.0000000E+000	21.0225	2.60204	68.9775	-4.80654e-07
10039.3	13.2375	8.12235	15.5307	-31.5327	883.219	0.0333493	-0.00229979	1.95179	0.533842	3	38	0.00502711	0.000323688	0	-3.38399e-05	1.60356	0.636751	28.2623	4.93268e-05	1.93418e-05	2.82219e-05	3.1024e-05	3.08909e-05	1.15436e-05	0.516358	0.32923	9.41898	1.10292e-06	7.57015e-07	5.57538e-07	2.17367e-07	2.8201e-07	4.69533e-07	0.054881	0.0336743	0.0643885	31.5327	533.842	870.035	1020.76	-58.4673	0.0000000E+000	0.0000000E+000	0.0000000E+000	58.4673	0.0000000E+000	0.0000000E+000	0.0000000E+000	-58.4673	0.0000000E+000	0.0000000E+000	0.0000000E+000	-31.5327	0.0000000E+000	0.0000000E+000	0.0000000E+000	31.5327	1.62976	58.4673	-1.17886e-06
5028.39	14.7087	14.5396	20.682	-44.6688	886.567	0.0332122	-0.00331641	2.1769	1.07587	3	38	0.005381	0.000260178	0	-3.53792e-05	1.29424	0.503319	25.863	2.71818e-05	3.18083e-05	1.99076e-05	3.05987e-05	2.57673e-05	2.29749e-05	0.561273	0.365182	11.7298	3.52723e-07	4.79959e-07	6.22533e-07	6.60648e-07	2.91116e-07	8.26012e-07	0.0343865	0.0339913	0.0483512	44.6688	1075.87	1088.38	1530.38	-45.3312	0.0000000E+000	0.0000000E+000	0.0000000E+000	45.3312	0.0000000E+000	0.0000000E+000	0.0000000E+000	-45.3312	0.0000000E+000	0.0000000E+000	0.0000000E+000	-44.6688	0.0000000E+000	0.0000000E+000	0.0000000E+000	44.6688	1.01163	45.3312	-7.2845e-07
2519.19	17.5367	26.2055	31.5319	-56.2096	889.888	0.033233	-0.0024562	2.41083	1.66514	3	38	0.00523057	0.000165882	0	-3.81519e-05	1.31009	1.09534	27.016	3.20859e-05	2.9319e-05	3.56387e-05	1.73076e-05	1.79038e-05	2.64018e-05	0.919991	0.60304	18.4252	6.53067e-07	4.45083e-07	6.1403e-07	6.70154e-07	4.35811e-07	6.83654e-07	0.0176378	0.0263567	0.0317139	56.2096	1665.14	1114.31	2003.59	-33.7904	0.0000000E+000	0.0000000E+000	0.0000000E+000	33.7904	0.0000000E+000	0.0000000E+000	0.0000000E+000	-33.7904	0.0000000E+000	0.0000000E+000	0.0000000E+000	-56.2096	0.0000000E+000	0.0000000E+000	0.0000000E+000	56.2096	0.669198	33.7904	-8.46931e-07
1262.98	23.0605	46.7965	52.1699	-63.7668	893.679	0.0332274	-0.000375583	2.69284	2.16669	3	39	0.00453387	8.69059e-05	0	-3.85013e-05	1.27019	0.960914	26.705	2.03491e-05	1.92691e-05	2.67871e-05	2.53941e-05	6.55464e-06	2.78609e-05	0.806268	0.455341	13.6502	2.8647e-07	3.02231e-07	2.28165e-07	2.00663e-07	1.59139e-07	3.32e-07	0.00847282	0.0171939	0.0191681	63.7668	2166.69	1067.71	2415.48	-26.2333	0.0000000E+000	0.0000000E+000	0.0000000E+000	26.2333	0.0000000E+000	0.0000000E+000	0.0000000E+000	-26.2333	0.0000000E+000	0.0000000E+000	0.0000000E+000	-63.7668	0.0000000E+000	0.0000000E+000	0.0000000E+000	63.7668	0.492782	26.2332	-1.29887e-07
632.773	33.486	83.5143	89.9775	-68.1511	897.223	0.0332678	-4.40151e-05	3.0117	2.59457	3	39	0.00489284	5.43785e-05	0	-3.87567e-05	1.32848	0.944493	25.1735	2.00817e-05	1.17238e-05	3.33535e-05	2.2828e-05	2.60694e-05	2.86519e-05	1.33842	0.849962	22.1114	2.44855e-07	3.91969e-07	2.28298e-07	2.70612e-07	2.44702e-07	2.40362e-07	0.00413614	0.0103156	0.0111139	68.1511	2594.57	1040.32	2795.37	-21.8489	0.0000000E+000	0.0000000E+000	0.0000000E+000	21.8489	0.0000000E+000	0.0000000E+000	0.0000000E+000	-21.8489	0.0000000E+000	0.0000000E+000	0.0000000E+000	-68.1511	0.0000000E+000	0.0000000E+000	0.0000000E+000	68.1511	0.400961	21.8488	-7.32224e-09
316.927	52.4974	146.942	156.038	-70.3399	900.543	0.033254	-1.77362e-05	3.41755	3.03072	3	39	0.00477299	3.05886e-05	0	-3.88439e-05	1.4865	0.737829	26.2482	2.20587e-05	4.4e-05	1.59133e-05	2.57072e-05	2.55751e-05	2.12994e-05	1.94899	1.1146	38.8363	2.47792e-07	3.99285e-07	1.66557e-07	1.80251e-07	8.92953e-08	1.3965e-07	0.00215614	0.00603509	0.00640869	70.3399	3030.72	1082.77	3218.33	-19.6601	0.0000000E+000	0.0000000E+000	0.0000000E+000	19.6601	0.0000000E+000	0.0000000E+000	0.0000000E+000	-19.6601	0.0000000E+000	0.0000000E+000	0.0000000E+000	-70.3399	0.0000000E+000	0.0000000E+000	0.0000000E+000	70.3399	0.357267	19.6601	-4.53865e-08
158.831	87.9168	259.058	273.57	-71.2543	904.115	0.0332448	-7.9935e-06	3.86802	3.46854	3	40	0.00488634	1.78614e-05	0	-3.89523e-05	1.61312	1.13347	33.6184	3.00299e-05	2.5158e-05	3.48749e-05	2.42089e-05	2.08563e-05	3.21794e-05	0.924338	0.41679	11.2589	4.19355e-08	5.78383e-08	5.96713e-08	1.15871e-07	2.93658e-08	3.46136e-08	0.00117472	0.00346147	0.00365537	71.2543	3468.54	1177.12	3662.84	-18.7457	0.0000000E+000	0.0000000E+000	0.0000000E+000	18.7457	0.0000000E+000	0.0000000E+000	0.0000000E+000	-18.7457	0.0000000E+000	0.0000000E+000	0.0000000E+000	-71.2543	0.0000000E+000	0.0000000E+000	0.0000000E+000	71.2543	0.339371	18.7457	1.73779e-08
79.6177	150.358	450.483	474.913	-71.5425	907.403	0.0333146	-3.63624e-05	4.43744	3.99265	3	40	0.00478192	1.0069e-05	0	-3.89928e-05	1.78462	0.811169	35.2449	1.428e-05	3.4121e-05	4.33236e-05	3.40069e-05	2.93775e-05	3.02307e-05	1.32188	0.489375	20.6281	2.83435e-08	6.28141e-08	5.61611e-08	7.04697e-08	3.9091e-08	4.69571e-08	0.000666651	0.00199733	0.00210565	71.5425	3992.65	1332.63	4209.17	-18.4575	0.0000000E+000	0.0000000E+000	0.0000000E+000	18.4575	0.0000000E+000	0.0000000E+000	0.0000000E+000	-18.4575	0.0000000E+000	0.0000000E+000	0.0000000E+000	-71.5425	0.0000000E+000	0.0000000E+000	0.0000000E+000	71.5425	0.333771	18.4575	-1.36519e-08
39.8851	263.276	782.191	825.31	-71.3974	910.618	0.0332778	-2.72168e-05	5.10148	4.58234	3	40	0.00476669	5.77564e-06	0	-3.90137e-05	2.55648	0.884267	35.3231	5.04793e-05	3.8235e-05	5.0244e-05	2.91089e-05	6.3371e-05	4.07161e-05	2.14172	0.91308	35.7691	3.8449e-08	6.38339e-08	3.15919e-08	4.22636e-08	5.56644e-08	4.39218e-08	0.000386524	0.00114836	0.00121167	71.3974	4582.34	1542.36	4834.95	-18.6026	0.0000000E+000	0.0000000E+000	0.0000000E+000	18.6026	0.0000000E+000	0.0000000E+000	0.0000000E+000	-18.6026	0.0000000E+000	0.0000000E+000	0.0000000E+000	-71.3974	0.0000000E+000	0.0000000E+000	0.0000000E+000	71.3974	0.336588	18.6026	-5.32031e-10
19.9808	440.275	1368.57	1437.65	-72.1668	913.794	0.0332908	-6.58675e-05	5.82021	5.27435	3	40	0.00476312	3.31313e-06	0	-3.90337e-05	2.38825	1.35488	34.0504	1.37714e-05	4.19764e-05	2.80516e-05	8.16131e-05	3.4978e-05	4.02339e-05	2.99543	1.49285	59.9925	2.70887e-08	3.18915e-08	4.22768e-08	4.55451e-08	4.45473e-08	3.57608e-08	0.000213019	0.000662159	0.00069558	72.1668	5274.35	1696.78	5540.56	-17.8332	0.0000000E+000	0.0000000E+000	0.0000000E+000	17.8332	0.0000000E+000	0.0000000E+000	0.0000000E+000	-17.8332	0.0000000E+000	0.0000000E+000	0.0000000E+000	-72.1668	0.0000000E+000	0.0000000E+000	0.0000000E+000	72.1668	0.321704	17.8332	-9.23742e-09
10.016	755.734	2386.93	2503.71	-72.4315	917.303	0.0332709	-1.44868e-05	6.6571	6.05057	3	41	0.00474431	1.89492e-06	0	-3.90268e-05	2.44379	1.31699	41.8032	4.09007e-05	2.65921e-05	5.07627e-05	5.41777e-05	2.6224e-05	4.43667e-05	1.56106	0.62229	19.5957	8.44773e-09	3.28254e-09	1.02396e-08	2.30727e-08	5.30976e-09	6.99098e-09	0.00012056	0.000380778	0.000399408	72.4315	6050.57	1915.69	6346.59	-17.5685	0.0000000E+000	0.0000000E+000	0.0000000E+000	17.5685	0.0000000E+000	0.0000000E+000	0.0000000E+000	-17.5685	0.0000000E+000	0.0000000E+000	0.0000000E+000	-72.4315	0.0000000E+000	0.0000000E+000	0.0000000E+000	72.4315	0.316614	17.5685	1.05786e-08
5.01766	1272.61	4231.68	4418.9	-73.2622	921.51	0.0332859	-1.60437e-05	7.49559	6.87391	3	41	0.00476656	1.07868e-06	0	-3.9061e-05	1.36424	0.554146	23.6422	1.33449e-05	2.94692e-05	2.40048e-05	2.84741e-05	2.32253e-05	2.73998e-05	1.08929	0.455905	20.3117	3.32212e-09	6.0527e-09	5.03719e-09	4.44905e-09	3.9562e-09	4.79514e-09	6.5173e-05	0.000216713	0.000226301	73.2622	6873.91	2067.22	7178.02	-16.7378	0.0000000E+000	0.0000000E+000	0.0000000E+000	16.7378	0.0000000E+000	0.0000000E+000	0.0000000E+000	-16.7378	0.0000000E+000	0.0000000E+000	0.0000000E+000	-73.2622	0.0000000E+000	0.0000000E+000	0.0000000E+000	73.2622	0.300734	16.7378	-8.95753e-09
2.51368	2150.16	7472.19	7775.4	-73.9465	929.385	0.0332941	-1.79077e-05	8.4735	7.82552	3	42	0.0047629	6.12561e-07	0	-3.90973e-05	0.880456	0.535693	15.5645	1.30709e-05	1.10416e-05	1.41375e-05	9.77556e-06	1.87058e-05	2.472e-05	0.401115	0.129412	8.46783	6.50732e-10	1.30506e-09	7.96176e-10	1.55812e-09	2.50933e-10	6.74117e-10	3.55653e-05	0.000123595	0.000128611	73.9465	7825.52	2251.84	8143.07	-16.0535	0.0000000E+000	0.0000000E+000	0.0000000E+000	16.0535	0.0000000E+000	0.0000000E+000	0.0000000E+000	-16.0535	0.0000000E+000	0.0000000E+000	0.0000000E+000	-73.9465	0.0000000E+000	0.0000000E+000	0.0000000E+000	73.9465	0.287756	16.0535	-1.83575e-08
1.25968	3731.75	13228.1	13744.4	-74.2458	942.222	0.0332889	-1.7003e-05	9.55134	8.84723	3	42	0.00473767	3.44699e-07	0	-3.91536e-05	0.605775	0.288354	10.75	1.31276e-05	1.43378e-05	9.55996e-06	1.2751e-05	7.38783e-06	7.86226e-06	0.421247	0.162745	13.8256	3.51547e-10	7.71049e-10	2.91784e-10	9.59363e-10	2.9439e-10	2.84287e-10	1.97544e-05	7.0024e-05	7.27571e-05	74.2458	8847.24	2495.88	9192.55	-15.7542	0.0000000E+000	0.0000000E+000	0.0000000E+000	15.7542	0.0000000E+000	0.0000000E+000	0.0000000E+000	-15.7542	0.0000000E+000	0.0000000E+000	0.0000000E+000	-74.2458	0.0000000E+000	0.0000000E+000	0.0000000E+000	74.2458	0.282109	15.7542	-3.06909e-08
0.631645	6660.63	23676.2	24595.2	-74.2875	968.726	0.0332925	-1.68326e-05	10.6423	9.86182	3	43	0.00475776	1.93442e-07	0	-3.92692e-05	0.4533	0.296256	7.26038	7.23705e-06	4.83153e-06	8.67318e-06	1.1685e-05	6.51464e-06	8.66395e-06	0.692986	0.309849	7.94859	5.36136e-10	7.60154e-10	3.42033e-10	7.9751e-10	1.64096e-10	2.79175e-10	1.10107e-05	3.9139e-05	4.06583e-05	74.2875	9861.82	2774.35	10244.6	-15.7125	0.0000000E+000	0.0000000E+000	0.0000000E+000	15.7125	0.0000000E+000	0.0000000E+000	0.0000000E+000	-15.7125	0.0000000E+000	0.0000000E+000	0.0000000E+000	-74.2875	0.0000000E+000	0.0000000E+000	0.0000000E+000	74.2875	0.281322	15.7125	-2.62946e-08
0.316193	12092.7	42512.1	44198.5	-74.1215	1016.49	0.0332979	-1.67012e-05	11.8401	10.9538	3	43	0.00475377	1.07555e-07	0	-3.95133e-05	0.314502	0.191659	5.49739	7.7615e-06	7.65801e-06	4.26321e-06	5.46271e-06	3.6816e-06	3.92263e-06	0.403352	0.181128	14.6134	1.42556e-10	2.16002e-10	1.37776e-10	2.84308e-10	7.0922e-11	8.27045e-11	6.19022e-06	2.17619e-05	2.26252e-05	74.1215	10953.8	3115.83	11388.3	-15.8785	0.0000000E+000	0.0000000E+000	0.0000000E+000	15.8785	0.0000000E+000	0.0000000E+000	0.0000000E+000	-15.8785	0.0000000E+000	0.0000000E+000	0.0000000E+000	-74.1215	0.0000000E+000	0.0000000E+000	0.0000000E+000	74.1215	0.284452	15.8785	-8.5618e-08
0.158419	23086.9	76491.3	79899.4	-73.205	1110.88	0.0332817	-1.61669e-05	13.1341	12.0376	3	43	0.00475134	5.94665e-08	0	-3.99292e-05	0.251624	0.110301	3.61963	3.56352e-06	6.53646e-06	3.05673e-06	5.52636e-06	4.95664e-06	2.03219e-06	0.485389	0.173095	23.0242	1.44035e-10	1.65808e-10	3.59582e-11	1.63202e-10	5.52789e-11	4.0535e-11	3.61641e-06	1.19819e-05	1.25157e-05	73.205	12037.6	3633.21	12573.9	-16.795	0.0000000E+000	0.0000000E+000	0.0000000E+000	16.795	0.0000000E+000	0.0000000E+000	0.0000000E+000	-16.795	0.0000000E+000	0.0000000E+000	0.0000000E+000	-73.205	0.0000000E+000	0.0000000E+000	0.0000000E+000	73.205	0.301823	16.795	-1.83637e-07
0.0999518	36439.9	113119	118843	-72.1443	1221.08	0.0332805	-1.54952e-05	14.0765	12.7531	3	43	0.00474972	3.99662e-08	0	-4.04342e-05	0.228022	0.102234	3.80905	4.64853e-06	7.23338e-06	2.44609e-06	2.63151e-06	2.564e-06	3.01943e-06	0.436226	0.177265	33.1562	7.90202e-11	1.03384e-10	2.84538e-11	9.70247e-11	3.5942e-11	2.49072e-11	2.58005e-06	8.00913e-06	8.41444e-06	72.1443	12753.1	4108.25	13398.5	-17.8557	0.0000000E+000	0.0000000E+000	0.0000000E+000	17.8557	0.0000000E+000	0.0000000E+000	0.0000000E+000	-17.8557	0.0000000E+000	0.0000000E+000	0.0000000E+000	-72.1443	0.0000000E+000	0.0000000E+000	0.0000000E+000	72.1443	0.322138	17.8557	-2.74639e-07