File: Python/Experiments/RDE/Dicarboxylferrocene/Data/240327-CVEIS-5mM_DiCaFerrocene-1M_NaCl-Repeat-0000RPM-Ag_AgCl_BLF8-Au_RDE_CV_C15.mpt
EC-Lab ASCII FILE
Nb header lines : 59

Cyclic Voltammetry

Run on channel : 15 (SN 19485)
User :
Electrode connection : standard
Potential control : Ewe
Ewe ctrl range : min = -1.00 V, max = 1.00 V
Ewe,I filtering : <None>
Safety Limits :
	Do not start on E overload
Channel : Floating
Acquisition started on : 03/27/2024 14:14:01.271
Loaded Setting File :  C:\Data\mathias\GoldElectrode\240327-CVEIS-5mM_DiCaFerrocene-1M_NaCl-0000RPM-Ag_AgCl_BLF8-Au_RDE.mps
Saved on :
	File : 240327-CVEIS-5mM_DiCaFerrocene-1M_NaCl-Repeat-0000RPM-Ag_AgCl_BLF8-Au_RDE_CV_C15.mpr
	Directory : C:\Data\mathias\GoldElectrode\
	Host : 192.168.0.1
Device : VMP-300 (SN 0826)
Address : USB
EC-Lab for windows v11.52 (software)
Internet server v11.52 (firmware)
Command interpretor v11.52 (firmware)
Electrode material :
Initial state :
Electrolyte :
Comments :
Cable : special
Electrode surface area : 0.001 cm²
Characteristic mass : 0.001 g
Equivalent Weight : 0.000 g/eq.
Density : 0.000 g/cm3
Volume (V) : 0.001 cm³
Cycle Definition : Charge/Discharge alternance
Ei (V)              0.000
vs.                 Eoc
dE/dt               20.000
dE/dt unit          mV/s
E1 (V)              0.700
vs.                 Ref
Step percent        50
N                   10
E range min (V)     -1.000
E range max (V)     1.000
I Range             Auto
I Range min         Unset
I Range max         Unset
I Range init        Unset
Bandwidth           8
E2 (V)              0.000
vs.                 Ref
nc cycles           2
Reverse Scan        1
Ef (V)              0.000
vs.                 Eoc

mode	ox/red	error	control changes	counter inc.	time/s	control/V	Ewe/V	<I>/mA	cycle number	(Q-Qo)/C	I Range	step time/s	P/W
2	1	0	0	0	0.000000000000000E+000	0.173836	0.173357	0.000242829	1	0.0000000E+000	43	0.000000000000000E+000	4.20962e-08
2	1	0	1	0	0.3387	0.180607	0.180485	0.000319739	1	9.74417e-08	43	0.3249	5.7708e-08
2	1	0	1	0	0.6885	0.187604	0.187437	0.000361393	1	2.17177e-07	43	0.6747	6.77383e-08
2	1	0	1	0	1.0383	0.194601	0.194479	0.000387452	1	3.4814e-07	43	1.0245	7.53512e-08
2	1	0	1	0	1.3882	0.201597	0.201493	0.000409648	1	4.88018e-07	43	1.3744	8.25414e-08
2	1	0	1	0	1.738	0.208594	0.208458	0.000434459	1	6.36512e-07	43	1.7242	9.05664e-08
2	1	0	1	0	2.0878	0.215591	0.215491	0.000458905	1	7.93143e-07	43	2.074	9.889e-08
2	1	0	1	0	2.4376	0.222586	0.222368	0.00048759	1	9.58222e-07	43	2.4238	1.08424e-07
2	1	0	1	0	2.7875	0.229584	0.229475	0.000510412	1	1.13255e-06	43	2.7737	1.17127e-07
2	1	0	1	0	3.1373	0.236581	0.2363	0.000545352	1	1.31671e-06	43	3.1235	1.28867e-07
2	1	0	1	0	3.4872	0.243578	0.243224	0.000574294	1	1.51173e-06	43	3.4734	1.39682e-07
2	1	0	1	0	3.837	0.250574	0.250262	0.00061088	1	1.71911e-06	43	3.8232	1.5288e-07
2	1	0	1	0	4.1868	0.257571	0.257223	0.000651028	1	1.94016e-06	43	4.173	1.6746e-07
2	1	0	1	0	4.5366	0.264567	0.26437	0.000702234	1	2.1768e-06	43	4.5228	1.8565e-07
2	1	0	1	0	4.8865	0.271564	0.271437	0.000758906	1	2.43155e-06	43	4.8727	2.05995e-07
2	1	0	1	0	5.2363	0.27856	0.278187	0.000820338	1	2.7069e-06	43	5.2225	2.28208e-07
2	1	0	1	0	5.5862	0.285559	0.285318	0.000896705	1	3.00609e-06	43	5.5724	2.55846e-07
2	1	0	1	0	5.936	0.292554	0.292272	0.000984686	1	3.33304e-06	43	5.9222	2.87796e-07
2	1	0	1	0	6.2858	0.29955	0.299271	0.00107812	1	3.6923e-06	43	6.272	3.2265e-07
2	1	0	1	0	6.6656	0.307147	0.306805	0.0012074	1	4.12515e-06	42	6.6518	3.70438e-07
2	1	0	1	0	7.0155	0.314143	0.314293	0.00134389	1	4.57167e-06	42	7.0017	4.22376e-07
2	1	0	1	0	7.3653	0.32114	0.320881	0.00151584	1	5.07171e-06	42	7.3515	4.86402e-07
2	1	0	1	0	7.7151	0.328137	0.327875	0.00171806	1	5.63605e-06	42	7.7013	5.63307e-07
2	1	0	1	0	8.065	0.335133	0.335015	0.00195375	1	6.2767e-06	42	8.0512	6.54537e-07
2	1	0	1	0	8.4148	0.34213	0.341968	0.00223468	1	7.00915e-06	42	8.401	7.64189e-07
2	1	0	1	0	8.7646	0.349127	0.349078	0.00258194	1	7.8513e-06	42	8.7508	9.01301e-07
2	1	0	1	0	9.1144	0.356122	0.355926	0.00300325	1	8.82668e-06	42	9.1006	1.06894e-06
2	1	0	1	0	9.4643	0.36312	0.362607	0.00351136	1	9.96353e-06	42	9.4505	1.27324e-06
2	1	0	1	0	9.8141	0.370117	0.369853	0.0041264	1	1.12957e-05	42	9.8003	1.52616e-06
2	1	0	1	0	10.164	0.377114	0.376809	0.00486446	1	1.28654e-05	42	10.1502	1.83297e-06
2	1	0	1	0	10.5138	0.38411	0.383877	0.00576853	1	1.4722e-05	42	10.5	2.21441e-06
2	1	0	1	0	10.8636	0.391107	0.390862	0.00685515	1	1.69256e-05	42	10.8498	2.67942e-06
2	1	0	1	0	11.2134	0.398102	0.397847	0.00816786	1	1.95467e-05	42	11.1996	3.24956e-06
2	1	0	1	0	11.5633	0.4051	0.404894	0.00972316	1	2.26695e-05	42	11.5495	3.93685e-06
2	1	0	1	0	11.9431	0.412696	0.41244	0.0116801	1	2.67357e-05	41	11.9293	4.81734e-06
2	1	0	1	0	12.2929	0.419693	0.419667	0.0138584	1	3.12226e-05	41	12.2791	5.81593e-06
2	1	0	1	0	12.6428	0.426689	0.42633	0.0163774	1	3.65298e-05	41	12.629	6.9822e-06
2	1	0	1	0	12.9926	0.433686	0.433321	0.0192191	1	4.27715e-05	41	12.9788	8.32803e-06
2	1	0	1	0	13.3424	0.440683	0.440379	0.0224841	1	5.00789e-05	41	13.3286	9.90151e-06
2	1	0	1	0	13.6923	0.447679	0.447386	0.0262894	1	5.86201e-05	41	13.6785	1.17615e-05
2	1	0	1	0	14.0421	0.454676	0.454356	0.030699	1	6.85951e-05	41	14.0283	1.39483e-05
2	1	0	1	0	14.3919	0.461673	0.461385	0.0358409	1	8.02374e-05	41	14.3781	1.65365e-05
2	1	0	1	0	14.7418	0.468669	0.468334	0.0417272	1	9.38046e-05	41	14.728	1.95422e-05
2	1	0	1	0	15.0916	0.475666	0.475325	0.0483258	1	0.000109553	41	15.0778	2.29704e-05
2	1	0	1	0	15.4414	0.482663	0.482179	0.05564	1	0.000127739	41	15.4276	2.68285e-05
2	1	0	1	0	15.7913	0.489659	0.489227	0.0634648	1	0.000148577	41	15.7775	3.10487e-05
2	1	0	1	0	16.1411	0.496656	0.49662	0.0714968	1	0.000172202	41	16.1273	3.55067e-05
2	1	0	1	0	16.4909	0.503653	0.503177	0.0793964	1	0.000198625	41	16.4771	3.99504e-05
2	1	0	1	0	16.8408	0.510649	0.510513	0.0863451	1	0.000227674	41	16.827	4.40803e-05
2	1	0	1	0	17.1906	0.517646	0.517316	0.091614	1	0.00025888	41	17.1768	4.73934e-05
2	1	0	1	0	17.5404	0.524643	0.524476	0.0944384	1	0.00029152	41	17.5266	4.95307e-05
2	1	0	1	0	17.8902	0.531638	0.531472	0.0946503	1	0.000324689	41	17.8764	5.0304e-05
2	1	0	1	0	18.2401	0.538636	0.538383	0.0926013	1	0.000357514	41	18.2263	4.9855e-05
2	1	0	1	0	18.5899	0.545632	0.545408	0.0892329	1	0.000389349	41	18.5761	4.86683e-05
2	1	0	1	0	18.9398	0.55263	0.55233	0.0853058	1	0.000419897	41	18.926	4.7117e-05
2	1	0	1	0	19.2896	0.559626	0.55911	0.0815211	1	0.000449083	41	19.2758	4.55793e-05
2	1	0	1	0	19.6394	0.566622	0.566348	0.0780739	1	0.000477	41	19.6256	4.4217e-05
2	1	0	1	0	19.9892	0.573619	0.573361	0.0749709	1	0.000503776	41	19.9754	4.29854e-05
2	1	0	1	0	20.3391	0.580616	0.58069	0.0723578	1	0.000529559	41	20.3253	4.20174e-05
2	1	0	1	0	20.6889	0.587612	0.587362	0.0700365	1	0.000554462	41	20.6751	4.11368e-05
2	1	0	1	0	21.0387	0.594609	0.59435	0.0680221	1	0.000578611	41	21.0249	4.04289e-05
2	1	0	1	0	21.3886	0.601606	0.601445	0.0662655	1	0.000602104	41	21.3748	3.98551e-05
2	1	0	1	0	21.7384	0.608602	0.608475	0.0647091	1	0.000625016	41	21.7246	3.93738e-05
2	1	0	1	0	22.0882	0.615599	0.615395	0.0634068	1	0.000647428	41	22.0744	3.90202e-05
2	1	0	1	0	22.4381	0.622596	0.62227	0.0621718	1	0.000669412	41	22.4243	3.86876e-05
2	1	0	1	0	22.7879	0.629592	0.629442	0.0612317	1	0.00069101	41	22.7741	3.85418e-05
2	1	0	1	0	23.1377	0.636589	0.636331	0.0603309	1	0.000712285	41	23.1239	3.83904e-05
2	1	0	1	0	23.4876	0.643586	0.643264	0.0596248	1	0.000733286	41	23.4738	3.83545e-05
2	1	0	1	0	23.8374	0.650582	0.650154	0.0590275	1	0.000754054	41	23.8236	3.8377e-05
2	1	0	1	0	24.1872	0.657579	0.657313	0.0585988	1	0.000774628	41	24.1734	3.85178e-05
2	1	0	1	0	24.5371	0.664576	0.664445	0.0581704	1	0.00079506	41	24.5233	3.86511e-05
2	1	0	1	0	24.8869	0.671572	0.671414	0.0579058	1	0.000815372	41	24.8731	3.88788e-05
2	1	0	1	0	25.2367	0.678569	0.678412	0.0577676	1	0.000835608	41	25.2229	3.91902e-05
2	1	0	1	0	25.5866	0.685565	0.685257	0.0576711	1	0.000855809	41	25.5728	3.95195e-05
2	1	0	1	0	25.9364	0.692562	0.692122	0.0577087	1	0.000876	41	25.9226	3.99415e-05
2	1	0	1	0	26.2862	0.699559	0.699317	0.057855	1	0.000896218	41	26.2724	4.0459e-05
2	1	0	1	0	26.5966	0.694211	0.694049	0.0367684	1	0.000909543	41	26.5828	2.5519e-05
2	1	0	1	0	26.9465	0.687215	0.686995	0.0328527	1	0.000921632	41	26.9327	2.25696e-05
2	1	0	1	0	27.2963	0.680218	0.680025	0.0303969	1	0.00093265	41	27.2825	2.06707e-05
2	1	0	1	0	27.6461	0.673221	0.672934	0.0285515	1	0.000942932	41	27.6323	1.92133e-05
2	1	0	1	0	27.996	0.666225	0.665841	0.0270782	1	0.00095264	41	27.9822	1.80298e-05
2	1	0	1	0	28.3458	0.659228	0.658953	0.0258431	1	0.000961877	41	28.332	1.70294e-05
2	1	0	1	0	28.6956	0.652231	0.652084	0.0247786	1	0.000970719	41	28.6818	1.61577e-05
2	1	0	1	0	29.0455	0.645235	0.645067	0.0238728	1	0.000979216	41	29.0317	1.53996e-05
2	1	0	1	0	29.3953	0.638238	0.638055	0.0230372	1	0.000987402	41	29.3815	1.4699e-05
2	1	0	1	0	29.7451	0.631242	0.630918	0.022242	1	0.000995306	41	29.7313	1.40329e-05
2	1	0	1	0	30.095	0.624245	0.623797	0.0215326	1	0.00100295	41	30.0812	1.3432e-05
2	1	0	1	0	30.4448	0.617248	0.61685	0.0207911	1	0.00101034	41	30.431	1.2825e-05
2	1	0	1	0	30.7946	0.610252	0.610084	0.0201071	1	0.00101748	41	30.7808	1.2267e-05
2	1	0	1	0	31.1445	0.603255	0.603042	0.0193796	1	0.00102438	41	31.1307	1.16867e-05
2	1	0	1	0	31.4943	0.596258	0.596021	0.0186384	1	0.00103102	41	31.4805	1.11089e-05
2	1	0	1	0	31.8441	0.589262	0.589021	0.0178536	1	0.00103739	41	31.8303	1.05162e-05
2	1	0	1	0	32.194	0.582265	0.581944	0.0170179	1	0.00104348	41	32.1802	9.90345e-06
2	1	0	1	0	32.5438	0.575268	0.575022	0.0160233	1	0.00104925	41	32.53	9.21372e-06
2	1	0	1	0	32.8936	0.568272	0.568124	0.0149924	1	0.00105467	41	32.8798	8.51751e-06
2	1	0	1	0	33.2435	0.561275	0.560797	0.0138048	1	0.0010597	41	33.2297	7.74169e-06
2	1	0	1	0	33.5933	0.554278	0.553782	0.0124324	1	0.00106427	41	33.5795	6.88483e-06
2	1	0	1	0	33.9431	0.547282	0.547069	0.0108923	1	0.00106834	41	33.9293	5.95886e-06
2	1	0	1	0	34.293	0.540285	0.539935	0.00918257	1	0.00107184	41	34.2792	4.95799e-06
2	1	0	1	0	34.6428	0.533288	0.532942	0.00721904	1	0.0010747	41	34.629	3.84733e-06
2	1	0	1	0	34.9926	0.526292	0.526114	0.0050559	1	0.00107683	41	34.9788	2.65998e-06
2	1	0	1	0	35.3724	0.518695	0.518415	0.00251458	1	0.00107828	42	35.3586	1.3036e-06
2	1	0	1	0	35.7223	0.511699	0.511342	2.30684e-05	1	0.00107873	42	35.7085	1.17959e-08
2	0	0	1	0	36.0721	0.504702	0.504652	-0.00254614	1	0.00107828	42	0.3248	-1.28491e-06
2	0	0	1	0	36.4219	0.497705	0.497448	-0.00514527	1	0.00107694	42	0.6746	-2.55951e-06
2	0	0	1	0	36.7718	0.490709	0.490374	-0.00769313	1	0.00107469	42	1.0245	-3.77251e-06
2	0	0	1	0	37.1216	0.483712	0.483582	-0.0101089	1	0.00107157	42	1.3743	-4.88849e-06
2	0	0	1	0	37.5014	0.476116	0.475811	-0.0124832	1	0.00106727	41	1.7541	-5.93965e-06
2	0	0	1	0	37.8512	0.46912	0.46893	-0.0144567	1	0.00106253	41	2.1039	-6.7792e-06
2	0	0	1	0	38.2011	0.462122	0.461989	-0.0162007	1	0.00105714	41	2.4538	-7.48456e-06
2	0	0	1	0	38.5509	0.455126	0.454825	-0.0176227	1	0.0010512	41	2.8036	-8.01524e-06
2	0	0	1	0	38.9008	0.448128	0.447868	-0.0187775	1	0.00104481	41	3.1535	-8.40982e-06
2	0	0	1	0	39.2506	0.441133	0.44088	-0.0196376	1	0.00103806	41	3.5033	-8.65783e-06
2	0	0	1	0	39.6004	0.434136	0.433758	-0.0202674	1	0.00103105	41	3.8531	-8.79116e-06
2	0	0	1	0	39.9502	0.427139	0.426742	-0.020654	1	0.00102387	41	4.2029	-8.81394e-06
2	0	0	1	0	40.3001	0.420143	0.419819	-0.0208504	1	0.00101658	41	4.5528	-8.75338e-06
2	0	0	1	0	40.6499	0.413146	0.412932	-0.0208765	1	0.00100926	41	4.9026	-8.6206e-06
2	0	0	1	0	40.9997	0.406149	0.405698	-0.0207554	1	0.00100196	41	5.2524	-8.42043e-06
2	0	0	1	0	41.3496	0.399153	0.398877	-0.0205217	1	0.000994713	41	5.6023	-8.18562e-06
2	0	0	1	0	41.6994	0.392156	0.391734	-0.0202226	1	0.000987563	41	5.9521	-7.92187e-06
2	0	0	1	0	42.0492	0.385159	0.384835	-0.0198369	1	0.000980533	41	6.3019	-7.63396e-06
2	0	0	1	0	42.3991	0.378163	0.377988	-0.0194332	1	0.00097364	41	6.6518	-7.34549e-06
2	0	0	1	0	42.7489	0.371166	0.370991	-0.0189982	1	0.0009669	41	7.0016	-7.04815e-06
2	0	0	1	0	43.0987	0.364169	0.364166	-0.0185257	1	0.000960319	41	7.3514	-6.74644e-06
2	0	0	1	0	43.4486	0.357173	0.35689	-0.0180605	1	0.000953899	41	7.7013	-6.44559e-06
2	0	0	1	0	43.7984	0.350176	0.349832	-0.0175702	1	0.000947647	41	8.0511	-6.14662e-06
2	0	0	1	0	44.1482	0.34318	0.342897	-0.0171078	1	0.000941559	41	8.4009	-5.86619e-06
2	0	0	1	0	44.4981	0.336183	0.336088	-0.0166498	1	0.000935633	41	8.7508	-5.5958e-06
2	0	0	1	0	44.8479	0.329186	0.328915	-0.0161852	1	0.000929869	41	9.1006	-5.32356e-06
2	0	0	1	0	45.1977	0.32219	0.321686	-0.0157303	1	0.000924262	41	9.4504	-5.0602e-06
2	0	0	1	0	45.5476	0.315193	0.314793	-0.0153119	1	0.000918808	41	9.8003	-4.82006e-06
2	0	0	1	0	45.8974	0.308196	0.308121	-0.0148741	1	0.000913506	41	10.1501	-4.58302e-06
2	0	0	1	0	46.2472	0.3012	0.300784	-0.0144535	1	0.000908352	41	10.4999	-4.34738e-06
2	0	0	1	0	46.5971	0.294203	0.293863	-0.0140328	1	0.00090334	41	10.8498	-4.12371e-06
2	0	0	1	0	46.9469	0.287206	0.287092	-0.0136748	1	0.00089847	41	11.1996	-3.92591e-06
2	0	0	1	0	47.2967	0.28021	0.279987	-0.0132858	1	0.000893735	41	11.5494	-3.71985e-06
2	0	0	1	0	47.6466	0.273213	0.272929	-0.0129156	1	0.00088913	41	11.8993	-3.52505e-06
2	0	0	1	0	47.9964	0.266216	0.265964	-0.0125441	1	0.000884655	41	12.2491	-3.33628e-06
2	0	0	1	0	48.3462	0.25922	0.258989	-0.0121998	1	0.000880304	41	12.5989	-3.1596e-06
2	0	0	1	0	48.6961	0.252223	0.251933	-0.0118707	1	0.00087607	41	12.9488	-2.9906e-06
2	0	0	1	0	49.0459	0.245226	0.245032	-0.0115461	1	0.000871953	41	13.2986	-2.82916e-06
2	0	0	1	0	49.3957	0.23823	0.237876	-0.0112414	1	0.000867946	41	13.6484	-2.67405e-06
2	0	0	1	0	49.7456	0.231233	0.230961	-0.0109543	1	0.000864045	41	13.9983	-2.53002e-06
2	0	0	1	0	50.0954	0.224237	0.223948	-0.0106446	1	0.000860246	41	14.3481	-2.38383e-06
2	0	0	1	0	50.4452	0.21724	0.216892	-0.010394	1	0.000856546	41	14.6979	-2.25437e-06
2	0	0	1	0	50.795	0.210245	0.209993	-0.0100921	1	0.00085294	41	15.0477	-2.11928e-06
2	0	0	1	0	51.1449	0.203247	0.202824	-0.00983609	1	0.000849425	41	15.3976	-1.99499e-06
2	0	0	1	0	51.4947	0.19625	0.196144	-0.00961694	1	0.000845998	41	15.7474	-1.88631e-06
2	0	0	1	0	51.8446	0.189252	0.189157	-0.00939284	1	0.000842654	41	16.0973	-1.77673e-06
2	0	0	1	0	52.1944	0.182257	0.181923	-0.00913293	1	0.000839392	41	16.4471	-1.66149e-06
2	0	0	1	0	52.5442	0.17526	0.174891	-0.00892866	1	0.000836207	41	16.7969	-1.56154e-06
2	0	0	1	0	52.894	0.168263	0.1681	-0.00872191	1	0.000833097	41	17.1467	-1.46616e-06
2	0	0	1	0	53.2439	0.161267	0.160979	-0.00850007	1	0.000830058	41	17.4966	-1.36833e-06
2	0	0	1	0	53.5937	0.15427	0.15405	-0.00832738	1	0.000827089	41	17.8464	-1.28283e-06
2	0	0	1	0	53.9435	0.147273	0.147165	-0.00814333	1	0.000824186	41	18.1962	-1.19841e-06
2	0	0	1	0	54.2934	0.140277	0.140013	-0.0079481	1	0.000821347	41	18.5461	-1.11284e-06
2	0	0	1	0	54.6432	0.13328	0.133005	-0.00777628	1	0.000818571	41	18.8959	-1.03429e-06
2	0	0	1	0	54.993	0.126283	0.125998	-0.00760896	1	0.000815854	41	19.2457	-9.58716e-07
2	0	0	1	0	55.3429	0.119287	0.118975	-0.00742347	1	0.000813195	41	19.5956	-8.83207e-07
2	0	0	1	0	55.6927	0.11229	0.112036	-0.00728861	1	0.000810592	41	19.9454	-8.1659e-07
2	0	0	1	0	56.0425	0.105293	0.105023	-0.00712923	1	0.000808043	41	20.2952	-7.48736e-07
2	0	0	1	0	56.3924	0.0982968	0.0978109	-0.00698741	1	0.000805543	41	20.6451	-6.83445e-07
2	0	0	1	0	56.7422	0.0913002	0.0908558	-0.00683011	1	0.000803095	41	20.9949	-6.20556e-07
2	0	0	1	0	57.092	0.0843036	0.0840014	-0.00670936	1	0.000800695	41	21.3447	-5.63596e-07
2	0	0	1	0	57.4419	0.0773069	0.077116	-0.00656715	1	0.00079834	41	21.6946	-5.06432e-07
2	0	0	1	0	57.7917	0.0703103	0.0699832	-0.00645203	1	0.00079603	41	22.0444	-4.51534e-07
2	0	0	1	0	58.1415	0.0633136	0.0630558	-0.00634173	1	0.000793763	41	22.3942	-3.99883e-07
2	0	0	1	0	58.4914	0.056317	0.0559357	-0.00619504	1	0.000791536	41	22.7441	-3.46524e-07
2	0	0	1	0	58.8412	0.0493203	0.0490397	-0.00609247	1	0.000789349	41	23.0939	-2.98773e-07
2	0	0	1	0	59.191	0.0423237	0.0419981	-0.00600779	1	0.000787199	41	23.4437	-2.52316e-07
2	0	0	1	0	59.5409	0.035327	0.0348861	-0.0059032	1	0.000785085	41	23.7936	-2.05939e-07
2	0	0	1	0	59.8907	0.0283304	0.028098	-0.00580142	1	0.000783005	41	24.1434	-1.63008e-07
2	0	0	1	0	60.2405	0.0213337	0.0213155	-0.00571506	1	0.000780958	41	24.4932	-1.21819e-07
2	0	0	1	0	60.5904	0.0143371	0.0140723	-0.00560891	1	0.000778942	41	24.8431	-7.89304e-08
2	0	0	1	0	60.9402	0.00734043	0.00714833	-0.00555876	1	0.000776953	41	25.1929	-3.97358e-08
2	0	0	1	0	61.29	0.000343779	0.000183227	-0.00548402	1	0.000774993	41	25.5427	-1.00482e-09
2	0	0	1	1	61.5954	0.00579117	0.0057133	-0.00469343	1	0.000773515	41	25.8481	-2.6815e-08
2	0	0	1	1	61.9753	0.0133875	0.0132587	-0.00430159	1	0.000771827	42	26.228	-5.70333e-08
2	0	0	1	1	62.3251	0.0203842	0.0201904	-0.00409363	1	0.00077036	42	26.5778	-8.26519e-08
2	0	0	1	1	62.6749	0.0273808	0.0272391	-0.00392415	1	0.000768959	42	26.9276	-1.06891e-07
2	0	0	1	1	63.0248	0.0343775	0.0341323	-0.00377672	1	0.000767613	42	27.2775	-1.28908e-07
2	0	0	1	1	63.3746	0.0413741	0.0411957	-0.00363925	1	0.000766317	42	27.6273	-1.49921e-07
2	0	0	1	1	63.7244	0.0483708	0.0482611	-0.00351868	1	0.000765066	42	27.9771	-1.69815e-07
2	0	0	1	1	64.0743	0.0553674	0.0551055	-0.00340051	1	0.000763856	42	28.327	-1.87387e-07
2	0	0	1	1	64.4241	0.0623641	0.0623495	-0.00329491	1	0.000762686	42	28.6768	-2.05436e-07
2	0	0	1	1	64.7739	0.0693607	0.0691991	-0.00319046	1	0.000761553	42	29.0266	-2.20777e-07
2	0	0	1	1	65.1238	0.0763578	0.0760623	-0.00309492	1	0.000760454	42	29.3765	-2.35407e-07
2	0	0	1	1	65.4736	0.083354	0.0831167	-0.00300291	1	0.00075939	42	29.7263	-2.49592e-07
2	0	0	1	1	65.8234	0.0903507	0.0900473	-0.00291187	1	0.000758357	42	30.0761	-2.62206e-07
2	0	0	1	1	66.1732	0.097346	0.0969884	-0.00281871	1	0.000757355	42	30.4259	-2.73382e-07
2	0	0	1	1	66.5231	0.104344	0.10406	-0.00274024	1	0.000756384	42	30.7758	-2.85149e-07
2	0	0	1	1	66.8729	0.111341	0.111083	-0.00265911	1	0.000755441	42	31.1256	-2.95381e-07
2	0	0	1	1	67.2228	0.118339	0.118196	-0.00257299	1	0.000754527	42	31.4755	-3.04116e-07
2	0	0	1	1	67.5726	0.125334	0.125065	-0.00249645	1	0.00075364	42	31.8253	-3.12219e-07
2	0	0	1	1	67.9224	0.132331	0.13217	-0.00242016	1	0.000752781	42	32.1751	-3.19872e-07
2	0	0	1	1	68.2722	0.139327	0.138967	-0.00234878	1	0.000751947	42	32.5249	-3.26401e-07
2	0	0	1	1	68.6221	0.146324	0.146339	-0.00227143	1	0.000751139	42	32.8748	-3.32398e-07
2	0	0	1	1	68.9719	0.15332	0.153055	-0.00220822	1	0.000750357	42	33.2246	-3.3798e-07
2	0	0	1	1	69.3217	0.160317	0.160012	-0.00213285	1	0.000749599	42	33.5744	-3.41281e-07
2	0	0	1	1	69.6716	0.167314	0.166958	-0.00205964	1	0.000748864	42	33.9243	-3.43874e-07
2	0	0	1	1	69.9814	0.173511	0.173512	-0.00200832	2	0.000748234	42	34.2341	-3.48467e-07
2	0	0	1	1	70.3313	0.180507	0.180313	-0.00194376	2	0.000747544	42	34.584	-3.50486e-07
2	0	0	1	1	70.6811	0.187504	0.187263	-0.00187985	2	0.000746878	42	34.9338	-3.52027e-07
2	0	0	1	1	71.0309	0.194501	0.194312	-0.00181478	2	0.000746233	42	35.2836	-3.52634e-07
2	0	0	1	1	71.3808	0.201497	0.201363	-0.00175093	2	0.000745611	42	35.6335	-3.52572e-07
2	0	0	1	1	71.7306	0.208494	0.207998	-0.00168771	2	0.000745011	42	35.9833	-3.5104e-07
2	0	0	1	1	72.0804	0.215491	0.215388	-0.00162722	2	0.000744433	42	36.3331	-3.50484e-07
2	0	0	1	1	72.4302	0.222486	0.222204	-0.00156077	2	0.000743876	42	36.6829	-3.4681e-07
2	0	0	1	1	72.7801	0.229484	0.229025	-0.00150523	2	0.00074334	42	37.0328	-3.44735e-07
2	0	0	1	1	73.1299	0.236481	0.236263	-0.00143946	2	0.000742826	42	37.3826	-3.40091e-07
2	0	0	1	1	73.4798	0.243478	0.2432	-0.00137778	2	0.000742334	42	37.7325	-3.35075e-07
2	0	0	1	1	73.8296	0.250474	0.250215	-0.00131231	2	0.000741864	42	38.0823	-3.28359e-07
2	0	0	1	1	74.1794	0.257471	0.257251	-0.00124911	2	0.000741416	42	38.4321	-3.21334e-07
2	0	0	1	1	74.5292	0.264466	0.264224	-0.00117859	2	0.000740991	42	38.7819	-3.11412e-07
2	0	0	1	1	74.8791	0.271464	0.271282	-0.00111262	2	0.00074059	42	39.1318	-3.01833e-07
2	0	0	1	1	75.2289	0.27846	0.278191	-0.00103333	2	0.000740216	42	39.4816	-2.87463e-07
2	0	0	1	1	75.5788	0.285459	0.285334	-0.000954442	2	0.000739868	42	39.8315	-2.72335e-07
2	0	0	1	1	75.9286	0.292454	0.292366	-0.000870851	2	0.00073955	42	40.1813	-2.54607e-07
2	0	0	1	1	76.2784	0.29945	0.299316	-0.000768793	2	0.000739265	42	40.5311	-2.30112e-07
2	0	0	1	1	76.6282	0.306447	0.306355	-0.000660332	2	0.000739016	42	40.8809	-2.02296e-07
2	0	0	1	1	76.9781	0.313444	0.313249	-0.00053768	2	0.000738807	42	41.2308	-1.68428e-07
2	0	0	1	1	77.3579	0.32104	0.320788	-0.00032759	2	0.000738628	43	41.6106	-1.05087e-07
2	0	0	1	1	77.7077	0.328037	0.327731	-0.000225777	2	0.000738521	43	41.9604	-7.39941e-08
2	0	0	1	1	78.0576	0.335033	0.3347	-3.38784e-05	2	0.000738475	43	42.3103	-1.13391e-08
2	1	0	1	1	78.4074	0.34203	0.341577	0.000180881	2	0.0007385	43	0.2499	6.17847e-08
2	1	0	1	1	78.7572	0.349027	0.348784	0.000435662	2	0.000738607	43	0.5997	1.51952e-07
2	1	0	1	1	79.1071	0.356023	0.355664	0.000742991	2	0.000738812	43	0.9496	2.64255e-07
2	1	0	1	1	79.4719	0.36332	0.363098	0.00118014	2	0.000739151	43	1.3144	4.28506e-07
2	1	0	1	1	79.8367	0.370616	0.370443	0.00157468	2	0.00073964	42	1.6792	5.8333e-07
2	1	0	1	1	80.1865	0.377613	0.377446	0.00210135	2	0.000740282	42	2.029	7.93147e-07
2	1	0	1	1	80.5364	0.38461	0.384336	0.00273076	2	0.000741126	42	2.3789	1.04953e-06
2	1	0	1	1	80.8862	0.391606	0.391158	0.00349785	2	0.000742213	42	2.7287	1.36821e-06
2	1	0	1	1	81.236	0.398603	0.398465	0.00441073	2	0.000743592	42	3.0785	1.75752e-06
2	1	0	1	1	81.5859	0.4056	0.405588	0.00552443	2	0.000745326	42	3.4284	2.24064e-06
2	1	0	1	1	81.9357	0.412596	0.412198	0.0068426	2	0.000747484	42	3.7782	2.8205e-06
2	1	0	1	1	82.2855	0.419593	0.419342	0.00845062	2	0.000750153	42	4.128	3.5437e-06
2	1	0	1	1	82.6354	0.42659	0.426316	0.010364	2	0.000753437	42	4.4779	4.41836e-06
2	1	0	1	1	83.0152	0.434186	0.433925	0.0128084	2	0.000757836	41	4.8577	5.55788e-06
2	1	0	1	1	83.365	0.441183	0.441169	0.0155671	2	0.000762811	41	5.2075	6.86774e-06
2	1	0	1	1	83.7148	0.448178	0.447874	0.0188151	2	0.000768835	41	5.5573	8.42677e-06
2	1	0	1	1	84.0647	0.455176	0.454985	0.0226319	2	0.000776093	41	5.9072	1.02972e-05
2	1	0	1	1	84.4145	0.462172	0.461739	0.0270137	2	0.000784785	41	6.257	1.24733e-05
2	1	0	1	1	84.7644	0.46917	0.468971	0.0320834	2	0.00079513	41	6.6069	1.50462e-05
2	1	0	1	1	85.1142	0.476166	0.475974	0.0377362	2	0.000807341	41	6.9567	1.79615e-05
2	1	0	1	1	85.464	0.483162	0.482846	0.0440005	2	0.000821642	41	7.3065	2.12455e-05
2	1	0	1	1	85.8138	0.490159	0.489768	0.0507277	2	0.00083822	41	7.6563	2.48448e-05
2	1	0	1	1	86.1637	0.497156	0.497003	0.0577583	2	0.000857214	41	8.0062	2.87061e-05
2	1	0	1	1	86.5135	0.504152	0.5042	0.0646892	2	0.000878661	41	8.356	3.26163e-05
2	1	0	1	1	86.8633	0.511149	0.511028	0.0710661	2	0.000902449	41	8.7058	3.63168e-05
2	1	0	1	1	87.2132	0.518146	0.517807	0.0763445	2	0.0009283	41	9.0557	3.95317e-05
2	1	0	1	1	87.563	0.525142	0.524839	0.079818	2	0.000955684	41	9.4055	4.18916e-05
2	1	0	1	1	87.9128	0.532139	0.531897	0.0812118	2	0.000983929	41	9.7553	4.31963e-05
2	1	0	1	1	88.2627	0.539136	0.538872	0.080661	2	0.00101231	41	10.1052	4.3466e-05
2	1	0	1	1	88.6125	0.546132	0.545844	0.0786275	2	0.00104021	41	10.455	4.29183e-05
2	1	0	1	1	88.9623	0.553129	0.552867	0.0758061	2	0.00106725	41	10.8048	4.19107e-05
2	1	0	1	1	89.3122	0.560126	0.559816	0.0727959	2	0.00109326	41	11.1547	4.07523e-05
2	1	0	1	1	89.662	0.567122	0.567003	0.0698348	2	0.00111821	41	11.5045	3.95965e-05
2	1	0	1	1	90.0118	0.574119	0.573894	0.0671349	2	0.00114217	41	11.8543	3.85283e-05
2	1	0	1	1	90.3617	0.581115	0.580828	0.064705	2	0.00116524	41	12.2042	3.75825e-05
2	1	0	1	1	90.7115	0.588112	0.588057	0.0625981	2	0.00118752	41	12.554	3.68113e-05
2	1	0	1	1	91.0613	0.595109	0.594815	0.0606948	2	0.00120909	41	12.9038	3.61021e-05
2	1	0	1	1	91.4112	0.602105	0.601917	0.0590929	2	0.00123005	41	13.2537	3.5569e-05
2	1	0	1	1	91.761	0.609102	0.608875	0.0576046	2	0.00125046	41	13.6035	3.5074e-05
2	1	0	1	1	92.1108	0.616099	0.615765	0.056311	2	0.00127039	41	13.9533	3.46743e-05
2	1	0	1	1	92.4607	0.623095	0.622751	0.0551932	2	0.0012899	41	14.3032	3.43716e-05
2	1	0	1	1	92.8105	0.630092	0.630014	0.0541223	2	0.00130904	41	14.653	3.40978e-05
2	1	0	1	1	93.1603	0.637089	0.636802	0.0533826	2	0.00132785	41	15.0028	3.39941e-05
2	1	0	1	1	93.5102	0.644085	0.643776	0.0525739	2	0.00134639	41	15.3527	3.38458e-05
2	1	0	1	1	93.86	0.651082	0.650811	0.051963	2	0.00136469	41	15.7025	3.38181e-05
2	1	0	1	1	94.2098	0.658079	0.657832	0.0514355	2	0.00138278	41	16.0523	3.38359e-05
2	1	0	1	1	94.5596	0.665074	0.664789	0.0510337	2	0.00140071	41	16.4021	3.39266e-05
2	1	0	1	1	94.9095	0.672072	0.671862	0.0507732	2	0.00141853	41	16.752	3.41126e-05
2	1	0	1	1	95.2593	0.679069	0.678792	0.0506369	2	0.00143626	41	17.1018	3.43719e-05
2	1	0	1	1	95.6092	0.686065	0.685787	0.0505129	2	0.00145396	41	17.4517	3.46411e-05
2	1	0	1	1	95.959	0.693062	0.692647	0.050577	2	0.00147165	41	17.8015	3.5032e-05
2	1	0	1	1	96.3001	0.699885	0.69962	0.0507995	2	0.00148895	41	18.1426	3.55403e-05
2	1	0	1	1	96.6192	0.693712	0.693418	0.0305417	2	0.00150031	41	18.4617	2.11781e-05
2	1	0	1	1	96.9691	0.686715	0.686365	0.027277	2	0.00151035	41	18.8116	1.8722e-05
2	1	0	1	1	97.3189	0.679718	0.679461	0.0252814	2	0.0015195	41	19.1614	1.71777e-05
2	1	0	1	1	97.6687	0.672722	0.672458	0.0237635	2	0.00152804	41	19.5112	1.598e-05
2	1	0	1	1	98.0186	0.665725	0.665558	0.0225676	2	0.00153613	41	19.8611	1.50201e-05
2	1	0	1	1	98.3684	0.658728	0.658443	0.0215356	2	0.00154381	41	20.2109	1.418e-05
2	1	0	1	1	98.7182	0.651732	0.651459	0.0207037	2	0.00155117	41	20.5607	1.34876e-05
2	1	0	1	1	99.068	0.644737	0.644562	0.0198648	2	0.00155825	41	20.9105	1.28041e-05
2	1	0	1	1	99.4179	0.637738	0.637558	0.019142	2	0.00156506	41	21.2604	1.22041e-05
2	1	0	1	1	99.7677	0.630742	0.630409	0.0184958	2	0.00157163	41	21.6102	1.16599e-05
2	1	0	1	1	100.118	0.623745	0.623192	0.0178582	2	0.00157797	41	21.9601	1.11291e-05
2	1	0	1	1	100.467	0.616748	0.616359	0.0171736	2	0.00158408	41	22.3099	1.05851e-05
2	1	0	1	1	100.817	0.609752	0.609466	0.0165567	2	0.00158997	41	22.6597	1.00908e-05
2	1	0	1	1	101.167	0.602756	0.602555	0.0159025	2	0.00159563	41	23.0095	9.58213e-06
2	1	0	1	1	101.517	0.595758	0.59523	0.0152109	2	0.00160106	41	23.3594	9.054e-06
2	1	0	1	1	101.867	0.588762	0.588527	0.0144143	2	0.00160622	41	23.7092	8.48323e-06
2	1	0	1	1	102.217	0.581764	0.581632	0.013582	2	0.00161111	41	24.0591	7.89969e-06
2	1	0	1	1	102.566	0.574769	0.574342	0.0126518	2	0.00161568	41	24.4089	7.26649e-06
2	1	0	1	1	102.916	0.567772	0.567452	0.0115496	2	0.00161991	41	24.7587	6.55383e-06
2	1	0	1	1	103.266	0.560775	0.560349	0.010361	2	0.00162374	41	25.1085	5.80579e-06
2	1	0	1	1	103.616	0.553779	0.553564	0.00903652	2	0.00162713	41	25.4584	5.00229e-06
2	1	0	1	1	103.966	0.546782	0.54628	0.00753416	2	0.00163001	41	25.8082	4.11576e-06
2	1	0	1	1	104.315	0.539785	0.539459	0.005793	2	0.00163233	41	26.158	3.12508e-06
2	1	0	1	1	104.695	0.532189	0.532107	0.00374936	2	0.00163414	42	26.5379	1.99506e-06
2	1	0	1	1	105.045	0.525192	0.524889	0.00164396	2	0.00163508	42	26.8877	8.62896e-07
2	0	0	1	1	105.395	0.518196	0.517863	-0.000567684	2	0.00163527	42	0.05	-2.93983e-07
2	0	0	1	1	105.745	0.511199	0.510871	-0.00285321	2	0.00163467	42	0.3999	-1.45762e-06
2	0	0	1	1	106.095	0.504202	0.503829	-0.00521516	2	0.00163325	42	0.7497	-2.62755e-06
2	0	0	1	1	106.444	0.497206	0.496999	-0.00755732	2	0.00163101	42	1.0995	-3.75598e-06
2	0	0	1	1	106.794	0.490209	0.489677	-0.00981814	2	0.00162797	42	1.4494	-4.80772e-06
2	0	0	1	1	107.174	0.482613	0.482401	-0.0120547	2	0.0016238	41	1.8292	-5.81521e-06
2	0	0	1	1	107.524	0.475616	0.475476	-0.0139836	2	0.00161922	41	2.179	-6.64884e-06
2	0	0	1	1	107.874	0.468619	0.468292	-0.015679	2	0.00161401	41	2.5288	-7.34234e-06
2	0	0	1	1	108.224	0.461623	0.461206	-0.0171397	2	0.00160824	41	2.8787	-7.90494e-06
2	0	0	1	1	108.573	0.454626	0.454407	-0.0183412	2	0.00160201	41	3.2285	-8.33437e-06
2	0	0	1	1	108.923	0.447629	0.447444	-0.0192732	2	0.0015954	41	3.5783	-8.62369e-06
2	0	0	1	1	109.273	0.440633	0.440296	-0.0199689	2	0.00158851	41	3.9282	-8.79223e-06
2	0	0	1	1	109.623	0.433636	0.433402	-0.0204691	2	0.00158141	41	4.278	-8.87137e-06
2	0	0	1	1	109.973	0.426639	0.426067	-0.0207361	2	0.00157418	41	4.6278	-8.83495e-06
2	0	0	1	1	110.323	0.419643	0.419358	-0.0208581	2	0.00156687	41	4.9777	-8.74701e-06
2	0	0	1	1	110.672	0.412646	0.412388	-0.0208436	2	0.00155956	41	5.3275	-8.59565e-06
2	0	0	1	1	111.022	0.40565	0.405523	-0.0206931	2	0.00155228	41	5.6773	-8.39152e-06
2	0	0	1	1	111.372	0.398653	0.39837	-0.0204432	2	0.00154506	41	6.0272	-8.14398e-06
2	0	0	1	1	111.722	0.391656	0.391375	-0.0201255	2	0.00153794	41	6.377	-7.87663e-06
2	0	0	1	1	112.072	0.38466	0.384067	-0.0197695	2	0.00153093	41	6.7268	-7.59282e-06
2	0	0	1	1	112.422	0.377663	0.377139	-0.019391	2	0.00152406	41	7.0767	-7.31309e-06
2	0	0	1	1	112.771	0.370666	0.370499	-0.0189659	2	0.00151733	41	7.4265	-7.02684e-06
2	0	0	1	1	113.121	0.36367	0.363537	-0.0185138	2	0.00151074	41	7.7763	-6.73045e-06
2	0	0	1	1	113.471	0.356673	0.356434	-0.0181238	2	0.00150431	41	8.1262	-6.45995e-06
2	0	0	1	1	113.821	0.349676	0.349512	-0.0176637	2	0.00149804	41	8.476	-6.1737e-06
2	0	0	1	1	114.171	0.34268	0.34251	-0.017232	2	0.00149192	41	8.8258	-5.90212e-06
2	0	0	1	1	114.521	0.335685	0.335495	-0.0167746	2	0.00148595	41	9.1756	-5.62781e-06
2	0	0	1	1	114.87	0.328686	0.32833	-0.0163643	2	0.00148013	41	9.5255	-5.37291e-06
2	0	0	1	1	115.22	0.32169	0.321426	-0.0159266	2	0.00147446	41	9.8753	-5.11922e-06
2	0	0	1	1	115.57	0.314693	0.314585	-0.0155082	2	0.00146894	41	10.2252	-4.87865e-06
2	0	0	1	1	115.92	0.307697	0.307587	-0.0150899	2	0.00146356	41	10.575	-4.64146e-06
2	0	0	1	1	116.27	0.3007	0.300267	-0.0146937	2	0.00145832	41	10.9248	-4.41203e-06
2	0	0	1	1	116.62	0.293704	0.293329	-0.014335	2	0.00145322	41	11.2746	-4.20488e-06
2	0	0	1	1	116.969	0.286707	0.286376	-0.0139129	2	0.00144826	41	11.6245	-3.98433e-06
2	0	0	1	1	117.319	0.27971	0.279396	-0.0135817	2	0.00144342	41	11.9743	-3.79467e-06
2	0	0	1	1	117.669	0.272711	0.272453	-0.0132211	2	0.00143871	41	12.3242	-3.60213e-06
2	0	0	1	1	118.019	0.265717	0.26556	-0.0128738	2	0.00143413	41	12.674	-3.41876e-06
2	0	0	1	1	118.369	0.25872	0.258456	-0.0125378	2	0.00142966	41	13.0238	-3.24046e-06
2	0	0	1	1	118.719	0.251723	0.251492	-0.0122173	2	0.00142531	41	13.3736	-3.07255e-06
2	0	0	1	1	119.068	0.244727	0.244421	-0.0118939	2	0.00142107	41	13.7235	-2.90711e-06
2	0	0	1	1	119.418	0.23773	0.23759	-0.0116172	2	0.00141694	41	14.0733	-2.76014e-06
2	0	0	1	1	119.768	0.230733	0.230279	-0.0113045	2	0.0014129	41	14.4231	-2.60319e-06
2	0	0	1	1	120.118	0.223737	0.22334	-0.0110347	2	0.00140897	41	14.773	-2.4645e-06
2	0	0	1	1	120.468	0.21674	0.216453	-0.0107707	2	0.00140513	41	15.1228	-2.33135e-06
2	0	0	1	1	120.818	0.209743	0.209574	-0.0105093	2	0.00140139	41	15.4726	-2.20249e-06
2	0	0	1	1	121.167	0.202747	0.202736	-0.0102781	2	0.00139773	41	15.8225	-2.08375e-06
2	0	0	1	1	121.517	0.19575	0.195402	-0.0100276	2	0.00139416	41	16.1723	-1.95943e-06
2	0	0	1	1	121.867	0.188753	0.188767	-0.00981156	2	0.00139067	41	16.5221	-1.8521e-06
2	0	0	1	1	122.217	0.181757	0.181519	-0.00957397	2	0.00138726	41	16.872	-1.73786e-06
2	0	0	1	1	122.567	0.17476	0.174517	-0.00934896	2	0.00138393	41	17.2218	-1.63155e-06
2	0	0	1	1	122.917	0.167764	0.16743	-0.0091556	2	0.00138067	41	17.5716	-1.53293e-06
2	0	0	1	1	123.266	0.160767	0.160544	-0.00894051	2	0.00137748	41	17.9215	-1.43535e-06
2	0	0	1	1	123.616	0.15377	0.153501	-0.00877011	2	0.00137436	41	18.2713	-1.34622e-06
2	0	0	1	1	123.966	0.146774	0.146563	-0.00855998	2	0.00137131	41	18.6211	-1.25458e-06
2	0	0	1	1	124.316	0.139777	0.139758	-0.00838443	2	0.00136831	41	18.971	-1.17179e-06
2	0	0	1	1	124.666	0.13278	0.13259	-0.00821894	2	0.00136538	41	19.3208	-1.08975e-06
2	0	0	1	1	125.016	0.125784	0.125459	-0.00804416	2	0.00136252	41	19.6706	-1.00922e-06
2	0	0	1	1	125.365	0.118787	0.118545	-0.00788221	2	0.0013597	41	20.0205	-9.34399e-07
2	0	0	1	1	125.715	0.11179	0.111642	-0.00771971	2	0.00135695	41	20.3703	-8.61841e-07
2	0	0	1	1	126.065	0.104794	0.104589	-0.00755669	2	0.00135425	41	20.7201	-7.9035e-07
2	0	0	1	1	126.415	0.0977971	0.0974007	-0.0074263	2	0.0013516	41	21.07	-7.23326e-07
2	0	0	1	1	126.765	0.0908004	0.0906177	-0.00726651	2	0.001349	41	21.4198	-6.58475e-07
2	0	0	1	1	127.115	0.0838038	0.0835783	-0.00714741	2	0.00134645	41	21.7696	-5.97368e-07
2	0	0	1	1	127.464	0.0768071	0.0765298	-0.00703104	2	0.00134395	41	22.1195	-5.38084e-07
2	0	0	1	1	127.814	0.0698105	0.0696143	-0.00687546	2	0.00134149	41	22.4693	-4.7863e-07
2	0	0	1	1	128.164	0.0628138	0.0626108	-0.0067584	2	0.00133908	41	22.8191	-4.23149e-07
2	0	0	1	1	128.514	0.0558168	0.0557775	-0.00665595	2	0.0013367	41	23.169	-3.71252e-07
2	0	0	1	1	128.864	0.0488205	0.0484395	-0.00651091	2	0.00133437	41	23.5188	-3.15385e-07
2	0	0	1	1	129.214	0.0418239	0.0414608	-0.00641907	2	0.00133208	41	23.8686	-2.6614e-07
2	0	0	1	1	129.563	0.0348286	0.0344243	-0.00630966	2	0.00132982	41	24.2184	-2.17206e-07
2	0	0	1	1	129.913	0.0278306	0.0274679	-0.00621872	2	0.0013276	41	24.5683	-1.70815e-07
2	0	0	1	1	130.263	0.020834	0.0202807	-0.0061111	2	0.00132541	41	24.9181	-1.23938e-07
2	0	0	1	1	130.613	0.013836	0.0136006	-0.00604147	2	0.00132325	41	25.268	-8.21678e-08
2	0	0	1	1	130.963	0.00684067	0.00653484	-0.00593919	2	0.00132112	41	25.6178	-3.88116e-08
2	0	0	1	1	131.301	6.89109e-05	0.000254995	-0.00587601	2	0.00131909	41	25.9564	-1.49835e-09
2	0	0	1	0	131.618	0.00629093	0.00607717	-0.00504997	2	0.00131745	41	26.273	-3.06895e-08
2	0	0	1	0	131.968	0.0132876	0.0130504	-0.00477918	2	0.00131576	41	26.6229	-6.237e-08
2	0	0	1	0	132.318	0.0202842	0.0202509	-0.00457304	2	0.00131416	41	26.9727	-9.26083e-08
2	0	0	1	0	132.697	0.0278806	0.0275002	-0.00430095	2	0.00131249	42	27.3525	-1.18277e-07
2	0	0	1	0	133.047	0.034879	0.0345311	-0.00414397	2	0.00131101	42	27.7024	-1.43096e-07
2	0	0	1	0	133.397	0.0418739	0.0416986	-0.00401129	2	0.00130959	42	28.0522	-1.67265e-07
2	0	0	1	0	133.747	0.0488705	0.0487219	-0.00387976	2	0.00130821	42	28.402	-1.89029e-07
2	0	0	1	0	134.097	0.0558672	0.0555865	-0.00375314	2	0.00130687	42	28.7518	-2.08624e-07
2	0	0	1	0	134.447	0.0628638	0.0625683	-0.00364365	2	0.00130558	42	29.1017	-2.27977e-07
2	0	0	1	0	134.796	0.0698605	0.0695467	-0.00353433	2	0.00130433	42	29.4515	-2.45801e-07
2	0	0	1	0	135.146	0.0768571	0.0766091	-0.00342735	2	0.00130311	42	29.8013	-2.62566e-07
2	0	0	1	0	135.496	0.0838538	0.0836243	-0.0033302	2	0.00130193	42	30.1512	-2.78486e-07
2	0	0	1	0	135.846	0.0908504	0.0905918	-0.00323578	2	0.00130078	42	30.501	-2.93135e-07
2	0	0	1	0	136.196	0.0978471	0.0975304	-0.00314074	2	0.00129966	42	30.8508	-3.06318e-07
2	0	0	1	0	136.546	0.104844	0.104874	-0.00305305	2	0.00129858	42	31.2007	-3.20186e-07
2	0	0	1	0	136.895	0.11184	0.111506	-0.00297236	2	0.00129753	42	31.5505	-3.31437e-07
2	0	0	1	0	137.245	0.118837	0.118552	-0.0028774	2	0.00129651	42	31.9003	-3.41121e-07
2	0	0	1	0	137.595	0.125834	0.125663	-0.00279828	2	0.00129551	42	32.2502	-3.5164e-07
2	0	0	1	0	137.945	0.13283	0.1326	-0.00271066	2	0.00129455	42	32.6	-3.59433e-07
2	0	0	1	0	138.295	0.139827	0.139647	-0.00263887	2	0.00129362	42	32.9498	-3.68511e-07
2	0	0	1	0	138.645	0.146824	0.146765	-0.00255125	2	0.00129271	42	33.2997	-3.74434e-07
2	0	0	1	0	138.994	0.15382	0.15367	-0.00248799	2	0.00129183	42	33.6495	-3.82328e-07
2	0	0	1	0	139.344	0.160817	0.160389	-0.00240005	2	0.00129097	42	33.9993	-3.84941e-07
2	0	0	1	0	139.694	0.167814	0.167476	-0.00233481	2	0.00129015	42	34.3492	-3.91026e-07
2	0	0	1	0	140.004	0.174011	0.173901	-0.00227216	3	0.00128943	42	34.659	-3.95133e-07
2	0	0	1	0	140.354	0.181007	0.180666	-0.00219835	3	0.00128865	42	35.0088	-3.97167e-07
2	0	0	1	0	140.704	0.188004	0.187619	-0.00212486	3	0.0012879	42	35.3587	-3.98663e-07
2	0	0	1	0	141.053	0.195001	0.194694	-0.0020663	3	0.00128716	42	35.7085	-4.02296e-07
2	0	0	1	0	141.403	0.201999	0.201883	-0.00198705	3	0.00128646	42	36.0584	-4.01152e-07
2	0	0	1	0	141.753	0.208994	0.208547	-0.00192776	3	0.00128577	42	36.4082	-4.02028e-07
2	0	0	1	0	142.103	0.21599	0.215885	-0.00186076	3	0.00128511	42	36.758	-4.0171e-07
2	0	0	1	0	142.453	0.222987	0.222823	-0.00179478	3	0.00128447	42	37.1078	-3.9992e-07
2	0	0	1	0	142.803	0.229984	0.229881	-0.00172615	3	0.00128386	42	37.4577	-3.9681e-07
2	0	0	1	0	143.152	0.23698	0.236582	-0.00166077	3	0.00128327	42	37.8075	-3.92909e-07
2	0	0	1	0	143.502	0.243977	0.243347	-0.00159747	3	0.0012827	42	38.1573	-3.8874e-07
2	0	0	1	0	143.852	0.250974	0.250643	-0.00153048	3	0.00128215	42	38.5072	-3.83605e-07
2	0	0	1	0	144.202	0.25797	0.257804	-0.00146042	3	0.00128163	42	38.857	-3.76501e-07
2	0	0	1	0	144.552	0.264967	0.264751	-0.00139225	3	0.00128113	42	39.2068	-3.68599e-07
2	0	0	1	0	144.902	0.271964	0.271848	-0.00131809	3	0.00128066	42	39.5567	-3.58319e-07
2	0	0	1	0	145.251	0.27896	0.278872	-0.00124122	3	0.00128021	42	39.9065	-3.4614e-07
2	0	0	1	0	145.601	0.285957	0.285647	-0.00115921	3	0.00127979	42	40.2563	-3.31126e-07
2	0	0	1	0	145.951	0.292954	0.29268	-0.00106619	3	0.0012794	42	40.6062	-3.12053e-07
2	0	0	1	0	146.301	0.29995	0.299628	-0.000974839	3	0.00127905	42	40.956	-2.92089e-07
2	0	0	1	0	146.651	0.306947	0.306516	-0.000872258	3	0.00127873	42	41.3058	-2.67361e-07
2	0	0	1	0	147.001	0.313944	0.313653	-0.000750517	3	0.00127844	42	41.6557	-2.35402e-07
2	0	0	1	0	147.35	0.32094	0.320562	-0.000611283	3	0.0012782	42	42.0055	-1.95954e-07
2	0	0	1	0	147.7	0.327937	0.327777	-0.000462362	3	0.00127802	42	42.3553	-1.51552e-07
2	0	0	1	0	148.08	0.335534	0.335366	-0.000277853	3	0.00127787	43	42.7352	-9.31822e-08
2	0	0	1	0	148.43	0.34253	0.342127	-6.09451e-05	3	0.00127781	43	43.085	-2.0851e-08
2	1	0	1	0	148.78	0.349526	0.349136	0.00017597	3	0.00127783	43	0.2249	6.14377e-08
2	1	0	1	0	149.13	0.356523	0.356396	0.000463313	3	0.00127794	43	0.5747	1.65123e-07
2	1	0	1	0	149.479	0.36352	0.36339	0.000801523	3	0.00127816	43	0.9246	2.91265e-07
2	1	0	1	0	149.859	0.371116	0.370789	0.00123033	3	0.00127854	42	1.3044	4.56193e-07
2	1	0	1	0	150.209	0.378113	0.3779	0.00172831	3	0.00127906	42	1.6542	6.53126e-07
2	1	0	1	0	150.559	0.385109	0.384975	0.00230561	3	0.00127976	42	2.0041	8.87601e-07
2	1	0	1	0	150.909	0.392106	0.391825	0.00301591	3	0.00128069	42	2.3539	1.18171e-06
2	1	0	1	0	151.259	0.399103	0.39889	0.00385979	3	0.00128189	42	2.7037	1.53963e-06
2	1	0	1	0	151.608	0.406099	0.405889	0.00488346	3	0.00128342	42	3.0536	1.98215e-06
2	1	0	1	0	151.958	0.413096	0.412761	0.00610731	3	0.00128533	42	3.4034	2.52086e-06
2	1	0	1	0	152.308	0.420093	0.419736	0.00759332	3	0.00128772	42	3.7532	3.18718e-06
2	1	0	1	0	152.658	0.427089	0.426859	0.00935996	3	0.00129068	42	4.1031	3.99538e-06
2	1	0	1	0	153.038	0.434686	0.434536	0.0115913	3	0.00129466	41	4.4829	5.03684e-06
2	1	0	1	0	153.388	0.441682	0.44114	0.0141668	3	0.00129918	41	4.8327	6.24953e-06
2	1	0	1	0	153.737	0.448679	0.448341	0.017177	3	0.00130466	41	5.1825	7.70115e-06
2	1	0	1	0	154.087	0.455676	0.455438	0.0206781	3	0.00131129	41	5.5324	9.4176e-06
2	1	0	1	0	154.437	0.462672	0.462475	0.024765	3	0.00131924	41	5.8822	1.14532e-05
2	1	0	1	0	154.787	0.469669	0.469122	0.0294375	3	0.00132872	41	6.232	1.38098e-05
2	1	0	1	0	155.137	0.476666	0.47628	0.0347267	3	0.00133994	41	6.5819	1.65396e-05
2	1	0	1	0	155.487	0.483662	0.483445	0.0405631	3	0.00135312	41	6.9317	1.961e-05
2	1	0	1	0	155.836	0.490659	0.490486	0.0469475	3	0.00136844	41	7.2815	2.30271e-05
2	1	0	1	0	156.186	0.497656	0.497293	0.0536966	3	0.00138606	41	7.6314	2.67029e-05
2	1	0	1	0	156.536	0.504652	0.504439	0.0605487	3	0.00140607	41	7.9812	3.05431e-05
2	1	0	1	0	156.886	0.511649	0.511365	0.0671141	3	0.00142844	41	8.331	3.43198e-05
2	1	0	1	0	157.236	0.518645	0.518554	0.0728642	3	0.00145298	41	8.6809	3.7784e-05
2	1	0	1	0	157.586	0.525642	0.525491	0.0772123	3	0.0014793	41	9.0307	4.05744e-05
2	1	0	1	0	157.935	0.532639	0.532359	0.0797048	3	0.00150682	41	9.3805	4.24315e-05
2	1	0	1	0	158.285	0.539635	0.539309	0.0801088	3	0.00153485	41	9.7304	4.32034e-05
2	1	0	1	0	158.635	0.546632	0.546465	0.0788401	3	0.00156271	41	10.0802	4.30834e-05
2	1	0	1	0	158.985	0.553629	0.553397	0.0764312	3	0.00158991	41	10.43	4.22968e-05
2	1	0	1	0	159.335	0.560625	0.560516	0.0735142	3	0.00161616	41	10.7799	4.12059e-05
2	1	0	1	0	159.685	0.567622	0.567525	0.0705209	3	0.00164136	41	11.1297	4.00223e-05
2	1	0	1	0	160.034	0.574619	0.57434	0.0676841	3	0.00166554	41	11.4795	3.88737e-05
2	1	0	1	0	160.384	0.581613	0.581293	0.0651206	3	0.00168877	41	11.8293	3.78541e-05
2	1	0	1	0	160.734	0.588612	0.588209	0.0628292	3	0.00171117	41	12.1792	3.69567e-05
2	1	0	1	0	161.084	0.595609	0.59528	0.0608168	3	0.0017328	41	12.529	3.62031e-05
2	1	0	1	0	161.434	0.602606	0.602371	0.0590785	3	0.00175378	41	12.8789	3.55872e-05
2	1	0	1	0	161.784	0.609602	0.60935	0.0574726	3	0.00177417	41	13.2287	3.5021e-05
2	1	0	1	0	162.133	0.616598	0.616332	0.0560706	3	0.00179404	41	13.5785	3.45581e-05
2	1	0	1	0	162.483	0.623594	0.623408	0.0548479	3	0.00181345	41	13.9283	3.41926e-05
2	1	0	1	0	162.833	0.630592	0.630278	0.053756	3	0.00183246	41	14.2782	3.38812e-05
2	1	0	1	0	163.183	0.637588	0.637235	0.052847	3	0.00185112	41	14.628	3.3676e-05
2	1	0	1	0	163.533	0.644586	0.644249	0.0520424	3	0.00186947	41	14.9779	3.35282e-05
2	1	0	1	0	163.883	0.651582	0.651168	0.0512988	3	0.00188755	41	15.3277	3.34041e-05
2	1	0	1	0	164.232	0.658578	0.658323	0.0506956	3	0.0019054	41	15.6775	3.33741e-05
2	1	0	1	0	164.582	0.665575	0.665272	0.0502385	3	0.00192306	41	16.0273	3.34223e-05
2	1	0	1	0	164.932	0.672572	0.672056	0.0498175	3	0.00194057	41	16.3772	3.34802e-05
2	1	0	1	0	165.282	0.679568	0.679461	0.0495847	3	0.00195796	41	16.727	3.36909e-05
2	1	0	1	0	165.632	0.686565	0.686343	0.0494248	3	0.00197529	41	17.0768	3.39224e-05
2	1	0	1	0	165.982	0.693562	0.693223	0.0494059	3	0.00199258	41	17.4267	3.42493e-05
2	1	0	0	0	166.303	0.699984	0.700032	0.0493396	3	0.0020085	41	17.7483	3.45393e-05
2	1	0	1	0	166.642	0.693212	0.692895	0.0295226	3	0.0020201	41	18.0869	2.04561e-05
2	1	0	1	0	166.992	0.686216	0.686007	0.0264682	3	0.00202982	41	18.4367	1.81574e-05
2	1	0	1	0	167.341	0.679218	0.6788	0.0246395	3	0.00203872	41	18.7866	1.67253e-05
2	1	0	1	0	167.691	0.672222	0.671911	0.0232091	3	0.00204706	41	19.1364	1.55945e-05
2	1	0	1	0	168.041	0.665224	0.664903	0.0220888	3	0.00205497	41	19.4863	1.46869e-05
2	1	0	1	0	168.391	0.658229	0.657907	0.0211508	3	0.0020625	41	19.8361	1.39153e-05
2	1	0	1	0	168.741	0.651232	0.651005	0.020287	3	0.00206972	41	20.1859	1.3207e-05
2	1	0	1	0	169.091	0.644235	0.643857	0.0195073	3	0.00207666	41	20.5357	1.25599e-05
2	1	0	1	0	169.44	0.637239	0.636963	0.0188582	3	0.00208336	41	20.8856	1.2012e-05
2	1	0	1	0	169.79	0.630242	0.630031	0.0181616	3	0.00208981	41	21.2354	1.14424e-05
2	1	0	1	0	170.14	0.623245	0.62293	0.0175318	3	0.00209604	41	21.5852	1.09211e-05
2	1	0	1	0	170.49	0.616249	0.615956	0.0169301	3	0.00210205	41	21.9351	1.04282e-05
2	1	0	1	0	170.84	0.609252	0.6091	0.0162568	3	0.00210783	41	22.2849	9.90204e-06
2	1	0	1	0	171.19	0.602255	0.602059	0.0155759	3	0.00211339	41	22.6347	9.37761e-06
2	1	0	1	0	171.539	0.595259	0.595077	0.0148326	3	0.00211869	41	22.9846	8.82656e-06
2	1	0	1	0	171.889	0.588262	0.587958	0.0140797	3	0.00212374	41	23.3344	8.2783e-06
2	1	0	1	0	172.239	0.581265	0.580835	0.0132262	3	0.0021285	41	23.6842	7.68226e-06
2	1	0	1	0	172.589	0.574269	0.574153	0.0122239	3	0.00213293	41	24.0341	7.0184e-06
2	1	0	1	0	172.939	0.567272	0.567159	0.0111328	3	0.00213701	41	24.3839	6.31409e-06
2	1	0	1	0	173.289	0.560276	0.560098	0.0098797	3	0.00214068	41	24.7337	5.5336e-06
2	1	0	1	0	173.638	0.553279	0.553041	0.00852221	3	0.0021439	41	25.0836	4.71314e-06
2	1	0	1	0	173.988	0.546282	0.546148	0.00697272	3	0.00214659	41	25.4334	3.80814e-06
2	1	0	1	0	174.338	0.539286	0.539028	0.00524533	3	0.00214872	41	25.7832	2.82738e-06
2	1	0	1	0	174.718	0.531688	0.531433	0.00317395	3	0.00215033	42	26.1631	1.68674e-06
2	1	0	1	0	175.068	0.524693	0.524575	0.00110265	3	0.00215108	42	26.5129	5.78422e-07
2	0	0	1	0	175.418	0.517696	0.517404	-0.00102612	3	0.00215109	42	0.1499	-5.30919e-07
2	0	0	1	0	175.767	0.510699	0.510507	-0.00329444	3	0.00215033	42	0.4997	-1.68183e-06
2	0	0	1	0	176.117	0.503703	0.503404	-0.00554612	3	0.00214879	42	0.8496	-2.79194e-06
2	0	0	1	0	176.467	0.496706	0.49638	-0.00776382	3	0.00214646	42	1.1994	-3.85381e-06
2	0	0	1	0	176.817	0.489709	0.489429	-0.00990407	3	0.00214337	42	1.5492	-4.84734e-06
2	0	0	1	0	177.197	0.482113	0.48188	-0.0119534	3	0.00213921	41	1.9291	-5.76011e-06
2	0	0	1	0	177.547	0.475116	0.474865	-0.0137375	3	0.00213469	41	2.2789	-6.52347e-06
2	0	0	1	0	177.896	0.46812	0.467892	-0.015306	3	0.00212958	41	2.6287	-7.16156e-06
2	0	0	1	0	178.246	0.461123	0.460783	-0.0166452	3	0.00212396	41	2.9786	-7.66982e-06
2	0	0	1	0	178.596	0.454126	0.453998	-0.0177365	3	0.00211793	41	3.3284	-8.05231e-06
2	0	0	1	0	178.946	0.44713	0.44697	-0.0185665	3	0.00211156	41	3.6782	-8.29867e-06
2	0	0	1	0	179.296	0.440133	0.439825	-0.0192018	3	0.00210492	41	4.0281	-8.44541e-06
2	0	0	1	0	179.646	0.433136	0.432817	-0.0196191	3	0.00209811	41	4.3779	-8.4915e-06
2	0	0	1	0	179.995	0.42614	0.425915	-0.0198675	3	0.00209118	41	4.7277	-8.46186e-06
2	0	0	1	0	180.345	0.419144	0.418675	-0.0199534	3	0.00208419	41	5.0775	-8.35398e-06
2	0	0	1	0	180.695	0.412146	0.411963	-0.0199361	3	0.00207719	41	5.4274	-8.21292e-06
2	0	0	1	0	181.045	0.40515	0.404835	-0.0197856	3	0.00207022	41	5.7772	-8.00992e-06
2	0	0	1	0	181.395	0.398152	0.397918	-0.0195473	3	0.00206331	41	6.1271	-7.77823e-06
2	0	0	1	0	181.745	0.391156	0.390717	-0.0192989	3	0.00205649	41	6.4769	-7.54043e-06
2	0	0	1	0	182.094	0.38416	0.383957	-0.0189589	3	0.00204978	41	6.8267	-7.27938e-06
2	0	0	1	0	182.444	0.377164	0.376853	-0.0185897	3	0.00204319	41	7.1765	-7.00559e-06
2	0	0	1	0	182.794	0.370167	0.369957	-0.0182316	3	0.00203672	41	7.5264	-6.7449e-06
2	0	0	1	0	183.144	0.36317	0.36293	-0.0178278	3	0.0020304	41	7.8762	-6.47027e-06
2	0	0	1	0	183.494	0.356171	0.355708	-0.0174371	3	0.00202421	41	8.2261	-6.20251e-06
2	0	0	1	0	183.844	0.349177	0.348928	-0.0170136	3	0.00201816	41	8.5759	-5.93651e-06
2	0	0	1	0	184.193	0.34218	0.341819	-0.0166255	3	0.00201226	41	8.9257	-5.68291e-06
2	0	0	1	0	184.543	0.335183	0.334858	-0.0162195	3	0.00200649	41	9.2755	-5.43124e-06
2	0	0	1	0	184.893	0.328187	0.327891	-0.0158266	3	0.00200087	41	9.6254	-5.18941e-06
2	0	0	1	0	185.243	0.32119	0.320919	-0.0154123	3	0.00199538	41	9.9752	-4.94608e-06
2	0	0	1	0	185.593	0.314193	0.313831	-0.0150275	3	0.00199003	41	10.325	-4.71609e-06
2	0	0	1	0	185.943	0.307197	0.306897	-0.0146629	3	0.00198482	41	10.6749	-4.5e-06
2	0	0	1	0	186.292	0.3002	0.299944	-0.0142933	3	0.00197974	41	11.0247	-4.28719e-06
2	0	0	1	0	186.642	0.293203	0.292994	-0.0138943	3	0.00197479	41	11.3745	-4.07094e-06
2	0	0	1	0	186.992	0.286207	0.285996	-0.0135351	3	0.00196997	41	11.7244	-3.871e-06
2	0	0	1	0	187.342	0.27921	0.278857	-0.0132072	3	0.00196527	41	12.0742	-3.68291e-06
2	0	0	1	0	187.692	0.272213	0.271892	-0.0128769	3	0.00196069	41	12.424	-3.50111e-06
2	0	0	1	0	188.042	0.265217	0.265197	-0.0125368	3	0.00195622	41	12.7739	-3.32473e-06
2	0	0	1	0	188.391	0.25822	0.257953	-0.0122275	3	0.00195187	41	13.1237	-3.15411e-06
2	0	0	1	0	188.741	0.251224	0.251027	-0.0119209	3	0.00194763	41	13.4735	-2.99247e-06
2	0	0	1	0	189.091	0.244227	0.243868	-0.0116337	3	0.00194349	41	13.8234	-2.83709e-06
2	0	0	1	0	189.441	0.23723	0.237145	-0.0113503	3	0.00193945	41	14.1732	-2.69166e-06
2	0	0	1	0	189.791	0.230234	0.229752	-0.0110654	3	0.00193551	41	14.523	-2.5423e-06
2	0	0	1	0	190.141	0.223237	0.222926	-0.0107977	3	0.00193166	41	14.8729	-2.4071e-06
2	0	0	1	0	190.49	0.21624	0.216125	-0.0105447	3	0.00192791	41	15.2227	-2.27897e-06
2	0	0	1	0	190.84	0.209244	0.209219	-0.0103045	3	0.00192424	41	15.5725	-2.1559e-06
2	0	0	1	0	191.19	0.202247	0.201849	-0.0100589	3	0.00192065	41	15.9224	-2.03037e-06
2	0	0	1	0	191.54	0.19525	0.194884	-0.00984953	3	0.00191715	41	16.2722	-1.91952e-06
2	0	0	1	0	191.89	0.188254	0.188004	-0.0096135	3	0.00191372	41	16.622	-1.80738e-06
2	0	0	1	0	192.24	0.181257	0.181312	-0.00941091	3	0.00191037	41	16.9719	-1.70631e-06
2	0	0	1	0	192.589	0.17426	0.17407	-0.00921749	3	0.00190709	41	17.3217	-1.60449e-06
2	0	0	1	0	192.939	0.167264	0.166924	-0.00901168	3	0.00190388	41	17.6715	-1.50426e-06
2	0	0	1	0	193.289	0.160269	0.160141	-0.00881417	3	0.00190073	41	18.0213	-1.41151e-06
2	0	0	1	0	193.639	0.153271	0.153114	-0.00863148	3	0.00189766	41	18.3712	-1.3216e-06
2	0	0	1	0	193.989	0.146274	0.146273	-0.00846679	3	0.00189464	41	18.721	-1.23846e-06
2	0	0	1	0	194.339	0.139276	0.138917	-0.00828092	3	0.00189169	41	19.0709	-1.15036e-06
2	0	0	1	0	194.688	0.132281	0.132085	-0.0081063	3	0.00188879	41	19.4207	-1.07072e-06
2	0	0	1	0	195.038	0.125284	0.124967	-0.00794651	3	0.00188596	41	19.7705	-9.9305e-07
2	0	0	1	0	195.388	0.118288	0.118069	-0.00778457	3	0.00188318	41	20.1203	-9.19119e-07
2	0	0	1	0	195.738	0.111291	0.111052	-0.00763078	3	0.00188045	41	20.4702	-8.47411e-07
2	0	0	1	0	196.088	0.104294	0.104129	-0.0075002	3	0.00187777	41	20.82	-7.80991e-07
2	0	0	1	0	196.438	0.0972955	0.0970002	-0.00735813	3	0.00187515	41	21.1699	-7.1374e-07
2	0	0	1	0	196.787	0.0903007	0.0899879	-0.0072111	3	0.00187257	41	21.5197	-6.48912e-07
2	0	0	1	0	197.137	0.083304	0.0829772	-0.00709649	3	0.00187004	41	21.8695	-5.88847e-07
2	0	0	1	0	197.487	0.0763074	0.07597	-0.0069659	3	0.00186755	41	22.2193	-5.29199e-07
2	0	0	1	0	197.837	0.0693107	0.0690811	-0.00682952	3	0.00186511	41	22.5692	-4.71791e-07
2	0	0	1	0	198.187	0.0623141	0.0620142	-0.00671357	3	0.00186271	41	22.919	-4.16337e-07
2	0	0	1	0	198.536	0.0553174	0.0550593	-0.00660495	3	0.00186035	41	23.2688	-3.63664e-07
2	0	0	1	0	198.886	0.0483208	0.0481643	-0.00649627	3	0.00185803	41	23.6187	-3.12888e-07
2	0	0	1	0	199.236	0.0413241	0.0411865	-0.00638321	3	0.00185575	41	23.9685	-2.62902e-07
2	0	0	1	0	199.586	0.0343275	0.0341358	-0.00628112	3	0.0018535	41	24.3183	-2.14411e-07
2	0	0	1	0	199.936	0.0273308	0.0270767	-0.00618726	3	0.00185129	41	24.6682	-1.67531e-07
2	0	0	1	0	200.286	0.0203342	0.0202449	-0.00609737	3	0.00184911	41	25.018	-1.23441e-07
2	0	0	1	0	200.635	0.0133376	0.0130171	-0.00598016	3	0.00184696	41	25.3678	-7.78442e-08
2	0	0	1	0	200.985	0.00634091	0.00591533	-0.00591306	3	0.00184484	41	25.7177	-3.49777e-08
2	0	0	0	1	201.302	1.89349e-05	-0.000561975	-0.00582026	3	0.00184295	41	26.0343	3.27084e-09
2	0	0	1	1	201.641	0.00679069	0.00653796	-0.00503576	3	0.0018412	41	26.3729	-3.29236e-08
2	0	0	1	1	201.99	0.013786	0.0133617	-0.00476585	3	0.00183952	41	26.7227	-6.36801e-08
2	0	0	1	1	202.34	0.020784	0.0206722	-0.00458822	3	0.00183792	41	27.0726	-9.48485e-08
2	0	0	1	1	202.72	0.0283803	0.0283684	-0.00429284	3	0.00183625	42	27.4524	-1.21781e-07
2	0	0	1	1	203.07	0.035377	0.0352316	-0.00414286	3	0.00183478	42	27.8022	-1.4596e-07
2	0	0	1	1	203.42	0.0423736	0.04226	-0.00400736	3	0.00183335	42	28.1521	-1.69351e-07
2	0	0	1	1	203.77	0.0493703	0.0492722	-0.00388176	3	0.00183198	42	28.5019	-1.91263e-07
2	0	0	1	1	204.119	0.0563669	0.0561336	-0.00375449	3	0.00183064	42	28.8517	-2.10753e-07
2	0	0	1	1	204.469	0.0633636	0.0630739	-0.00364796	3	0.00182935	42	29.2016	-2.30091e-07
2	0	0	1	1	204.819	0.0703602	0.0702925	-0.00353784	3	0.00182809	42	29.5514	-2.48683e-07
2	0	0	1	1	205.169	0.0773569	0.0770698	-0.00343502	3	0.00182687	42	29.9012	-2.64736e-07
2	0	0	1	1	205.519	0.0843535	0.0840652	-0.0033337	3	0.00182569	42	30.2511	-2.80249e-07
2	0	0	1	1	205.869	0.0913502	0.091229	-0.00324145	3	0.00182454	42	30.6009	-2.95715e-07
2	0	0	1	1	206.218	0.0983468	0.0981693	-0.00314806	3	0.00182342	42	30.9507	-3.09043e-07
2	0	0	1	1	206.568	0.105343	0.105023	-0.0030615	3	0.00182234	42	31.3006	-3.21527e-07
2	0	0	1	1	206.918	0.11234	0.112144	-0.0029696	3	0.00182128	42	31.6504	-3.33022e-07
2	0	0	1	1	207.268	0.119337	0.119183	-0.00288678	3	0.00182026	42	32.0002	-3.44054e-07
2	0	0	1	1	207.618	0.126333	0.126007	-0.00280178	3	0.00181926	42	32.3501	-3.53044e-07
2	0	0	1	1	207.968	0.13333	0.133025	-0.00272018	3	0.0018183	42	32.6999	-3.61852e-07
2	0	0	1	1	208.317	0.140327	0.140274	-0.00263946	3	0.00181736	42	33.0497	-3.70249e-07
2	0	0	1	1	208.667	0.147322	0.147226	-0.00256678	3	0.00181645	42	33.3995	-3.77898e-07
2	0	0	1	1	209.017	0.15432	0.154032	-0.00248341	3	0.00181557	42	33.7494	-3.82526e-07
2	0	0	1	1	209.367	0.161317	0.160848	-0.00241556	3	0.00181471	42	34.0992	-3.88537e-07
2	0	0	1	1	209.717	0.168314	0.168045	-0.0023358	3	0.00181388	42	34.4491	-3.9252e-07
2	0	0	1	1	209.935	0.172686	0.172766	-0.00230336	3	0.00181338	42	34.6669	-3.97942e-07