File: Python/Experiments/RDE/Dicarboxylferrocene/Data/240327-CVEIS-5mM_DiCaFerrocene-1M_NaCl-ReNeutralized-453p5mVvsRef-2000RPM-Ag_AgCl_BLF8-Au_RDE_Single_PEIS_C15.mpt
EC-Lab ASCII FILE
Nb header lines : 66

Potentio Electrochemical Impedance Spectroscopy

Run on channel : 15 (SN 19485)
User :
Electrode connection : standard
Potential control : Ewe
Ewe ctrl range : min = -1.00 V, max = 1.00 V
Ewe,I filtering : <None>
Safety Limits :
	Do not start on E overload
Channel : Floating
Acquisition started on : 03/27/2024 16:18:17.655
Loaded Setting File :  NONE
Saved on :
	File : 240327-CVEIS-5mM_DiCaFerrocene-1M_NaCl-ReNeutralized-453p5mVvsRef-2000RPM-Ag_AgCl_BLF8-Au_RDE_Single_PEIS_C15.mpr
	Directory : C:\Data\mathias\GoldElectrode\
	Host : 192.168.0.1
Device : VMP-300 (SN 0826)
Address : USB
EC-Lab for windows v11.52 (software)
Internet server v11.52 (firmware)
Command interpretor v11.52 (firmware)
Electrode material :
Initial state :
Electrolyte :
Comments :
Cable : special
Electrode surface area : 0.001 cm²
Characteristic mass : 0.001 g
Equivalent Weight : 0.000 g/eq.
Density : 0.000 g/cm3
Volume (V) : 0.001 cm³
Record EIS quality indicators
Cycle Definition : Charge/Discharge alternance
Mode                Single sine
E (V)               0.4535
vs.                 Ref
tE (h:m:s)          0:00:30.0000
record              0
dI                  0.000
unit dI             mA
dt (s)              0.000
fi                  400.000
unit fi             kHz
ff                  100.000
unit ff             mHz
Nd                  10
Points              per decade
spacing             Logarithmic
Va (mV)             5.0
pw                  0.10
Na                  3
corr                0
E range min (V)     -1.000
E range max (V)     1.000
I Range             Auto
Bandwidth           8
nc cycles           2
goto Ns'            0
nr cycles           0
inc. cycle          1

freq/Hz	Re(Z)/Ohm	-Im(Z)/Ohm	|Z|/Ohm	Phase(Z)/deg	time/s	<Ewe>/V	<I>/mA	Cs/µF	Cp/µF	cycle number	I Range	|Ewe|/V	|I|/A	Ns	(Q-Qo)/mA.h	THD Ewe/%	NSD Ewe/%	NSR Ewe/%	|Ewe h2|/V	|Ewe h3|/V	|Ewe h4|/V	|Ewe h5|/V	|Ewe h6|/V	|Ewe h7|/V	THD I/%	NSD I/%	NSR I/%	|I h2|/A	|I h3|/A	|I h4|/A	|I h5|/A	|I h6|/A	|I h7|/A	Re(Y)/Ohm-1	Im(Y)/Ohm-1	|Y|/Ohm-1	Phase(Y)/deg	Re(C)/nF	Im(C)/nF	|C|/nF	Phase(C)/deg	Re(M)	Im(M)	|M|	Phase(M)/deg	Re(Permittivity)	Im(Permittivity)	|Permittivity|	Phase(Permittivity)/deg	Re(Resistivity)/Ohm.cm	Im(Resistivity)/Ohm.cm	|Resistivity|/Ohm.cm	Phase(Resistivity)/deg	Re(Conductivity)/mS/cm	Im(Conductivity)/mS/cm	|Conductivity|/mS/cm	Phase(Conductivity)/deg	Tan(Delta)	Loss Angle(Delta)/deg	dq/mA.h
399996	11.047	3.0578	11.4624	-15.472	32.5035	0.453347	0.130691	0.130123	0.00926021	1	38	0.00495438	0.000432228	0	0.00125947	-1	-1	-1	0	0	0	0	0	0	-1	-1	-1	0	0	0	0	0	0	0.0840801	0.0232732	0.0872416	15.472	9.26021	33.4547	34.7127	-74.528	0.0000000E+000	0.0000000E+000	0.0000000E+000	74.528	0.0000000E+000	0.0000000E+000	0.0000000E+000	-74.528	0.0000000E+000	0.0000000E+000	0.0000000E+000	-15.472	0.0000000E+000	0.0000000E+000	0.0000000E+000	15.472	3.61274	74.528	0.00125947
252347	11.1851	2.11206	11.3828	-10.6931	34.7975	0.453341	0.130032	0.298617	0.0102809	1	38	0.00515538	0.000452911	0	0.00134129	-1	-1	-1	0	0	0	0	0	0	-1	-1	-1	0	0	0	0	0	0	0.0863265	0.0163009	0.0878521	10.6931	10.2809	54.4459	55.4081	-79.3069	0.0000000E+000	0.0000000E+000	0.0000000E+000	79.3069	0.0000000E+000	0.0000000E+000	0.0000000E+000	-79.3069	0.0000000E+000	0.0000000E+000	0.0000000E+000	-10.6931	0.0000000E+000	0.0000000E+000	0.0000000E+000	10.6931	5.29582	79.3069	4.11924e-05
159201	11.2585	1.68813	11.3844	-8.52754	37.0915	0.453346	0.130408	0.592202	0.0130216	1	38	0.00519711	0.000456513	0	0.00142394	-1	-1	-1	0	0	0	0	0	0	-1	-1	-1	0	0	0	0	0	0	0.0868686	0.0130253	0.0878397	8.52754	13.0216	86.8437	87.8145	-81.4725	0.0000000E+000	0.0000000E+000	0.0000000E+000	81.4725	0.0000000E+000	0.0000000E+000	0.0000000E+000	-81.4725	0.0000000E+000	0.0000000E+000	0.0000000E+000	-8.52754	0.0000000E+000	0.0000000E+000	0.0000000E+000	8.52754	6.66922	81.4725	4.09993e-05
100431	11.3934	1.55394	11.4989	-7.76663	39.3855	0.453352	0.130076	1.01981	0.0186242	1	38	0.00514538	0.000447467	0	0.00150665	1.23936	0.428201	22.8259	3.23542e-05	2.4766e-05	2.06867e-05	1.01046e-05	3.03999e-05	2.14732e-05	0.410714	0.155349	6.02076	1.25313e-06	6.10319e-07	3.21332e-07	6.99016e-07	6.2134e-07	5.60049e-07	0.0861671	0.0117523	0.0869649	7.76663	18.6242	136.551	137.816	-82.2334	0.0000000E+000	0.0000000E+000	0.0000000E+000	82.2334	0.0000000E+000	0.0000000E+000	0.0000000E+000	-82.2334	0.0000000E+000	0.0000000E+000	0.0000000E+000	-7.76663	0.0000000E+000	0.0000000E+000	0.0000000E+000	7.76663	7.33193	82.2334	4.07921e-05
63362.9	11.5493	1.75154	11.6814	-8.62362	41.6795	0.453354	0.129711	1.43405	0.0322416	1	38	0.00512319	0.000438578	0	0.00158919	1.13984	0.66253	22.8376	2.68986e-05	1.87485e-05	2.57986e-05	1.25308e-05	1.39325e-05	2.78167e-05	0.349189	0.159527	6.34814	6.49838e-07	5.25281e-07	6.11412e-07	1.95737e-07	6.1958e-07	8.34108e-07	0.0846386	0.0128361	0.0856064	8.62362	32.2417	212.595	215.026	-81.3764	0.0000000E+000	0.0000000E+000	0.0000000E+000	81.3764	0.0000000E+000	0.0000000E+000	0.0000000E+000	-81.3764	0.0000000E+000	0.0000000E+000	0.0000000E+000	-8.62362	0.0000000E+000	0.0000000E+000	0.0000000E+000	8.62362	6.59381	81.3764	4.12227e-05
39971.8	11.7593	2.14219	11.9528	-10.3244	43.9735	0.453354	0.129423	1.85869	0.0597012	1	38	0.00516996	0.00043253	0	0.00167031	1.4136	0.813589	22.8126	3.51119e-05	3.32035e-05	1.55415e-05	2.1726e-05	3.95322e-05	1.33302e-05	0.376181	0.090362	6.23242	8.57244e-07	7.36306e-07	5.21627e-07	6.27669e-07	4.87198e-07	3.28688e-07	0.0823076	0.014994	0.0836622	10.3244	59.7012	327.723	333.116	-79.6756	0.0000000E+000	0.0000000E+000	0.0000000E+000	79.6756	0.0000000E+000	0.0000000E+000	0.0000000E+000	-79.6756	0.0000000E+000	0.0000000E+000	0.0000000E+000	-10.3244	0.0000000E+000	0.0000000E+000	0.0000000E+000	10.3244	5.48938	79.6756	4.06343e-05
25219	12.0985	2.8242	12.4237	-13.1395	46.2695	0.453358	0.129296	2.23459	0.115474	1	38	0.00508229	0.000409079	0	0.00175194	1.1548	0.591594	23.1705	2.18756e-05	2.37785e-05	3.01293e-05	1.58529e-05	2.18484e-05	1.69328e-05	0.455942	0.161417	6.72364	1.14568e-06	7.42883e-07	4.60929e-07	4.19928e-07	5.77009e-07	6.96045e-07	0.0783838	0.0182974	0.0804911	13.1395	115.474	494.674	507.973	-76.8605	0.0000000E+000	0.0000000E+000	0.0000000E+000	76.8605	0.0000000E+000	0.0000000E+000	0.0000000E+000	-76.8605	0.0000000E+000	0.0000000E+000	0.0000000E+000	-13.1395	0.0000000E+000	0.0000000E+000	0.0000000E+000	13.1395	4.28386	76.8605	4.08667e-05
15912.6	12.6606	3.8007	13.2188	-16.7097	48.5635	0.45335	0.129367	2.63157	0.217549	1	38	0.00519253	0.000392814	0	0.00183403	1.15555	0.587291	22.9394	1.96906e-05	3.23767e-05	1.57335e-05	2.07309e-05	2.21777e-05	2.5618e-05	0.35158	0.205118	6.97619	3.94455e-07	3.67432e-07	4.63285e-07	4.67256e-07	7.28637e-07	4.81367e-07	0.0724554	0.021751	0.0756498	16.7097	217.549	724.684	756.634	-73.2903	0.0000000E+000	0.0000000E+000	0.0000000E+000	73.2903	0.0000000E+000	0.0000000E+000	0.0000000E+000	-73.2903	0.0000000E+000	0.0000000E+000	0.0000000E+000	-16.7097	0.0000000E+000	0.0000000E+000	0.0000000E+000	16.7097	3.33113	73.2903	4.08362e-05
10039.3	13.2916	5.29058	14.3059	-21.7044	50.7225	0.453348	0.129918	2.99648	0.409816	1	38	0.00546799	0.00038222	0	0.0019111	1.2772	0.693252	21.5705	4.02448e-05	2.30658e-05	2.48021e-05	2.45019e-05	1.80591e-05	2.30718e-05	0.424237	0.18546	7.00016	8.10986e-07	7.31432e-07	6.5711e-07	5.32441e-07	4.71968e-07	2.58604e-07	0.0649456	0.0258508	0.0699014	21.7044	409.816	1029.59	1108.15	-68.2956	0.0000000E+000	0.0000000E+000	0.0000000E+000	68.2956	0.0000000E+000	0.0000000E+000	0.0000000E+000	-68.2956	0.0000000E+000	0.0000000E+000	0.0000000E+000	-21.7044	0.0000000E+000	0.0000000E+000	0.0000000E+000	21.7044	2.51232	68.2956	3.58926e-05
6332.63	14.3921	7.38584	16.1766	-27.1663	52.9499	0.453211	0.128866	3.4028	0.709347	1	38	0.00539033	0.000333217	0	0.00198879	1.17853	0.461845	22.4719	9.69358e-06	1.72849e-05	4.28726e-05	5.54091e-06	2.54861e-05	2.67402e-05	0.630473	0.200468	8.20825	1.21198e-06	5.79668e-07	8.93983e-07	7.20606e-07	6.50959e-07	6.37641e-07	0.0549981	0.0282243	0.0618175	27.1663	709.347	1382.24	1553.63	-62.8337	0.0000000E+000	0.0000000E+000	0.0000000E+000	62.8337	0.0000000E+000	0.0000000E+000	0.0000000E+000	-62.8337	0.0000000E+000	0.0000000E+000	0.0000000E+000	-27.1663	0.0000000E+000	0.0000000E+000	0.0000000E+000	27.1663	1.94861	62.8337	3.65044e-05
3993.72	16.0169	10.2484	19.0151	-32.6131	55.3978	0.453206	0.128471	3.88853	1.12955	1	38	0.00509485	0.000267937	0	0.00207533	1.07403	0.859176	22.9237	7.50199e-06	2.68571e-05	1.25912e-05	2.90969e-05	2.27837e-05	1.44557e-05	0.619495	0.296746	10.1842	6.01134e-07	7.36307e-07	5.32352e-07	7.23973e-07	3.62438e-07	6.94719e-07	0.044298	0.0283441	0.0525899	32.6131	1129.55	1765.33	2095.78	-57.3869	0.0000000E+000	0.0000000E+000	0.0000000E+000	57.3869	0.0000000E+000	0.0000000E+000	0.0000000E+000	-57.3869	0.0000000E+000	0.0000000E+000	0.0000000E+000	-32.6131	0.0000000E+000	0.0000000E+000	0.0000000E+000	32.6131	1.56287	57.3869	3.96383e-05
2519.19	18.5513	13.9447	23.2079	-36.9317	57.6128	0.453241	0.129929	4.53053	1.63568	1	38	0.00503619	0.000217003	0	0.00215457	1.11682	0.670727	23.9047	2.54108e-05	1.8733e-05	1.64617e-05	1.93344e-05	2.0289e-05	2.98496e-05	0.712756	0.449538	12.8483	3.33361e-07	8.62762e-07	5.28397e-07	4.99623e-07	6.71942e-07	5.89517e-07	0.0344431	0.0258904	0.0430888	36.9317	1635.68	2176.01	2722.22	-53.0683	0.0000000E+000	0.0000000E+000	0.0000000E+000	53.0683	0.0000000E+000	0.0000000E+000	0.0000000E+000	-53.0683	0.0000000E+000	0.0000000E+000	0.0000000E+000	-36.9317	0.0000000E+000	0.0000000E+000	0.0000000E+000	36.9317	1.33034	53.0683	3.95108e-05
1589.49	22.3312	18.8469	29.2214	-40.1633	59.8238	0.453223	0.130264	5.31279	2.21004	1	38	0.00499294	0.000170866	0	0.00223382	1.21197	0.798496	23.8572	3.9481e-05	1.79688e-05	1.68743e-05	2.10747e-05	2.25058e-05	1.43688e-05	0.930613	0.543658	15.8621	3.88975e-07	2.50567e-07	5.06606e-07	8.87695e-07	5.82479e-07	7.1147e-07	0.0261524	0.0220718	0.0342215	40.1633	2210.04	2618.63	3426.58	-49.8367	0.0000000E+000	0.0000000E+000	0.0000000E+000	49.8367	0.0000000E+000	0.0000000E+000	0.0000000E+000	-49.8367	0.0000000E+000	0.0000000E+000	0.0000000E+000	-40.1633	0.0000000E+000	0.0000000E+000	0.0000000E+000	40.1633	1.18488	49.8367	3.95959e-05
1002.75	27.7591	24.6254	37.1076	-41.5766	62.2912	0.453241	0.135593	6.44531	2.83846	1	39	0.0052393	0.000141192	0	0.00232218	1.0732	0.60873	21.91	1.01954e-05	2.59026e-05	2.04187e-05	2.67255e-05	1.41566e-05	2.48873e-05	0.6018	0.273426	8.3991	6.28184e-07	1.728e-07	2.67093e-07	2.80039e-07	2.24842e-07	2.41464e-07	0.0201594	0.0178837	0.0269486	41.5766	2838.46	3199.67	4277.24	-48.4234	0.0000000E+000	0.0000000E+000	0.0000000E+000	48.4234	0.0000000E+000	0.0000000E+000	0.0000000E+000	-48.4234	0.0000000E+000	0.0000000E+000	0.0000000E+000	-41.5766	0.0000000E+000	0.0000000E+000	0.0000000E+000	41.5766	1.12725	48.4234	4.91604e-05
632.773	35.982	31.3522	47.7249	-41.0666	64.5044	0.453263	0.135603	8.02241	3.46218	1	39	0.0051073	0.000107015	0	0.00240491	1.05708	0.756658	21.4176	3.71813e-05	1.03153e-05	2.58958e-05	1.06257e-05	1.14473e-05	1.80498e-05	0.758254	0.439854	10.177	6.37523e-07	3.34792e-07	1.88019e-07	1.74077e-07	1.32903e-07	1.49738e-07	0.0157978	0.013765	0.0209534	41.0666	3462.18	3973.45	5270.2	-48.9334	0.0000000E+000	0.0000000E+000	0.0000000E+000	48.9334	0.0000000E+000	0.0000000E+000	0.0000000E+000	-48.9334	0.0000000E+000	0.0000000E+000	0.0000000E+000	-41.0666	0.0000000E+000	0.0000000E+000	0.0000000E+000	41.0666	1.14767	48.9334	4.14288e-05
399.106	46.1935	37.7331	59.6459	-39.2437	66.7202	0.453256	0.135715	10.5684	4.22955	1	39	0.00500011	8.38299e-05	0	0.00248747	0.87763	0.591535	21.7151	1.57129e-05	1.36193e-05	2.19342e-05	1.97688e-05	1.12074e-05	1.26765e-05	0.726336	0.365836	13.3724	3.10306e-07	3.18201e-07	1.90601e-07	9.40367e-08	3.01464e-07	1.49212e-07	0.0129843	0.0106063	0.0167656	39.2437	4229.55	5177.88	6685.77	-50.7563	0.0000000E+000	0.0000000E+000	0.0000000E+000	50.7563	0.0000000E+000	0.0000000E+000	0.0000000E+000	-50.7563	0.0000000E+000	0.0000000E+000	0.0000000E+000	-39.2437	0.0000000E+000	0.0000000E+000	0.0000000E+000	39.2437	1.22421	50.7563	4.13266e-05
251.853	58.9349	43.4823	73.2395	-36.42	68.9273	0.453258	0.135545	14.5332	5.12263	1	39	0.00494491	6.75169e-05	0	0.00256993	1.12883	0.689348	21.7159	1.34256e-05	2.6745e-05	2.6514e-05	2.17862e-05	1.83358e-05	1.72396e-05	1.2095	0.484612	16.22	3.95232e-07	3.81858e-07	2.67033e-07	3.52385e-07	1.75168e-07	1.43397e-07	0.0109871	0.00810627	0.0136538	36.42	5122.63	6943.1	8628.33	-53.58	0.0000000E+000	0.0000000E+000	0.0000000E+000	53.58	0.0000000E+000	0.0000000E+000	0.0000000E+000	-53.58	0.0000000E+000	0.0000000E+000	0.0000000E+000	-36.42	0.0000000E+000	0.0000000E+000	0.0000000E+000	36.42	1.35538	53.58	4.12035e-05
158.831	73.9154	48.0496	88.1604	-33.0264	71.1462	0.45326	0.135318	20.8543	6.19481	1	39	0.00492197	5.58298e-05	0	0.00265264	1.23577	0.55005	22.004	2.17946e-05	3.00693e-05	2.31388e-05	2.87161e-05	1.5396e-05	2.0741e-05	1.37077	0.793542	19.2867	5.92176e-07	3.47426e-07	1.72891e-07	1.91467e-07	1.25206e-07	1.1388e-07	0.00951017	0.00618219	0.011343	33.0264	6194.81	9529.58	11366.1	-56.9736	0.0000000E+000	0.0000000E+000	0.0000000E+000	56.9736	0.0000000E+000	0.0000000E+000	0.0000000E+000	-56.9736	0.0000000E+000	0.0000000E+000	0.0000000E+000	-33.0264	0.0000000E+000	0.0000000E+000	0.0000000E+000	33.0264	1.53832	56.9736	4.14987e-05
100.224	89.2856	52.4743	103.564	-30.4433	73.3523	0.453264	0.134814	30.2622	7.76921	1	39	0.00492227	4.75289e-05	0	0.00273477	1.16146	0.533138	21.8231	2.08786e-05	2.83931e-05	2.45305e-05	1.0707e-05	2.24601e-05	2.15195e-05	1.56546	0.71456	22.6213	4.62846e-07	2.84022e-07	1.47611e-07	2.44534e-07	2.22288e-07	2.75512e-07	0.00832464	0.0048925	0.00965588	30.4433	7769.21	13219.4	15333.4	-59.5567	0.0000000E+000	0.0000000E+000	0.0000000E+000	59.5567	0.0000000E+000	0.0000000E+000	0.0000000E+000	-59.5567	0.0000000E+000	0.0000000E+000	0.0000000E+000	-30.4433	0.0000000E+000	0.0000000E+000	0.0000000E+000	30.4433	1.70151	59.5567	4.11155e-05
63.2394	105.407	55.612	119.178	-27.8158	75.5163	0.453265	0.134679	45.2547	9.85396	1	39	0.00492015	4.12842e-05	0	0.00281464	1.04329	0.503512	22.3669	1.23932e-05	1.59189e-05	1.4325e-05	1.84687e-05	3.21964e-05	2.19904e-05	1.70526	0.638444	26.875	4.15161e-07	1.50016e-07	2.38951e-07	2.25903e-07	2.79437e-07	2.45978e-07	0.00742129	0.00391542	0.00839083	27.8158	9853.96	18677.2	21117.3	-62.1842	0.0000000E+000	0.0000000E+000	0.0000000E+000	62.1842	0.0000000E+000	0.0000000E+000	0.0000000E+000	-62.1842	0.0000000E+000	0.0000000E+000	0.0000000E+000	-27.8158	0.0000000E+000	0.0000000E+000	0.0000000E+000	27.8158	1.8954	62.1842	4.01454e-05
39.8851	120.637	59.7728	134.633	-26.3573	77.6503	0.453253	0.135274	66.7583	13.1585	1	39	0.00491572	3.65119e-05	0	0.00289402	1.10049	0.955449	21.8413	1.5728e-05	2.51228e-05	2.05001e-05	2.08599e-05	2.47444e-05	1.45774e-05	2.1783	0.926036	29.4991	4.09513e-07	1.98113e-07	4.47838e-07	2.05283e-07	2.26199e-07	2.21888e-07	0.00665543	0.00329761	0.00742758	26.3573	13158.6	26557.4	29638.5	-63.6427	0.0000000E+000	0.0000000E+000	0.0000000E+000	63.6427	0.0000000E+000	0.0000000E+000	0.0000000E+000	-63.6427	0.0000000E+000	0.0000000E+000	0.0000000E+000	-26.3573	0.0000000E+000	0.0000000E+000	0.0000000E+000	26.3573	2.01826	63.6427	3.97124e-05
25.1691	136.69	66.0433	151.808	-25.7881	79.7594	0.453269	0.134602	95.7467	18.1213	1	39	0.00491522	3.23778e-05	0	0.00297217	0.961644	0.552769	21.6044	1.85468e-05	1.42879e-05	1.7131e-05	2.18638e-05	1.5136e-05	1.62736e-05	1.46453	1.28653	33.0573	2.57054e-07	1.84023e-07	1.32346e-07	2.03807e-07	1.22187e-07	1.2411e-07	0.00593122	0.00286574	0.00658725	25.7881	18121.3	37505.7	41654	-64.2119	0.0000000E+000	0.0000000E+000	0.0000000E+000	64.2119	0.0000000E+000	0.0000000E+000	0.0000000E+000	-64.2119	0.0000000E+000	0.0000000E+000	0.0000000E+000	-25.7881	0.0000000E+000	0.0000000E+000	0.0000000E+000	25.7881	2.0697	64.2119	3.94353e-05
15.879	153.435	75.0033	170.786	-26.0507	82.1187	0.453208	0.135	133.633	25.7735	1	40	0.00492291	2.88251e-05	0	0.00305889	1.52905	0.858416	30.6294	2.91129e-05	2.56501e-05	2.87153e-05	2.24124e-05	2.45988e-05	3.13131e-05	1.00766	0.347802	6.71394	2.6507e-07	4.01795e-08	5.52776e-08	5.33291e-08	1.56059e-08	5.10242e-08	0.00526043	0.00257145	0.00585529	26.0507	25773.5	52725	58687.3	-63.9493	0.0000000E+000	0.0000000E+000	0.0000000E+000	63.9493	0.0000000E+000	0.0000000E+000	0.0000000E+000	-63.9493	0.0000000E+000	0.0000000E+000	0.0000000E+000	-26.0507	0.0000000E+000	0.0000000E+000	0.0000000E+000	26.0507	2.04571	63.9493	3.87682e-05
10.016	173.736	88.2064	194.845	-26.917	84.3484	0.45327	0.135054	180.146	36.9186	1	40	0.00492357	2.52691e-05	0	0.00314179	1.68802	0.732722	30.8539	1.83189e-05	3.40202e-05	3.14926e-05	4.31799e-05	2.80127e-05	2.80132e-05	1.01765	0.284811	7.48507	2.14538e-07	7.42322e-08	4.76985e-08	8.01176e-08	4.48128e-08	3.66319e-08	0.00457626	0.00232338	0.00513228	26.917	36918.6	72716.9	81552	-63.083	0.0000000E+000	0.0000000E+000	0.0000000E+000	63.083	0.0000000E+000	0.0000000E+000	0.0000000E+000	-63.083	0.0000000E+000	0.0000000E+000	0.0000000E+000	-26.917	0.0000000E+000	0.0000000E+000	0.0000000E+000	26.917	1.96966	63.083	3.98209e-05
6.31569	197.468	106.643	224.424	-28.3713	86.9375	0.453277	0.134918	236.303	53.3571	1	40	0.00491601	2.1905e-05	0	0.00323742	1.05783	0.345336	22.0484	3.10557e-05	1.87476e-05	1.38284e-05	2.31055e-05	1.82679e-05	9.40731e-06	0.81085	0.76633	6.20078	1.53329e-07	2.80687e-08	2.31253e-08	7.15351e-08	1.74639e-08	2.30182e-08	0.00392064	0.00211735	0.00445585	28.3713	53357.1	98800	112287	-61.6287	0.0000000E+000	0.0000000E+000	0.0000000E+000	61.6287	0.0000000E+000	0.0000000E+000	0.0000000E+000	-61.6287	0.0000000E+000	0.0000000E+000	0.0000000E+000	-28.3713	0.0000000E+000	0.0000000E+000	0.0000000E+000	28.3713	1.85167	61.6287	5.12192e-05
3.98597	231.586	130.277	265.715	-29.3596	90.4747	0.453273	0.134678	306.491	73.6755	1	40	0.00491056	1.84806e-05	0	0.00336921	1.05316	0.41485	15.0775	2.56655e-05	2.17576e-05	1.91747e-05	1.25078e-05	1.27713e-05	2.14413e-05	0.679603	1.75999	5.21515	1.06958e-07	3.62929e-08	2.77645e-08	2.46697e-08	2.363e-08	1.82483e-08	0.00328006	0.00184517	0.00376343	29.3596	73675.5	130969	150269	-60.6404	0.0000000E+000	0.0000000E+000	0.0000000E+000	60.6404	0.0000000E+000	0.0000000E+000	0.0000000E+000	-60.6404	0.0000000E+000	0.0000000E+000	0.0000000E+000	-29.3596	0.0000000E+000	0.0000000E+000	0.0000000E+000	29.3596	1.77764	60.6404	7.16992e-05
2.51368	286.121	150.062	323.085	-27.6756	95.5827	0.453273	0.134633	421.931	91.0223	1	40	0.00490791	1.51908e-05	0	0.00355887	0.710985	0.38816	11.9699	1.73317e-05	1.03478e-05	1.22348e-05	1.03484e-05	1.61668e-05	1.54166e-05	0.97554	2.22803	5.01131	1.09579e-07	6.913e-08	3.72648e-08	2.79598e-08	1.54849e-08	1.29627e-08	0.00274105	0.0014376	0.00309516	27.6756	91022.3	173551	195972	-62.3244	0.0000000E+000	0.0000000E+000	0.0000000E+000	62.3244	0.0000000E+000	0.0000000E+000	0.0000000E+000	-62.3244	0.0000000E+000	0.0000000E+000	0.0000000E+000	-27.6756	0.0000000E+000	0.0000000E+000	0.0000000E+000	27.6756	1.90669	62.3244	0.000104227
1.5871	349.913	155.889	383.067	-24.0134	103.213	0.453273	0.134235	643.28	106.532	1	40	0.00490373	1.28012e-05	0	0.00384358	0.573172	0.282923	9.34528	1.49909e-05	1.61038e-05	1.06633e-05	7.66359e-06	8.53511e-06	6.01526e-06	0.893959	1.66349	4.75336	7.99284e-08	6.35359e-08	4.05555e-08	1.94166e-08	1.09267e-08	6.07018e-09	0.00238457	0.00106235	0.00261051	24.0134	106532	239126	261783	-65.9866	0.0000000E+000	0.0000000E+000	0.0000000E+000	65.9866	0.0000000E+000	0.0000000E+000	0.0000000E+000	-65.9866	0.0000000E+000	0.0000000E+000	0.0000000E+000	-24.0134	0.0000000E+000	0.0000000E+000	0.0000000E+000	24.0134	2.24463	65.9866	0.000157153
1.00122	417.332	138.775	439.8	-18.3935	114.872	0.453252	0.133625	1145.46	114.049	1	40	0.00491061	1.11655e-05	0	0.00427609	0.382295	0.31543	7.09188	6.4068e-06	9.47624e-06	4.67109e-06	7.34564e-06	6.76997e-06	7.48924e-06	0.986293	1.56351	4.52368	6.33325e-08	5.59032e-08	2.81284e-08	4.40094e-08	2.42594e-08	1.37801e-08	0.0021576	0.000717464	0.00227376	18.3935	114049	342975	361440	-71.6065	0.0000000E+000	0.0000000E+000	0.0000000E+000	71.6065	0.0000000E+000	0.0000000E+000	0.0000000E+000	-71.6065	0.0000000E+000	0.0000000E+000	0.0000000E+000	-18.3935	0.0000000E+000	0.0000000E+000	0.0000000E+000	18.3935	3.00725	71.6065	0.000239998
0.631645	455.759	99.7368	466.545	-12.3438	132.874	0.45327	0.132919	2526.34	115.456	1	40	0.00490523	1.0514e-05	0	0.00493993	0.358648	0.142627	5.39465	4.50385e-06	8.79337e-06	3.28118e-06	8.2674e-06	5.23459e-06	7.60543e-06	1.39396	1.52373	3.82521	8.80577e-08	9.00082e-08	2.05248e-08	4.70709e-08	3.91934e-08	1.80922e-08	0.00209387	0.000458214	0.00214342	12.3438	115456	527590	540075	-77.6562	0.0000000E+000	0.0000000E+000	0.0000000E+000	77.6562	0.0000000E+000	0.0000000E+000	0.0000000E+000	-77.6562	0.0000000E+000	0.0000000E+000	0.0000000E+000	-12.3438	0.0000000E+000	0.0000000E+000	0.0000000E+000	12.3438	4.56962	77.6562	0.000368691
0.398211	488.778	73.7198	494.306	-8.57697	161.016	0.453296	0.131855	5421.54	120.586	1	40	0.00491028	9.93368e-06	0	0.00597254	0.256742	0.138389	4.34082	3.8356e-06	8.15328e-06	2.0431e-06	4.17287e-06	5.84617e-06	3.41051e-06	1.417	1.86746	3.62846	7.46059e-08	5.53649e-08	4.8011e-08	6.31685e-08	4.46779e-08	3.36949e-08	0.00200041	0.000301711	0.00202304	8.57697	120586	799514	808557	-81.423	0.0000000E+000	0.0000000E+000	0.0000000E+000	81.423	0.0000000E+000	0.0000000E+000	0.0000000E+000	-81.423	0.0000000E+000	0.0000000E+000	0.0000000E+000	-8.57697	0.0000000E+000	0.0000000E+000	0.0000000E+000	8.57697	6.63022	81.423	0.000572214
0.251222	499.27	49.7516	501.743	-5.69066	205.26	0.453252	0.130077	12733.7	125.201	1	40	0.00490744	9.7808e-06	0	0.00757682	0.275033	0.14255	3.63191	1.9887e-06	9.45705e-06	4.35327e-06	4.00675e-06	3.5355e-06	5.16954e-06	1.66872	1.12027	3.54575	8.06448e-08	5.68301e-08	6.74558e-08	5.02838e-08	3.3169e-08	5.34294e-08	0.00198323	0.000197626	0.00199305	5.69066	125201	1.25642e+06	1.26265e+06	-84.3093	0.0000000E+000	0.0000000E+000	0.0000000E+000	84.3093	0.0000000E+000	0.0000000E+000	0.0000000E+000	-84.3093	0.0000000E+000	0.0000000E+000	0.0000000E+000	-5.69066	0.0000000E+000	0.0000000E+000	0.0000000E+000	5.69066	10.0353	84.3093	0.000891085
0.158419	524.147	30.4112	525.029	-3.3206	275.025	0.453251	0.127674	33035.4	110.836	1	40	0.00490592	9.3441e-06	0	0.0100725	0.217827	0.150959	2.71962	3.14875e-06	5.59093e-06	2.87354e-06	4.99019e-06	4.29391e-06	3.04656e-06	1.58508	1.37929	3.21975	8.40436e-08	4.72148e-08	8.49671e-08	2.5881e-08	3.1533e-08	4.4593e-08	0.00190146	0.000110324	0.00190466	3.3206	110836	1.9103e+06	1.91351e+06	-86.6794	0.0000000E+000	0.0000000E+000	0.0000000E+000	86.6794	0.0000000E+000	0.0000000E+000	0.0000000E+000	-86.6794	0.0000000E+000	0.0000000E+000	0.0000000E+000	-3.3206	0.0000000E+000	0.0000000E+000	0.0000000E+000	3.3206	17.2353	86.6794	0.00138383
0.0999518	539.471	26.5539	540.124	-2.81795	385.224	0.453256	0.124434	59965.5	144.934	1	40	0.00490688	9.08473e-06	0	0.0139174	0.206057	0.202782	2.43247	4.98943e-06	4.99303e-06	2.34906e-06	5.78579e-06	1.53744e-06	2.35121e-06	1.36065	2.56523	3.5656	4.33419e-08	3.50458e-08	3.04565e-08	6.83767e-08	2.48323e-08	6.49403e-08	0.00184919	9.1021e-05	0.00185143	2.81795	144934	2.94449e+06	2.94806e+06	-87.1821	0.0000000E+000	0.0000000E+000	0.0000000E+000	87.1821	0.0000000E+000	0.0000000E+000	0.0000000E+000	-87.1821	0.0000000E+000	0.0000000E+000	0.0000000E+000	-2.81795	0.0000000E+000	0.0000000E+000	0.0000000E+000	2.81795	20.3161	87.1821	0.00212861
317705	11.142	2.51915	11.4233	-12.7401	388.768	0.453352	0.121312	0.198857	0.00967098	2	38	0.00516144	0.000451836	0	0.0140381	-1	-1	-1	0	0	0	0	0	0	-1	-1	-1	0	0	0	0	0	0	0.0853855	0.0193052	0.0875407	12.7401	9.67098	42.774	43.8536	-77.2599	0.0000000E+000	0.0000000E+000	0.0000000E+000	77.2599	0.0000000E+000	0.0000000E+000	0.0000000E+000	-77.2599	0.0000000E+000	0.0000000E+000	0.0000000E+000	-12.7401	0.0000000E+000	0.0000000E+000	0.0000000E+000	12.7401	4.42292	77.2599	3.82915e-05
200434	11.2777	1.90788	11.4379	-9.60199	391.061	0.453341	0.120778	0.416195	0.0115799	2	38	0.00519391	0.000454095	0	0.0141153	-1	-1	-1	0	0	0	0	0	0	-1	-1	-1	0	0	0	0	0	0	0.0862036	0.0145833	0.0874285	9.60199	11.5799	68.45	69.4226	-80.398	0.0000000E+000	0.0000000E+000	0.0000000E+000	80.398	0.0000000E+000	0.0000000E+000	0.0000000E+000	-80.398	0.0000000E+000	0.0000000E+000	0.0000000E+000	-9.60199	0.0000000E+000	0.0000000E+000	0.0000000E+000	9.60199	5.91111	80.398	3.80723e-05
126447	11.3246	1.65931	11.4455	-8.33583	393.355	0.453371	0.120966	0.758546	0.0159429	2	38	0.00514859	0.000449835	0	0.0141919	-1	-1	-1	0	0	0	0	0	0	-1	-1	-1	0	0	0	0	0	0	0.0864475	0.0126665	0.0873706	8.33583	15.9429	108.808	109.97	-81.6642	0.0000000E+000	0.0000000E+000	0.0000000E+000	81.6642	0.0000000E+000	0.0000000E+000	0.0000000E+000	-81.6642	0.0000000E+000	0.0000000E+000	0.0000000E+000	-8.33583	0.0000000E+000	0.0000000E+000	0.0000000E+000	8.33583	6.82487	81.6642	3.76088e-05
79767.3	11.4167	1.63082	11.5326	-8.12943	395.65	0.45335	0.120469	1.22346	0.0244652	2	38	0.00516316	0.000447703	0	0.014267	0.919557	0.927488	22.6059	1.98729e-05	1.86425e-05	1.4371e-05	1.72864e-05	8.32792e-06	2.72403e-05	0.372774	0.242073	6.08322	1.10571e-06	6.07491e-07	4.50398e-07	5.78337e-07	2.82412e-07	6.1634e-07	0.0858397	0.0122618	0.086711	8.12943	24.4652	171.271	173.009	-81.8706	0.0000000E+000	0.0000000E+000	0.0000000E+000	81.8706	0.0000000E+000	0.0000000E+000	0.0000000E+000	-81.8706	0.0000000E+000	0.0000000E+000	0.0000000E+000	-8.12943	0.0000000E+000	0.0000000E+000	0.0000000E+000	8.12943	7.00058	81.8706	3.75179e-05
50326.6	11.7313	1.92372	11.888	-9.31259	397.943	0.453348	0.121119	1.64392	0.0430475	2	38	0.00517977	0.000435714	0	0.0143426	1.36595	0.870604	22.7726	3.10942e-05	9.07675e-06	3.36156e-05	2.65133e-05	1.51339e-05	3.17964e-05	0.314383	0.233984	6.13872	5.19046e-07	4.24644e-07	5.04759e-07	5.54635e-07	3.6427e-07	6.35297e-07	0.0830098	0.0136121	0.0841184	9.31259	43.0475	262.514	266.02	-80.6874	0.0000000E+000	0.0000000E+000	0.0000000E+000	80.6874	0.0000000E+000	0.0000000E+000	0.0000000E+000	-80.6874	0.0000000E+000	0.0000000E+000	0.0000000E+000	-9.31259	0.0000000E+000	0.0000000E+000	0.0000000E+000	9.31259	6.09823	80.6874	3.8014e-05
31751	11.926	2.56498	12.1987	-12.138	400.238	0.45336	0.121161	1.95424	0.0864016	2	38	0.00512885	0.000420444	0	0.0144184	1.19483	0.401156	23.1531	2.67216e-05	2.8589e-05	2.16551e-05	1.3107e-05	2.96163e-05	1.45763e-05	0.327172	0.212389	6.33472	6.8298e-07	4.66153e-07	4.71894e-07	5.41601e-07	6.00435e-07	4.44932e-07	0.0801435	0.0172369	0.0819762	12.138	86.4016	401.727	410.913	-77.862	0.0000000E+000	0.0000000E+000	0.0000000E+000	77.862	0.0000000E+000	0.0000000E+000	0.0000000E+000	-77.862	0.0000000E+000	0.0000000E+000	0.0000000E+000	-12.138	0.0000000E+000	0.0000000E+000	0.0000000E+000	12.138	4.64953	77.862	3.79943e-05
20032.3	12.2799	3.41504	12.7459	-15.5413	402.532	0.453363	0.12118	2.32645	0.167011	2	38	0.00510049	0.000400167	0	0.0144951	1.20591	0.506992	23.5888	3.71357e-05	2.144e-05	1.49435e-05	1.11682e-05	2.7511e-05	1.97754e-05	0.3383	0.235586	6.68114	4.88908e-07	2.1661e-07	4.65985e-07	5.65378e-07	3.7856e-07	6.94834e-07	0.0755881	0.0210211	0.0784566	15.5413	167.011	600.541	623.332	-74.4587	0.0000000E+000	0.0000000E+000	0.0000000E+000	74.4587	0.0000000E+000	0.0000000E+000	0.0000000E+000	-74.4587	0.0000000E+000	0.0000000E+000	0.0000000E+000	-15.5413	0.0000000E+000	0.0000000E+000	0.0000000E+000	15.5413	3.59582	74.4587	3.81318e-05
12637.3	12.8924	4.83277	13.7684	-20.5487	404.825	0.453354	0.12088	2.60597	0.321065	2	38	0.00499744	0.000362964	0	0.0145723	1.18504	0.763582	23.7509	1.81289e-05	8.89082e-06	3.08484e-05	2.62178e-05	1.26525e-05	2.78905e-05	0.460737	0.202903	7.44065	5.25154e-07	6.56409e-07	7.49322e-07	6.47188e-07	2.29657e-07	6.32173e-07	0.0680088	0.0254934	0.07263	20.5487	321.065	856.506	914.705	-69.4513	0.0000000E+000	0.0000000E+000	0.0000000E+000	69.4513	0.0000000E+000	0.0000000E+000	0.0000000E+000	-69.4513	0.0000000E+000	0.0000000E+000	0.0000000E+000	-20.5487	0.0000000E+000	0.0000000E+000	0.0000000E+000	20.5487	2.6677	69.4513	3.84473e-05
7967.67	13.817	6.79888	15.3992	-26.2002	407.013	0.45323	0.12032	2.938	0.572706	2	38	0.00521959	0.000338953	0	0.0146444	1.30675	0.850308	22.9011	1.80937e-05	1.68e-05	2.61734e-05	3.20275e-05	3.90902e-05	2.21444e-05	0.420766	0.274068	7.96827	6.44838e-07	6.82534e-07	6.23871e-07	4.71714e-07	5.26933e-07	2.71545e-07	0.0582665	0.028671	0.0649385	26.2002	572.705	1163.88	1297.15	-63.7998	0.0000000E+000	0.0000000E+000	0.0000000E+000	63.7998	0.0000000E+000	0.0000000E+000	0.0000000E+000	-63.7998	0.0000000E+000	0.0000000E+000	0.0000000E+000	-26.2002	0.0000000E+000	0.0000000E+000	0.0000000E+000	26.2002	2.03225	63.7998	3.80748e-05
5028.39	15.027	9.63737	17.8519	-32.6735	409.407	0.453231	0.120966	3.28422	0.957154	2	38	0.00509262	0.000285271	0	0.0147225	1.26684	0.995676	23.3781	1.74505e-05	3.21125e-05	2.5596e-05	2.361e-05	2.39398e-05	2.2739e-05	0.501864	0.234936	9.47579	5.26389e-07	7.59181e-07	4.7159e-07	4.03439e-07	5.30279e-07	5.3587e-07	0.0471525	0.0302406	0.0560165	32.6735	957.154	1492.44	1772.99	-57.3265	0.0000000E+000	0.0000000E+000	0.0000000E+000	57.3265	0.0000000E+000	0.0000000E+000	0.0000000E+000	-57.3265	0.0000000E+000	0.0000000E+000	0.0000000E+000	-32.6735	0.0000000E+000	0.0000000E+000	0.0000000E+000	32.6735	1.55924	57.3265	4.38945e-05
3171.96	17.1425	13.5383	21.8438	-38.2999	411.618	0.453224	0.121355	3.70619	1.42364	2	38	0.00510791	0.000233838	0	0.0147967	1.3774	0.789912	23.0833	1.81065e-05	2.92396e-05	2.64756e-05	3.33881e-05	1.59084e-05	2.85032e-05	0.591519	0.461912	11.7024	5.0336e-07	6.8542e-07	6.4275e-07	2.79796e-07	4.27953e-07	5.59592e-07	0.0359268	0.0283732	0.0457796	38.2999	1423.64	1802.65	2297.02	-51.7001	0.0000000E+000	0.0000000E+000	0.0000000E+000	51.7001	0.0000000E+000	0.0000000E+000	0.0000000E+000	-51.7001	0.0000000E+000	0.0000000E+000	0.0000000E+000	-38.2999	0.0000000E+000	0.0000000E+000	0.0000000E+000	38.2999	1.26622	51.7001	3.71895e-05
2001.92	20.3189	18.8568	27.7207	-42.8626	413.83	0.453221	0.120271	4.21605	1.95089	2	38	0.00503049	0.00018147	0	0.0148705	1.06323	0.81703	23.4623	1.36443e-05	2.48957e-05	2.01364e-05	2.45079e-05	1.5213e-05	1.3864e-05	0.836411	0.604163	15.0261	8.10072e-07	3.55946e-07	5.1926e-07	7.68354e-07	4.47282e-07	3.99831e-07	0.0264419	0.0245392	0.0360741	42.8626	1950.89	2102.16	2867.94	-47.1374	0.0000000E+000	0.0000000E+000	0.0000000E+000	47.1374	0.0000000E+000	0.0000000E+000	0.0000000E+000	-47.1374	0.0000000E+000	0.0000000E+000	0.0000000E+000	-42.8626	0.0000000E+000	0.0000000E+000	0.0000000E+000	42.8626	1.07754	47.1374	3.69441e-05
1262.98	25.2351	25.6136	35.9565	-45.4265	416.296	0.453229	0.122933	4.91987	2.49656	2	39	0.00541425	0.000150578	0	0.0149517	1.25296	0.589392	20.3056	2.65e-05	1.51271e-05	2.54113e-05	1.12682e-05	2.29395e-05	4.40513e-05	0.6733	0.246829	7.15839	6.84415e-07	2.514e-07	2.22904e-07	3.69884e-07	2.82474e-07	2.8507e-07	0.0195187	0.0198115	0.0278114	45.4265	2496.56	2459.66	3504.67	-44.5735	0.0000000E+000	0.0000000E+000	0.0000000E+000	44.5735	0.0000000E+000	0.0000000E+000	0.0000000E+000	-44.5735	0.0000000E+000	0.0000000E+000	0.0000000E+000	-45.4265	0.0000000E+000	0.0000000E+000	0.0000000E+000	45.4265	0.985222	44.5735	4.46401e-05
796.787	32.8855	33.6293	47.0361	-45.6407	418.509	0.453226	0.123094	5.93963	3.03623	2	39	0.00515483	0.000109593	0	0.0150268	1.1041	0.820193	20.9744	2.64269e-05	2.61467e-05	1.95773e-05	2.28447e-05	1.2958e-05	2.07094e-05	0.647938	0.375315	10.1088	4.88654e-07	2.90234e-07	2.41264e-07	1.60411e-07	2.27603e-07	1.14254e-07	0.0148643	0.0152005	0.0212603	45.6407	3036.23	2969.07	4246.65	-44.3593	0.0000000E+000	0.0000000E+000	0.0000000E+000	44.3593	0.0000000E+000	0.0000000E+000	0.0000000E+000	-44.3593	0.0000000E+000	0.0000000E+000	0.0000000E+000	-45.6407	0.0000000E+000	0.0000000E+000	0.0000000E+000	45.6407	0.977883	44.3593	3.74129e-05
502.588	43.8245	42.6082	61.1232	-44.1938	420.726	0.453238	0.123102	7.43216	3.61151	2	39	0.0050323	8.23303e-05	0	0.0151018	1.29305	0.644709	21.4753	3.02898e-05	2.91468e-05	2.45347e-05	2.38981e-05	2.56036e-05	1.48706e-05	0.943349	0.239421	13.2979	4.3967e-07	2.69028e-07	2.74463e-07	3.27751e-07	1.48667e-07	1.26609e-07	0.0117302	0.0114046	0.0163604	44.1938	3611.51	3714.61	5180.86	-45.8062	0.0000000E+000	0.0000000E+000	0.0000000E+000	45.8062	0.0000000E+000	0.0000000E+000	0.0000000E+000	-45.8062	0.0000000E+000	0.0000000E+000	0.0000000E+000	-44.1938	0.0000000E+000	0.0000000E+000	0.0000000E+000	44.1938	1.02855	45.8062	3.75838e-05
316.927	58.072	51.699	77.7505	-41.6773	422.938	0.453276	0.122546	9.71358	4.29474	2	39	0.00496168	6.38154e-05	0	0.0151767	1.13222	0.602659	21.6967	2.7849e-05	2.5094e-05	1.76333e-05	1.39077e-05	2.26356e-05	1.44146e-05	0.927643	0.419675	17.0925	3.40841e-07	2.72992e-07	1.73698e-07	1.80659e-07	1.11355e-07	2.1626e-07	0.00960639	0.00855216	0.0128617	41.6773	4294.74	4824.16	6458.89	-48.3227	0.0000000E+000	0.0000000E+000	0.0000000E+000	48.3227	0.0000000E+000	0.0000000E+000	0.0000000E+000	-48.3227	0.0000000E+000	0.0000000E+000	0.0000000E+000	-41.6773	0.0000000E+000	0.0000000E+000	0.0000000E+000	41.6773	1.12327	48.3227	3.73942e-05
199.936	76.3075	59.4382	96.7251	-37.9161	425.148	0.453254	0.122718	13.3925	5.05727	2	39	0.00492997	5.09689e-05	0	0.0152515	1.22279	0.806588	21.9175	2.83501e-05	2.45305e-05	2.31842e-05	2.54892e-05	8.97193e-06	2.55974e-05	1.61015	0.614151	21.3217	6.14005e-07	2.27316e-07	1.71175e-07	2.42906e-07	1.37512e-07	3.39246e-07	0.00815623	0.00635313	0.0103386	37.9161	5057.27	6492.59	8229.8	-52.0839	0.0000000E+000	0.0000000E+000	0.0000000E+000	52.0839	0.0000000E+000	0.0000000E+000	0.0000000E+000	-52.0839	0.0000000E+000	0.0000000E+000	0.0000000E+000	-37.9161	0.0000000E+000	0.0000000E+000	0.0000000E+000	37.9161	1.28381	52.0839	3.75074e-05
126.171	96.3167	64.5681	115.957	-33.8368	427.357	0.453277	0.122791	19.5363	6.05741	2	39	0.00491163	4.23575e-05	0	0.0153263	0.990662	0.486642	21.7003	2.05426e-05	2.42175e-05	1.48152e-05	1.45996e-05	1.02083e-05	1.59346e-05	1.26783	0.805316	25.7865	2.47971e-07	2.53186e-07	2.34715e-07	2.2369e-07	9.87095e-08	1.81255e-07	0.00716325	0.00480205	0.00862391	33.8368	6057.41	9035.88	10878.4	-56.1632	0.0000000E+000	0.0000000E+000	0.0000000E+000	56.1632	0.0000000E+000	0.0000000E+000	0.0000000E+000	-56.1632	0.0000000E+000	0.0000000E+000	0.0000000E+000	-33.8368	0.0000000E+000	0.0000000E+000	0.0000000E+000	33.8368	1.49171	56.1632	3.72676e-05
79.6177	115.751	68.8147	134.662	-30.7317	429.545	0.453273	0.122818	29.0489	7.58582	2	39	0.00490198	3.64022e-05	0	0.0153999	1.37062	0.537137	21.8827	2.58495e-05	3.99841e-05	2.22493e-05	1.84487e-05	1.0014e-05	3.2755e-05	1.58621	0.961622	30.2916	2.93073e-07	2.42446e-07	1.6796e-07	2.84607e-07	1.43431e-07	1.57182e-07	0.00638317	0.00379483	0.00742601	30.7317	7585.82	12759.9	14844.5	-59.2683	0.0000000E+000	0.0000000E+000	0.0000000E+000	59.2683	0.0000000E+000	0.0000000E+000	0.0000000E+000	-59.2683	0.0000000E+000	0.0000000E+000	0.0000000E+000	-30.7317	0.0000000E+000	0.0000000E+000	0.0000000E+000	30.7317	1.68207	59.2683	3.6224e-05
50.2089	138.048	70.8881	155.185	-27.1806	431.691	0.453254	0.122471	44.7164	9.33068	2	39	0.00490768	3.16247e-05	0	0.0154724	1.00478	0.926688	22.0036	1.24078e-05	1.20524e-05	1.39265e-05	2.19257e-05	2.89798e-05	1.58829e-05	1.69005	0.989447	33.9643	1.93419e-07	2.28991e-07	2.26532e-07	1.87289e-07	1.69446e-07	1.85717e-07	0.00573232	0.00294356	0.00644392	27.1806	9330.68	18170.6	20426.3	-62.8194	0.0000000E+000	0.0000000E+000	0.0000000E+000	62.8194	0.0000000E+000	0.0000000E+000	0.0000000E+000	-62.8194	0.0000000E+000	0.0000000E+000	0.0000000E+000	-27.1806	0.0000000E+000	0.0000000E+000	0.0000000E+000	27.1806	1.94741	62.8194	3.59573e-05
31.6723	157.683	74.4805	174.388	-25.2834	434.044	0.453275	0.122876	67.468	12.3069	2	40	0.00493363	2.82911e-05	0	0.015551	1.55396	0.913337	30.3816	2.91798e-05	4.71879e-05	2.83871e-05	1.83981e-05	2.1441e-05	2.24061e-05	0.966268	0.180857	6.62789	2.60616e-07	3.05013e-08	2.46357e-08	4.56196e-08	4.28959e-08	2.71967e-08	0.00518502	0.00244911	0.00573433	25.2834	12306.9	26055	28815.3	-64.7166	0.0000000E+000	0.0000000E+000	0.0000000E+000	64.7166	0.0000000E+000	0.0000000E+000	0.0000000E+000	-64.7166	0.0000000E+000	0.0000000E+000	0.0000000E+000	-25.2834	0.0000000E+000	0.0000000E+000	0.0000000E+000	25.2834	2.1171	64.7166	4.25227e-05
19.9808	177.839	80.3484	195.148	-24.3137	436.18	0.453244	0.122871	99.1356	16.8058	2	40	0.00493128	2.52695e-05	0	0.0156231	1.73851	0.488847	29.828	2.35797e-05	4.68555e-05	2.72381e-05	2.33251e-05	2.83258e-05	2.66077e-05	0.847902	0.154484	7.27212	1.86861e-07	5.62859e-08	3.80002e-08	3.68174e-08	4.98236e-08	3.61014e-08	0.00466983	0.00210985	0.00512433	24.3137	16805.8	37197	40817.2	-65.6863	0.0000000E+000	0.0000000E+000	0.0000000E+000	65.6863	0.0000000E+000	0.0000000E+000	0.0000000E+000	-65.6863	0.0000000E+000	0.0000000E+000	0.0000000E+000	-24.3137	0.0000000E+000	0.0000000E+000	0.0000000E+000	24.3137	2.21335	65.6863	3.60536e-05
12.6144	197.464	88.6947	216.469	-24.1882	438.389	0.453248	0.122477	142.252	23.8816	2	40	0.00490053	2.26385e-05	0	0.0156976	1.1446	0.393639	21.9899	2.35114e-05	3.05639e-05	2.66216e-05	1.57268e-05	1.47635e-05	1.60914e-05	0.816556	0.136914	5.97948	1.65997e-07	3.18932e-08	3.84901e-08	3.21664e-08	2.80619e-08	3.6461e-08	0.00421403	0.00189281	0.00461961	24.1882	23881.6	53168.3	58285.5	-65.8118	0.0000000E+000	0.0000000E+000	0.0000000E+000	65.8118	0.0000000E+000	0.0000000E+000	0.0000000E+000	-65.8118	0.0000000E+000	0.0000000E+000	0.0000000E+000	-24.1882	0.0000000E+000	0.0000000E+000	0.0000000E+000	24.1882	2.22633	65.8118	3.91266e-05
7.95573	221.495	103.641	244.544	-25.0756	440.655	0.453237	0.122569	193.023	34.6704	2	40	0.00490461	2.00562e-05	0	0.0157742	1.25353	0.667853	22.1153	2.05141e-05	2.18492e-05	2.07166e-05	2.00914e-05	2.92473e-05	2.42705e-05	0.919886	0.571928	6.78346	1.38405e-07	5.2624e-08	8.38874e-08	4.1627e-08	3.09884e-08	3.31018e-08	0.00370383	0.00173308	0.00408925	25.0756	34670.4	74095.5	81805.7	-64.9244	0.0000000E+000	0.0000000E+000	0.0000000E+000	64.9244	0.0000000E+000	0.0000000E+000	0.0000000E+000	-64.9244	0.0000000E+000	0.0000000E+000	0.0000000E+000	-25.0756	0.0000000E+000	0.0000000E+000	0.0000000E+000	25.0756	2.13714	64.9244	4.06428e-05
5.01766	252.994	124.667	282.042	-26.2326	443.654	0.453232	0.122461	254.429	49.7099	2	40	0.00493045	1.74812e-05	0	0.0158751	1.01718	0.514016	18.0817	1.85727e-05	2.59763e-05	1.54918e-05	1.88561e-05	1.58776e-05	2.17219e-05	0.771574	0.971747	6.34066	1.13952e-07	1.377e-08	1.96955e-08	2.58162e-08	2.82642e-08	5.36725e-08	0.0031804	0.0015672	0.00354557	26.2326	49709.9	100879	112462	-63.7674	0.0000000E+000	0.0000000E+000	0.0000000E+000	63.7674	0.0000000E+000	0.0000000E+000	0.0000000E+000	-63.7674	0.0000000E+000	0.0000000E+000	0.0000000E+000	-26.2326	0.0000000E+000	0.0000000E+000	0.0000000E+000	26.2326	2.02936	63.7674	5.4593e-05
3.16616	295.52	148.337	330.66	-26.6545	447.882	0.453252	0.12233	338.874	68.1983	2	40	0.0049212	1.4883e-05	0	0.016018	0.585043	0.469976	13.8241	8.4114e-06	1.51475e-05	1.56377e-05	1.0623e-05	6.89042e-06	8.77421e-06	0.807735	0.858375	5.85331	1.03325e-07	3.79502e-08	2.15802e-08	2.81231e-08	1.17452e-08	2.01954e-08	0.00270286	0.00135671	0.00302426	26.6545	68198.3	135866	152022	-63.3455	0.0000000E+000	0.0000000E+000	0.0000000E+000	63.3455	0.0000000E+000	0.0000000E+000	0.0000000E+000	-63.3455	0.0000000E+000	0.0000000E+000	0.0000000E+000	-26.6545	0.0000000E+000	0.0000000E+000	0.0000000E+000	26.6545	1.99222	63.3455	7.8169e-05
1.99783	352.976	163.122	388.845	-24.8032	454.104	0.453249	0.12231	488.371	85.945	2	40	0.0049036	1.26107e-05	0	0.0162283	0.655832	0.223545	10.2301	1.22108e-05	1.83619e-05	8.94886e-06	1.00838e-05	5.31435e-06	1.67536e-05	0.953647	0.716471	5.25468	9.80326e-08	3.88312e-08	2.49072e-08	2.82628e-08	2.40526e-08	2.93953e-08	0.00233449	0.00107884	0.00257172	24.8032	85945	185974	204873	-65.1968	0.0000000E+000	0.0000000E+000	0.0000000E+000	65.1968	0.0000000E+000	0.0000000E+000	0.0000000E+000	-65.1968	0.0000000E+000	0.0000000E+000	0.0000000E+000	-24.8032	0.0000000E+000	0.0000000E+000	0.0000000E+000	24.8032	2.16388	65.1968	0.000115561
1.25968	423.358	162.126	453.34	-20.9545	463.518	0.453252	0.12179	779.305	99.6704	2	40	0.0049131	1.08376e-05	0	0.0165472	0.364579	0.239154	8.30157	4.09254e-06	8.20805e-06	9.664e-06	8.03517e-06	4.17067e-06	4.92502e-06	0.871526	1.69313	5.0199	6.21776e-08	4.26622e-08	2.81391e-08	2.45797e-08	1.95765e-08	1.17452e-08	0.00205997	0.00078887	0.00220585	20.9545	99670.4	260268	278700	-69.0455	0.0000000E+000	0.0000000E+000	0.0000000E+000	69.0455	0.0000000E+000	0.0000000E+000	0.0000000E+000	-69.0455	0.0000000E+000	0.0000000E+000	0.0000000E+000	-20.9545	0.0000000E+000	0.0000000E+000	0.0000000E+000	20.9545	2.61129	69.0455	0.000176201
0.79456	481.582	133.139	499.647	-15.4541	477.987	0.453248	0.121686	1504.49	106.825	2	40	0.0049042	9.81532e-06	0	0.0170348	0.3446	0.145461	6.13773	4.28406e-06	8.60119e-06	4.62576e-06	6.18412e-06	8.95227e-06	4.49411e-06	0.881037	1.50867	4.3477	5.23612e-08	3.38795e-08	2.48554e-08	3.02023e-08	2.09735e-08	1.79369e-08	0.00192905	0.000533309	0.00200141	15.4541	106825	386400	400895	-74.5459	0.0000000E+000	0.0000000E+000	0.0000000E+000	74.5459	0.0000000E+000	0.0000000E+000	0.0000000E+000	-74.5459	0.0000000E+000	0.0000000E+000	0.0000000E+000	-15.4541	0.0000000E+000	0.0000000E+000	0.0000000E+000	15.4541	3.61714	74.5459	0.000270106
0.501541	524.167	101.407	533.886	-10.9494	500.466	0.453254	0.121094	3129.27	112.898	2	40	0.00490534	9.188e-06	0	0.0177912	0.329421	0.178324	4.8733	3.95705e-06	6.43466e-06	5.53623e-06	6.84822e-06	8.40306e-06	5.75545e-06	0.866353	0.654076	3.87957	2.8905e-08	3.6879e-08	1.92141e-08	4.39168e-08	3.06831e-08	2.00867e-08	0.00183896	0.000355773	0.00187306	10.9494	112898	583561	594382	-79.0506	0.0000000E+000	0.0000000E+000	0.0000000E+000	79.0506	0.0000000E+000	0.0000000E+000	0.0000000E+000	-79.0506	0.0000000E+000	0.0000000E+000	0.0000000E+000	-10.9494	0.0000000E+000	0.0000000E+000	0.0000000E+000	10.9494	5.16891	79.0506	0.00041923
0.316193	544.75	69.2224	549.131	-7.24187	535.742	0.453267	0.120146	7271.45	115.548	2	40	0.00490515	8.93257e-06	0	0.0189703	0.285294	0.133842	4.02602	4.48482e-06	9.83177e-06	3.84134e-06	4.33214e-06	3.97725e-06	4.16886e-06	1.53688	1.64505	3.448	5.56609e-08	4.42049e-08	8.09946e-08	5.85602e-08	2.5515e-08	4.9664e-08	0.00180653	0.00022956	0.00182106	7.24187	115548	909314	916626	-82.7581	0.0000000E+000	0.0000000E+000	0.0000000E+000	82.7581	0.0000000E+000	0.0000000E+000	0.0000000E+000	-82.7581	0.0000000E+000	0.0000000E+000	0.0000000E+000	-7.24187	0.0000000E+000	0.0000000E+000	0.0000000E+000	7.24187	7.86956	82.7581	0.000655831
0.199573	566.457	47.2462	568.424	-4.7678	591.268	0.453251	0.118824	16879.2	116.611	2	40	0.00490541	8.62985e-06	0	0.020813	0.217277	0.100909	3.1832	5.73996e-06	5.91671e-06	2.58511e-06	3.98642e-06	2.6951e-06	2.34906e-06	1.46361	1.73068	3.32756	5.45644e-08	7.52177e-08	4.44562e-08	3.82378e-08	3.86936e-08	2.34465e-08	0.00175316	0.000146225	0.00175925	4.7678	116611	1.3981e+06	1.40296e+06	-85.2322	0.0000000E+000	0.0000000E+000	0.0000000E+000	85.2322	0.0000000E+000	0.0000000E+000	0.0000000E+000	-85.2322	0.0000000E+000	0.0000000E+000	0.0000000E+000	-4.7678	0.0000000E+000	0.0000000E+000	0.0000000E+000	4.7678	11.9895	85.2322	0.0010222
0.125939	577.977	36.6805	579.14	-3.63133	678.922	0.453237	0.116736	34452.9	138.207	2	40	0.00490687	8.47269e-06	0	0.0236712	0.226405	0.0926767	2.53092	4.74991e-06	8.21685e-06	2.98869e-06	3.46536e-06	9.87315e-07	2.05395e-06	1.37592	1.63538	3.41716	5.17027e-08	5.09414e-08	3.81501e-08	4.62547e-08	3.06793e-08	5.12921e-08	0.00172323	0.000109363	0.0017267	3.63133	138207	2.17774e+06	2.18212e+06	-86.3687	0.0000000E+000	0.0000000E+000	0.0000000E+000	86.3687	0.0000000E+000	0.0000000E+000	0.0000000E+000	-86.3687	0.0000000E+000	0.0000000E+000	0.0000000E+000	-3.63133	0.0000000E+000	0.0000000E+000	0.0000000E+000	3.63133	15.7571	86.3687	0.00158458
399996	11.0283	3.06125	11.4453	-15.5137	742.875	0.453344	0.112246	0.129977	0.00929848	3	38	0.00492268	0.000430107	0	0.0257264	-1	-1	-1	0	0	0	0	0	0	-1	-1	-1	0	0	0	0	0	0	0.0841892	0.0233694	0.0873725	15.5137	9.29849	33.4981	34.7647	-74.4863	0.0000000E+000	0.0000000E+000	0.0000000E+000	74.4863	0.0000000E+000	0.0000000E+000	0.0000000E+000	-74.4863	0.0000000E+000	0.0000000E+000	0.0000000E+000	-15.5137	0.0000000E+000	0.0000000E+000	0.0000000E+000	15.5137	3.60254	74.4863	8.21101e-05
252347	11.2358	2.16561	11.4426	-10.9095	745.169	0.453355	0.112442	0.291233	0.0104316	3	38	0.00517642	0.00045238	0	0.0257971	-1	-1	-1	0	0	0	0	0	0	-1	-1	-1	0	0	0	0	0	0	0.0858131	0.0165398	0.0873925	10.9095	10.4316	54.1221	55.1182	-79.0905	0.0000000E+000	0.0000000E+000	0.0000000E+000	79.0905	0.0000000E+000	0.0000000E+000	0.0000000E+000	-79.0905	0.0000000E+000	0.0000000E+000	0.0000000E+000	-10.9095	0.0000000E+000	0.0000000E+000	0.0000000E+000	10.9095	5.18829	79.0905	3.5225e-05
159201	11.2853	1.70306	11.4131	-8.58168	747.463	0.453347	0.111429	0.587011	0.0130706	3	38	0.00517926	0.000453799	0	0.0258686	-1	-1	-1	0	0	0	0	0	0	-1	-1	-1	0	0	0	0	0	0	0.0866375	0.0130743	0.0876184	8.58168	13.0706	86.6126	87.5933	-81.4183	0.0000000E+000	0.0000000E+000	0.0000000E+000	81.4183	0.0000000E+000	0.0000000E+000	0.0000000E+000	-81.4183	0.0000000E+000	0.0000000E+000	0.0000000E+000	-8.58168	0.0000000E+000	0.0000000E+000	0.0000000E+000	8.58168	6.62652	81.4183	3.60895e-05
100431	11.4277	1.56548	11.5344	-7.8004	749.757	0.453336	0.111744	1.0123	0.0186471	3	38	0.00517263	0.000448453	0	0.0259405	0.903917	0.777	23.1081	2.23582e-05	2.22332e-05	1.95212e-05	1.46977e-05	1.28922e-05	1.77838e-05	0.367346	0.167382	5.94119	1.11539e-06	4.91835e-07	3.34288e-07	5.37311e-07	5.4513e-07	3.63166e-07	0.085895	0.0117668	0.0866973	7.8004	18.6471	136.12	137.391	-82.1996	0.0000000E+000	0.0000000E+000	0.0000000E+000	82.1996	0.0000000E+000	0.0000000E+000	0.0000000E+000	-82.1996	0.0000000E+000	0.0000000E+000	0.0000000E+000	-7.8004	0.0000000E+000	0.0000000E+000	0.0000000E+000	7.8004	7.2998	82.1996	3.6221e-05
63362.9	11.5824	1.82215	11.7249	-8.9405	752.051	0.453345	0.111759	1.37848	0.0332929	3	38	0.00515794	0.000439914	0	0.0260108	1.2861	0.661298	23.0851	2.29276e-05	2.69078e-05	2.21023e-05	3.4779e-05	1.70713e-05	2.73998e-05	0.402828	0.10981	6.09894	9.50742e-07	8.02924e-07	4.89484e-07	5.65185e-07	6.15828e-07	6.90309e-07	0.0842523	0.0132546	0.0852886	8.9405	33.2929	211.625	214.228	-81.0595	0.0000000E+000	0.0000000E+000	0.0000000E+000	81.0595	0.0000000E+000	0.0000000E+000	0.0000000E+000	-81.0595	0.0000000E+000	0.0000000E+000	0.0000000E+000	-8.9405	0.0000000E+000	0.0000000E+000	0.0000000E+000	8.9405	6.35646	81.0595	3.51341e-05
39971.8	11.7405	2.25917	11.9559	-10.892	754.345	0.453366	0.111976	1.76245	0.0629294	3	38	0.00514801	0.000430585	0	0.0260812	1.41529	0.774454	23.2984	3.46035e-05	1.73895e-05	3.01818e-05	2.58478e-05	3.31558e-05	2.41119e-05	0.380029	0.232066	6.19545	7.16996e-07	5.35849e-07	5.28073e-07	6.13041e-07	6.98962e-07	5.57402e-07	0.0821342	0.0158047	0.083641	10.892	62.9294	327.032	333.032	-79.1079	0.0000000E+000	0.0000000E+000	0.0000000E+000	79.1079	0.0000000E+000	0.0000000E+000	0.0000000E+000	-79.1079	0.0000000E+000	0.0000000E+000	0.0000000E+000	-10.892	0.0000000E+000	0.0000000E+000	0.0000000E+000	10.892	5.19681	79.1079	3.54509e-05