File: Python/Experiments/RDE/Dicarboxylferrocene/Data/240327-CVEIS-5mM_DiCaFerrocene-1M_NaCl-453p5mVvsRef-2000RPM-Ag_AgCl_BLF8-Au_RDE_02_PEIS_C15.mpt
EC-Lab ASCII FILE
Nb header lines : 66

Potentio Electrochemical Impedance Spectroscopy

Run on channel : 15 (SN 19485)
User :
Electrode connection : standard
Potential control : Ewe
Ewe ctrl range : min = -1.00 V, max = 1.00 V
Ewe,I filtering : <None>
Safety Limits :
	Do not start on E overload
Channel : Floating
Acquisition started on : 03/27/2024 13:46:18.854
Loaded Setting File :  C:\Data\mathias\GoldElectrode\240327-CVEIS-5mM_DiCaFerrocene-1M_NaCl-2000RPM-Ag_AgCl_BLF8-Au_RDE.mps
Saved on :
	File : 240327-CVEIS-5mM_DiCaFerrocene-1M_NaCl-453p5mVvsRef-2000RPM-Ag_AgCl_BLF8-Au_RDE_02_PEIS_C15.mpr
	Directory : C:\Data\mathias\GoldElectrode\
	Host : 192.168.0.1
Device : VMP-300 (SN 0826)
Address : USB
EC-Lab for windows v11.52 (software)
Internet server v11.52 (firmware)
Command interpretor v11.52 (firmware)
Electrode material :
Initial state :
Electrolyte :
Comments :
Cable : special
Electrode surface area : 0.001 cm²
Characteristic mass : 0.001 g
Equivalent Weight : 0.000 g/eq.
Density : 0.000 g/cm3
Volume (V) : 0.001 cm³
Record EIS quality indicators
Cycle Definition : Charge/Discharge alternance
Mode                Single sine
E (V)               0.4535
vs.                 Ref
tE (h:m:s)          0:00:0.0000
record              0
dI                  0.000
unit dI             mA
dt (s)              0.000
fi                  400.000
unit fi             kHz
ff                  100.000
unit ff             mHz
Nd                  10
Points              per decade
spacing             Logarithmic
Va (mV)             5.0
pw                  0.10
Na                  3
corr                0
E range min (V)     -1.000
E range max (V)     1.000
I Range             Auto
Bandwidth           8
nc cycles           2
goto Ns'            0
nr cycles           0
inc. cycle          1

freq/Hz	Re(Z)/Ohm	-Im(Z)/Ohm	|Z|/Ohm	Phase(Z)/deg	time/s	<Ewe>/V	<I>/mA	Cs/µF	Cp/µF	cycle number	I Range	|Ewe|/V	|I|/A	Ns	(Q-Qo)/mA.h	THD Ewe/%	NSD Ewe/%	NSR Ewe/%	|Ewe h2|/V	|Ewe h3|/V	|Ewe h4|/V	|Ewe h5|/V	|Ewe h6|/V	|Ewe h7|/V	THD I/%	NSD I/%	NSR I/%	|I h2|/A	|I h3|/A	|I h4|/A	|I h5|/A	|I h6|/A	|I h7|/A	Re(Y)/Ohm-1	Im(Y)/Ohm-1	|Y|/Ohm-1	Phase(Y)/deg	Re(C)/nF	Im(C)/nF	|C|/nF	Phase(C)/deg	Re(M)	Im(M)	|M|	Phase(M)/deg	Re(Permittivity)	Im(Permittivity)	|Permittivity|	Phase(Permittivity)/deg	Re(Resistivity)/Ohm.cm	Im(Resistivity)/Ohm.cm	|Resistivity|/Ohm.cm	Phase(Resistivity)/deg	Re(Conductivity)/mS/cm	Im(Conductivity)/mS/cm	|Conductivity|/mS/cm	Phase(Conductivity)/deg	Tan(Delta)	Loss Angle(Delta)/deg	dq/mA.h
399996	11.2216	3.1427	11.6534	-15.6453	142.671	0.453375	0.0312895	0.126608	0.00920795	1	38	0.0049155	0.000421809	0	2.70126e-05	-1	-1	-1	0	0	0	0	0	0	-1	-1	-1	0	0	0	0	0	0	0.0826326	0.0231419	0.085812	15.6453	9.20794	32.8788	34.1438	-74.3547	0.0000000E+000	0.0000000E+000	0.0000000E+000	74.3547	0.0000000E+000	0.0000000E+000	0.0000000E+000	-74.3547	0.0000000E+000	0.0000000E+000	0.0000000E+000	-15.6453	0.0000000E+000	0.0000000E+000	0.0000000E+000	15.6453	3.5707	74.3547	2.70126e-05
200434	11.5525	1.98044	11.721	-9.72768	146.111	0.453387	0.0306695	0.400946	0.0114468	1	38	0.0051784	0.000441806	0	5.67047e-05	-1	-1	-1	0	0	0	0	0	0	-1	-1	-1	0	0	0	0	0	0	0.0840904	0.0144156	0.0853171	9.72768	11.4468	66.772	67.7461	-80.2723	0.0000000E+000	0.0000000E+000	0.0000000E+000	80.2723	0.0000000E+000	0.0000000E+000	0.0000000E+000	-80.2723	0.0000000E+000	0.0000000E+000	0.0000000E+000	-9.72768	0.0000000E+000	0.0000000E+000	0.0000000E+000	9.72768	5.83327	80.2723	1.03076e-05
100431	11.836	1.73355	11.9623	-8.33251	149.552	0.45335	0.0304256	0.914154	0.0191982	1	38	0.00519561	0.000434333	0	8.47178e-05	1.31661	0.84059	25.2145	1.87942e-05	2.55603e-05	2.81829e-05	2.88778e-05	1.72979e-05	2.67194e-05	0.362326	0.202252	6.50097	8.79054e-07	6.32546e-07	6.75772e-07	4.10894e-07	4.98163e-07	3.79793e-07	0.0827136	0.0121145	0.0835961	8.33251	19.1982	131.079	132.477	-81.6675	0.0000000E+000	0.0000000E+000	0.0000000E+000	81.6675	0.0000000E+000	0.0000000E+000	0.0000000E+000	-81.6675	0.0000000E+000	0.0000000E+000	0.0000000E+000	-8.33251	0.0000000E+000	0.0000000E+000	0.0000000E+000	8.33251	6.82763	81.6675	9.49949e-06
50326.6	12.1181	1.92554	12.2702	-9.02868	152.992	0.453349	0.0308333	1.64236	0.0404459	1	38	0.00513523	0.000418514	0	0.000114478	1.3569	0.640438	25.7606	3.50452e-05	1.46399e-05	3.46944e-05	2.12455e-05	2.98089e-05	2.22495e-05	0.360056	0.276285	6.76	9.74827e-07	6.77378e-07	3.08606e-07	3.71359e-07	5.53955e-07	3.10406e-07	0.0804887	0.0127895	0.0814985	9.02868	40.4459	254.541	257.734	-80.9713	0.0000000E+000	0.0000000E+000	0.0000000E+000	80.9713	0.0000000E+000	0.0000000E+000	0.0000000E+000	-80.9713	0.0000000E+000	0.0000000E+000	0.0000000E+000	-9.02868	0.0000000E+000	0.0000000E+000	0.0000000E+000	9.02868	6.29336	80.9713	9.45344e-06
25219	12.7186	2.94204	13.0545	-13.0244	156.434	0.453367	0.0302394	2.14509	0.108949	1	38	0.00511322	0.000391683	0	0.000142529	1.12795	0.85844	25.6846	1.95162e-05	2.31299e-05	3.22613e-05	1.65025e-05	1.53643e-05	1.88315e-05	0.348206	0.344313	7.51421	6.3917e-07	2.32792e-07	6.63309e-07	4.69779e-07	4.01387e-07	5.91948e-07	0.0746315	0.0172635	0.0766022	13.0244	108.949	470.993	483.43	-76.9756	0.0000000E+000	0.0000000E+000	0.0000000E+000	76.9756	0.0000000E+000	0.0000000E+000	0.0000000E+000	-76.9756	0.0000000E+000	0.0000000E+000	0.0000000E+000	-13.0244	0.0000000E+000	0.0000000E+000	0.0000000E+000	13.0244	4.32307	76.9756	9.49427e-06
12637.3	13.6554	4.52992	14.3872	-18.3522	159.874	0.453379	0.0299471	2.78019	0.275615	1	38	0.00505196	0.000351143	0	0.00017069	1.45062	0.968878	26.1755	2.67565e-05	1.69844e-05	4.10871e-05	2.46261e-05	1.76516e-05	3.17081e-05	0.459285	0.346261	8.31919	5.82487e-07	5.1234e-07	8.10562e-07	5.3043e-07	4.08863e-07	6.81432e-07	0.0659711	0.0218846	0.0695063	18.3522	275.615	830.842	875.364	-71.6478	0.0000000E+000	0.0000000E+000	0.0000000E+000	71.6478	0.0000000E+000	0.0000000E+000	0.0000000E+000	-71.6478	0.0000000E+000	0.0000000E+000	0.0000000E+000	-18.3522	0.0000000E+000	0.0000000E+000	0.0000000E+000	18.3522	3.0145	71.6478	9.42822e-06
6332.63	15.2584	7.33138	16.9283	-25.6634	163.115	0.453259	0.02988	3.42808	0.642975	1	38	0.00536333	0.000316826	0	0.000197585	1.74485	0.637202	24.218	5.3727e-05	2.84375e-05	2.06029e-05	3.57898e-05	4.74244e-05	2.71805e-05	0.568604	0.352562	9.03055	1.11648e-06	4.25471e-07	5.22751e-07	3.54151e-07	6.99284e-07	6.74224e-07	0.0532453	0.0255834	0.0590726	25.6634	642.975	1338.19	1484.64	-64.3366	0.0000000E+000	0.0000000E+000	0.0000000E+000	64.3366	0.0000000E+000	0.0000000E+000	0.0000000E+000	-64.3366	0.0000000E+000	0.0000000E+000	0.0000000E+000	-25.6634	0.0000000E+000	0.0000000E+000	0.0000000E+000	25.6634	2.08125	64.3366	8.56605e-06
3171.96	17.9275	11.7061	21.4109	-33.1434	166.669	0.453257	0.0311871	4.28626	1.28125	1	38	0.00505801	0.000236235	0	0.000227275	1.70331	0.785376	26.0657	3.24655e-05	1.6929e-05	4.4095e-05	3.31789e-05	2.91722e-05	3.75111e-05	0.749855	0.331504	12.4993	7.67489e-07	7.29164e-07	8.11089e-07	6.16588e-07	4.16743e-07	5.72821e-07	0.0391064	0.0255354	0.0467051	33.1434	1281.25	1962.19	2343.46	-56.8566	0.0000000E+000	0.0000000E+000	0.0000000E+000	56.8566	0.0000000E+000	0.0000000E+000	0.0000000E+000	-56.8566	0.0000000E+000	0.0000000E+000	0.0000000E+000	-33.1434	0.0000000E+000	0.0000000E+000	0.0000000E+000	33.1434	1.53146	56.8566	9.20572e-06
1589.49	22.2318	18.6278	29.0043	-39.9593	169.986	0.453261	0.0308501	5.37527	2.21717	1	38	0.00498601	0.000171906	0	0.000255518	1.47448	0.571634	26.9271	2.36345e-05	2.07207e-05	4.64371e-05	1.86506e-05	3.08543e-05	2.07776e-05	1.16033	0.534408	16.761	1.12782e-06	5.53338e-07	3.8904e-07	6.50799e-07	1.01859e-06	6.22949e-07	0.0264272	0.022143	0.0344777	39.9593	2217.17	2646.14	3452.23	-50.0407	0.0000000E+000	0.0000000E+000	0.0000000E+000	50.0407	0.0000000E+000	0.0000000E+000	0.0000000E+000	-50.0407	0.0000000E+000	0.0000000E+000	0.0000000E+000	-39.9593	0.0000000E+000	0.0000000E+000	0.0000000E+000	39.9593	1.19347	50.0407	9.34708e-06
796.787	29.2846	29.7816	41.7676	-45.4821	173.559	0.453242	0.0373399	6.70701	3.40994	1	39	0.00519988	0.000124495	0	0.000289467	1.36771	0.647637	22.1941	3.07803e-05	1.32828e-05	2.77309e-05	3.68909e-05	2.32386e-05	2.75642e-05	0.72727	0.355617	9.32836	7.30919e-07	2.02054e-07	2.82994e-07	2.47201e-07	2.61652e-07	1.14782e-07	0.0167865	0.0170714	0.023942	45.4821	3409.94	3353.03	4782.31	-44.5179	0.0000000E+000	0.0000000E+000	0.0000000E+000	44.5179	0.0000000E+000	0.0000000E+000	0.0000000E+000	-44.5179	0.0000000E+000	0.0000000E+000	0.0000000E+000	-45.4821	0.0000000E+000	0.0000000E+000	0.0000000E+000	45.4821	0.983311	44.5179	1.14539e-05
399.106	40.8366	46.163	61.6332	-48.5035	176.883	0.453258	0.036947	8.6385	4.84615	1	39	0.0050043	8.1195e-05	0	0.000323633	1.45525	0.698788	24.2572	2.43708e-05	3.47155e-05	3.3263e-05	2.47218e-05	3.33072e-05	2.0557e-05	1.09366	0.598235	14.4463	3.80086e-07	4.65912e-07	2.74922e-07	2.50377e-07	2.63187e-07	2.94384e-07	0.0107503	0.0121525	0.016225	48.5035	4846.15	4286.99	6470.2	-41.4965	0.0000000E+000	0.0000000E+000	0.0000000E+000	41.4965	0.0000000E+000	0.0000000E+000	0.0000000E+000	-41.4965	0.0000000E+000	0.0000000E+000	0.0000000E+000	-48.5035	0.0000000E+000	0.0000000E+000	0.0000000E+000	48.5035	0.884618	41.4966	1.12974e-05
199.936	58.652	72.0808	92.9285	-50.8648	180.195	0.453266	0.0367901	11.0436	6.64432	1	39	0.00493385	5.3093e-05	0	0.000357373	1.13045	0.791469	23.826	2.92741e-05	2.05825e-05	2.20276e-05	2.07887e-05	1.17363e-05	2.21476e-05	1.39497	0.696156	22.6883	2.36955e-07	3.46854e-07	2.5421e-07	2.1074e-07	3.98103e-07	2.01262e-07	0.00679181	0.00834684	0.010761	50.8648	6644.32	5406.47	8566.03	-39.1352	0.0000000E+000	0.0000000E+000	0.0000000E+000	39.1352	0.0000000E+000	0.0000000E+000	0.0000000E+000	-39.1352	0.0000000E+000	0.0000000E+000	0.0000000E+000	-50.8648	0.0000000E+000	0.0000000E+000	0.0000000E+000	50.8648	0.813698	39.1352	1.12457e-05
100.224	90.1395	110.857	142.879	-50.8848	183.51	0.453261	0.0366181	14.3247	8.62329	1	39	0.00492935	3.45003e-05	0	0.000390908	1.46441	0.773811	23.8549	2.4478e-05	3.28494e-05	3.47347e-05	2.20973e-05	2.08543e-05	2.0796e-05	1.92935	1.06868	33.262	3.97723e-07	2.23279e-07	1.74446e-07	1.7757e-07	2.24596e-07	2.32798e-07	0.0044155	0.00543034	0.00699895	50.8848	8623.29	7011.76	11114.2	-39.1152	0.0000000E+000	0.0000000E+000	0.0000000E+000	39.1152	0.0000000E+000	0.0000000E+000	0.0000000E+000	-39.1152	0.0000000E+000	0.0000000E+000	0.0000000E+000	-50.8848	0.0000000E+000	0.0000000E+000	0.0000000E+000	50.8848	0.813118	39.1152	1.11376e-05
50.2089	142.709	162.415	216.205	-48.6952	186.991	0.453277	0.0367292	19.5171	11.0138	1	40	0.00496367	2.29582e-05	0	0.000425529	1.78259	0.922055	32.3826	5.44371e-05	1.50849e-05	3.43198e-05	2.57551e-05	2.35629e-05	3.68716e-05	1.23684	0.245073	8.70328	2.56595e-07	5.11852e-08	4.56243e-08	6.38808e-08	4.11614e-08	4.29093e-08	0.00305296	0.00347453	0.00462525	48.6952	11013.8	9677.46	14661.4	-41.3048	0.0000000E+000	0.0000000E+000	0.0000000E+000	41.3048	0.0000000E+000	0.0000000E+000	0.0000000E+000	-41.3048	0.0000000E+000	0.0000000E+000	0.0000000E+000	-48.6952	0.0000000E+000	0.0000000E+000	0.0000000E+000	48.6952	0.87867	41.3048	1.30279e-05
25.1691	227.263	223.322	318.623	-44.4989	190.168	0.453286	0.0364413	28.3153	13.91	1	40	0.00493657	1.54934e-05	0	0.000457629	1.87953	0.843248	32.6098	4.82294e-05	4.33272e-05	1.6504e-05	3.89825e-05	3.05751e-05	2.76588e-05	1.64265	0.44061	13.4142	2.35497e-07	3.58493e-08	3.67685e-08	6.93881e-08	2.65844e-08	1.88208e-08	0.00223858	0.00219976	0.0031385	44.4989	13910	14155.5	19846.1	-45.5011	0.0000000E+000	0.0000000E+000	0.0000000E+000	45.5011	0.0000000E+000	0.0000000E+000	0.0000000E+000	-45.5011	0.0000000E+000	0.0000000E+000	0.0000000E+000	-44.4989	0.0000000E+000	0.0000000E+000	0.0000000E+000	44.4989	1.01765	45.5011	1.07397e-05
12.6144	349.788	278.666	447.221	-38.5433	193.445	0.453275	0.0361714	45.2763	17.579	1	40	0.00490658	1.09712e-05	0	0.000490318	1.24742	0.844009	22.9293	1.67856e-05	2.35831e-05	2.2832e-05	3.56153e-05	2.29755e-05	1.9567e-05	1.93087	0.454516	12.8337	2.03424e-07	2.63995e-08	1.47138e-08	2.60058e-08	2.54497e-08	2.71617e-08	0.00174888	0.00139328	0.00223603	38.5433	17579	22065.6	28211.9	-51.4567	0.0000000E+000	0.0000000E+000	0.0000000E+000	51.4567	0.0000000E+000	0.0000000E+000	0.0000000E+000	-51.4567	0.0000000E+000	0.0000000E+000	0.0000000E+000	-38.5433	0.0000000E+000	0.0000000E+000	0.0000000E+000	38.5433	1.25522	51.4567	1.15373e-05
6.31569	507.477	309.365	594.34	-31.3671	197.093	0.453268	0.0358703	81.4569	22.07	1	40	0.00490191	8.24767e-06	0	0.000526355	1.01649	0.572795	22.4629	2.01683e-05	8.39191e-06	2.48659e-05	2.38515e-05	9.42376e-06	1.9112e-05	2.4042	0.488364	16.9451	1.84499e-07	2.84227e-08	4.02515e-08	2.61403e-08	1.39595e-08	3.28486e-08	0.00143664	0.000875795	0.00168254	31.3671	22070	36203.2	42399.9	-58.6329	0.0000000E+000	0.0000000E+000	0.0000000E+000	58.6329	0.0000000E+000	0.0000000E+000	0.0000000E+000	-58.6329	0.0000000E+000	0.0000000E+000	0.0000000E+000	-31.3671	0.0000000E+000	0.0000000E+000	0.0000000E+000	31.3671	1.64038	58.6329	1.35332e-05
3.16616	668.825	300.797	733.353	-24.2153	203.619	0.453278	0.0354207	167.114	28.1148	1	41	0.00489946	6.68091e-06	0	0.000590209	0.811618	0.411537	17.0501	6.47906e-06	2.19325e-05	8.26532e-06	1.90139e-05	1.73497e-05	9.37131e-06	2.49344	0.332764	2.58911	1.65815e-07	1.14687e-08	5.58943e-09	6.68439e-09	4.91813e-09	3.69705e-09	0.00124362	0.000559304	0.0013636	24.2153	28114.8	62513.5	68544.7	-65.7847	0.0000000E+000	0.0000000E+000	0.0000000E+000	65.7847	0.0000000E+000	0.0000000E+000	0.0000000E+000	-65.7847	0.0000000E+000	0.0000000E+000	0.0000000E+000	-24.2153	0.0000000E+000	0.0000000E+000	0.0000000E+000	24.2153	2.22351	65.7847	2.91195e-05
1.5871	811.538	264.504	853.555	-18.0523	214.051	0.45325	0.0346953	379.126	36.407	1	41	0.00490268	5.74383e-06	0	0.00069104	0.657831	0.330732	11.8663	8.0217e-06	1.29532e-05	6.28421e-06	1.554e-05	1.3205e-05	1.41242e-05	2.62301	0.652278	2.25671	1.50016e-07	8.9979e-09	3.84343e-09	7.21191e-09	3.02394e-09	3.75481e-09	0.0011139	0.000363052	0.00117157	18.0523	36407	111702	117485	-71.9477	0.0000000E+000	0.0000000E+000	0.0000000E+000	71.9477	0.0000000E+000	0.0000000E+000	0.0000000E+000	-71.9477	0.0000000E+000	0.0000000E+000	0.0000000E+000	-18.0523	0.0000000E+000	0.0000000E+000	0.0000000E+000	18.0523	3.06815	71.9477	4.03898e-05
0.79456	927.775	234.825	957.031	-14.2036	233.725	0.453276	0.0335067	853.002	51.3553	1	41	0.00490438	5.12458e-06	0	0.000876733	0.434567	0.136954	7.82624	1.22108e-05	6.06541e-06	8.81129e-06	1.06114e-05	2.59958e-06	6.1475e-06	2.93787	0.993056	2.0116	1.49745e-07	1.18994e-08	5.66208e-09	5.34689e-09	3.93204e-09	2.48671e-09	0.00101296	0.000256384	0.0010449	14.2036	51355.3	202901	209299	-75.7964	0.0000000E+000	0.0000000E+000	0.0000000E+000	75.7964	0.0000000E+000	0.0000000E+000	0.0000000E+000	-75.7964	0.0000000E+000	0.0000000E+000	0.0000000E+000	-14.2036	0.0000000E+000	0.0000000E+000	0.0000000E+000	14.2036	3.95093	75.7964	7.50894e-05
0.398211	1046.59	223.267	1070.14	-12.0423	271.853	0.453273	0.0316381	1790.12	77.9203	1	41	0.00490675	4.58516e-06	0	0.00121944	0.261694	0.196291	5.48525	4.30286e-06	6.80909e-06	4.21671e-06	4.91827e-06	2.80489e-06	5.40003e-06	3.16731	1.71989	1.87667	1.43989e-07	1.0463e-08	1.09213e-08	6.23042e-09	6.11123e-09	4.83122e-09	0.000913895	0.000194959	0.000934459	12.0423	77920.3	365261	373480	-77.9577	0.0000000E+000	0.0000000E+000	0.0000000E+000	77.9577	0.0000000E+000	0.0000000E+000	0.0000000E+000	-77.9577	0.0000000E+000	0.0000000E+000	0.0000000E+000	-12.0423	0.0000000E+000	0.0000000E+000	0.0000000E+000	12.0423	4.68762	77.9577	0.000138547
0.199573	1197.98	245.027	1222.78	-11.5595	347.006	0.453283	0.0291318	3254.64	130.687	1	41	0.0049047	4.01109e-06	0	0.00184896	0.318639	0.113841	4.03601	5.93005e-06	9.02398e-06	3.69627e-06	7.04274e-06	3.83853e-06	3.94462e-06	3.46723	2.6597	1.83257	1.37039e-07	1.20908e-08	1.38366e-08	1.0467e-08	6.84885e-09	7.60722e-09	0.000801219	0.000163876	0.000817807	11.5595	130687	638953	652181	-78.4405	0.0000000E+000	0.0000000E+000	0.0000000E+000	78.4405	0.0000000E+000	0.0000000E+000	0.0000000E+000	-78.4405	0.0000000E+000	0.0000000E+000	0.0000000E+000	-11.5595	0.0000000E+000	0.0000000E+000	0.0000000E+000	11.5595	4.88918	78.4405	0.00025199
0.0999518	1366.08	221.322	1383.89	-9.20269	496.061	0.453275	0.0263744	7194.56	184.014	1	41	0.00490846	3.54686e-06	0	0.00298816	0.221063	0.0963431	3.12917	4.36429e-06	5.97115e-06	4.29793e-06	5.01125e-06	1.68136e-06	3.26572e-06	3.96651	3.43644	1.86388	1.36348e-07	2.31358e-08	1.56379e-08	1.53169e-08	1.03315e-08	8.83217e-09	0.000713299	0.000115564	0.0007226	9.20269	184014	1.1358e+06	1.15061e+06	-80.7973	0.0000000E+000	0.0000000E+000	0.0000000E+000	80.7973	0.0000000E+000	0.0000000E+000	0.0000000E+000	-80.7973	0.0000000E+000	0.0000000E+000	0.0000000E+000	-9.20269	0.0000000E+000	0.0000000E+000	0.0000000E+000	9.20269	6.17235	80.7973	0.000456298
252347	12.3906	3.26514	12.8136	-14.7628	501.398	0.453366	0.0215311	0.193161	0.0125424	2	38	0.00523136	0.000408266	0	0.00301769	-1	-1	-1	0	0	0	0	0	0	-1	-1	-1	0	0	0	0	0	0	0.0754658	0.0198865	0.0780421	14.7628	12.5424	47.5961	49.2209	-75.2372	0.0000000E+000	0.0000000E+000	0.0000000E+000	75.2372	0.0000000E+000	0.0000000E+000	0.0000000E+000	-75.2372	0.0000000E+000	0.0000000E+000	0.0000000E+000	-14.7628	0.0000000E+000	0.0000000E+000	0.0000000E+000	14.7628	3.79482	75.2372	6.65366e-06
126447	13.0439	2.75237	13.3311	-11.9151	504.839	0.453397	0.0228289	0.457303	0.0194933	2	38	0.00519806	0.00038992	0	0.00303799	-1	-1	-1	0	0	0	0	0	0	-1	-1	-1	0	0	0	0	0	0	0.0733965	0.0154873	0.0750127	11.9151	19.4933	92.3816	94.4158	-78.0849	0.0000000E+000	0.0000000E+000	0.0000000E+000	78.0849	0.0000000E+000	0.0000000E+000	0.0000000E+000	-78.0849	0.0000000E+000	0.0000000E+000	0.0000000E+000	-11.9151	0.0000000E+000	0.0000000E+000	0.0000000E+000	11.9151	4.73914	78.0849	7.77793e-06
63362.9	13.749	3.03107	14.0791	-12.4324	508.28	0.453375	0.0229052	0.828684	0.0384086	2	38	0.00519669	0.000369105	0	0.00305919	1.43426	0.689412	25.4338	1.97673e-05	3.69333e-05	1.86861e-05	3.49332e-05	1.02579e-05	4.11835e-05	0.481597	0.236638	7.84422	9.81604e-07	6.41549e-07	5.86187e-07	7.96145e-07	3.78736e-07	7.0326e-07	0.0693615	0.0152913	0.071027	12.4324	38.4086	174.222	178.406	-77.5676	0.0000000E+000	0.0000000E+000	0.0000000E+000	77.5676	0.0000000E+000	0.0000000E+000	0.0000000E+000	-77.5676	0.0000000E+000	0.0000000E+000	0.0000000E+000	-12.4324	0.0000000E+000	0.0000000E+000	0.0000000E+000	12.4324	4.53602	77.5676	6.40633e-06
31751	14.7044	3.90706	15.2146	-14.8801	511.723	0.453402	0.0226501	1.28296	0.0846038	2	38	0.00514371	0.000338076	0	0.00308027	1.41274	0.537247	26.3235	3.8568e-05	3.04761e-05	1.8949e-05	2.11966e-05	3.25971e-05	2.02198e-05	0.456696	0.330212	8.19726	9.09789e-07	3.01194e-07	6.49298e-07	4.18474e-07	6.18575e-07	2.64704e-07	0.0635221	0.0168783	0.0657262	14.8801	84.6038	318.41	329.458	-75.1199	0.0000000E+000	0.0000000E+000	0.0000000E+000	75.1199	0.0000000E+000	0.0000000E+000	0.0000000E+000	-75.1199	0.0000000E+000	0.0000000E+000	0.0000000E+000	-14.8801	0.0000000E+000	0.0000000E+000	0.0000000E+000	14.8801	3.76355	75.1199	6.78442e-06
15912.6	16.0364	5.6637	17.0071	-19.4521	515.164	0.45337	0.0224937	1.76595	0.195847	2	38	0.00504206	0.000296467	0	0.00310127	1.6793	0.613551	26.7566	3.31892e-05	3.39959e-05	2.74073e-05	2.22345e-05	2.16046e-05	4.29417e-05	0.406165	0.232001	9.76691	7.21474e-07	3.89893e-07	3.19225e-07	4.64937e-07	2.58226e-07	4.96971e-07	0.0554426	0.0195811	0.0587989	19.4521	195.846	554.526	588.094	-70.5479	0.0000000E+000	0.0000000E+000	0.0000000E+000	70.5479	0.0000000E+000	0.0000000E+000	0.0000000E+000	-70.5479	0.0000000E+000	0.0000000E+000	0.0000000E+000	-19.4521	0.0000000E+000	0.0000000E+000	0.0000000E+000	19.4521	2.83143	70.5479	7.31059e-06
7967.67	17.8587	8.46954	19.7653	-25.3727	518.5	0.453253	0.0228084	2.35846	0.433053	2	38	0.00519245	0.000262705	0	0.00312196	1.41966	0.541258	25.3759	3.32898e-05	1.72809e-05	3.33189e-05	2.45883e-05	3.48551e-05	1.61473e-05	0.628246	0.330402	10.8629	4.11944e-07	4.28916e-07	5.43606e-07	6.63696e-07	8.01919e-07	7.60957e-07	0.0457134	0.0216796	0.0505937	25.3727	433.053	913.129	1010.61	-64.6273	0.0000000E+000	0.0000000E+000	0.0000000E+000	64.6273	0.0000000E+000	0.0000000E+000	0.0000000E+000	-64.6273	0.0000000E+000	0.0000000E+000	0.0000000E+000	-25.3727	0.0000000E+000	0.0000000E+000	0.0000000E+000	25.3727	2.10859	64.6273	7.15345e-06
3993.72	20.8784	13.1482	24.6735	-32.2006	522.001	0.453254	0.0226445	3.03094	0.860686	2	38	0.00503555	0.000204087	0	0.00314293	1.13823	0.901502	27.2023	1.98937e-05	2.66249e-05	1.89178e-05	1.54047e-05	1.38958e-05	3.12576e-05	0.927915	0.43146	14.013	1.15129e-06	5.46955e-07	5.26835e-07	8.863e-07	5.45624e-07	4.06815e-07	0.0342954	0.0215974	0.0405293	32.2006	860.686	1366.72	1615.14	-57.7994	0.0000000E+000	0.0000000E+000	0.0000000E+000	57.7994	0.0000000E+000	0.0000000E+000	0.0000000E+000	-57.7994	0.0000000E+000	0.0000000E+000	0.0000000E+000	-32.2006	0.0000000E+000	0.0000000E+000	0.0000000E+000	32.2006	1.58794	57.7994	6.96353e-06
2001.92	25.6234	20.7777	32.989	-39.0383	525.319	0.453275	0.0224602	3.82627	1.51787	2	38	0.00502191	0.00015223	0	0.00316349	1.47969	0.790077	25.9541	2.6855e-05	2.93685e-05	3.78453e-05	2.29409e-05	2.22975e-05	3.23101e-05	1.12975	0.591984	18.4642	5.69261e-07	4.92992e-07	7.72731e-07	7.48042e-07	8.29722e-07	5.4317e-07	0.023545	0.0190924	0.0303132	39.0383	1517.87	1871.86	2409.93	-50.9617	0.0000000E+000	0.0000000E+000	0.0000000E+000	50.9617	0.0000000E+000	0.0000000E+000	0.0000000E+000	-50.9617	0.0000000E+000	0.0000000E+000	0.0000000E+000	-39.0383	0.0000000E+000	0.0000000E+000	0.0000000E+000	39.0383	1.23321	50.9617	6.8918e-06
1002.75	33.173	31.7166	45.8954	-43.7143	528.894	0.453246	0.0253164	5.00426	2.38988	2	39	0.00520446	0.000113398	0	0.00318796	1.44921	0.706329	22.8701	3.09512e-05	2.44403e-05	7.36502e-06	2.75694e-05	3.59442e-05	3.75079e-05	0.708147	0.425887	10.0554	5.79969e-07	1.64196e-07	1.68851e-07	1.94503e-07	3.16035e-07	2.7397e-07	0.0157487	0.0150573	0.0217887	43.7143	2389.88	2499.61	3458.26	-46.2857	0.0000000E+000	0.0000000E+000	0.0000000E+000	46.2857	0.0000000E+000	0.0000000E+000	0.0000000E+000	-46.2857	0.0000000E+000	0.0000000E+000	0.0000000E+000	-43.7143	0.0000000E+000	0.0000000E+000	0.0000000E+000	43.7143	1.04592	46.2857	7.70524e-06
502.588	45.1615	49.2389	66.8134	-47.4732	532.215	0.45331	0.0255244	6.43132	3.49293	2	39	0.00503472	7.5355e-05	0	0.00321107	1.74624	0.784173	24.1021	3.00645e-05	1.36418e-05	3.18501e-05	3.67381e-05	3.79169e-05	3.94027e-05	1.14383	0.279967	15.7245	5.61857e-07	1.75103e-07	3.39031e-07	2.64378e-07	2.86257e-07	3.17738e-07	0.0101168	0.0110301	0.0149671	47.4732	3492.93	3203.68	4739.63	-42.5268	0.0000000E+000	0.0000000E+000	0.0000000E+000	42.5268	0.0000000E+000	0.0000000E+000	0.0000000E+000	-42.5268	0.0000000E+000	0.0000000E+000	0.0000000E+000	-47.4732	0.0000000E+000	0.0000000E+000	0.0000000E+000	47.4732	0.917192	42.5268	7.80584e-06
251.853	63.4646	74.651	97.9823	-49.6305	535.529	0.453284	0.0254359	8.46518	4.91375	2	39	0.00493164	5.03319e-05	0	0.00323429	1.14565	0.567627	24.1883	1.87049e-05	2.22853e-05	2.02794e-05	2.67686e-05	2.15765e-05	2.3393e-05	1.32539	0.541612	23.8095	3.48742e-07	2.27637e-07	1.79666e-07	3.38173e-07	1.77259e-07	2.85548e-07	0.00661053	0.00777572	0.0102059	49.6305	4913.75	4177.42	6449.48	-40.3695	0.0000000E+000	0.0000000E+000	0.0000000E+000	40.3695	0.0000000E+000	0.0000000E+000	0.0000000E+000	-40.3695	0.0000000E+000	0.0000000E+000	0.0000000E+000	-49.6305	0.0000000E+000	0.0000000E+000	0.0000000E+000	49.6305	0.85015	40.3695	7.74207e-06
126.171	95.0287	113.905	148.34	-50.1625	538.846	0.453277	0.0251824	11.0743	6.52958	2	39	0.0049246	3.3198e-05	0	0.00325744	1.15292	0.596401	23.509	1.92342e-05	1.91888e-05	2.36614e-05	2.59547e-05	2.83929e-05	1.58422e-05	2.42554	1.19811	34.7787	4.75688e-07	2.82801e-07	2.64853e-07	3.4014e-07	2.83123e-07	2.15877e-07	0.00431853	0.00517637	0.00674126	50.1625	6529.58	5447.49	8503.56	-39.8375	0.0000000E+000	0.0000000E+000	0.0000000E+000	39.8375	0.0000000E+000	0.0000000E+000	0.0000000E+000	-39.8375	0.0000000E+000	0.0000000E+000	0.0000000E+000	-50.1625	0.0000000E+000	0.0000000E+000	0.0000000E+000	50.1625	0.834278	39.8375	7.66879e-06
63.2394	146.072	167.121	221.961	-48.845	542.373	0.453293	0.0253467	15.0591	8.53714	2	40	0.00496866	2.23853e-05	0	0.00328173	1.48446	0.925779	32.7525	3.52017e-05	1.36455e-05	4.23363e-05	1.60067e-05	2.79206e-05	2.43056e-05	1.33458	0.238578	8.96393	2.83867e-07	4.58212e-08	3.57481e-08	4.11299e-08	3.97087e-08	1.79909e-08	0.00296493	0.00339219	0.0045053	48.845	8537.14	7461.86	11338.5	-41.155	0.0000000E+000	0.0000000E+000	0.0000000E+000	41.155	0.0000000E+000	0.0000000E+000	0.0000000E+000	-41.155	0.0000000E+000	0.0000000E+000	0.0000000E+000	-48.845	0.0000000E+000	0.0000000E+000	0.0000000E+000	48.845	0.874046	41.155	9.13091e-06
31.6723	229.111	234.583	327.904	-45.676	545.549	0.453251	0.0252953	21.4213	10.9634	2	40	0.00492881	1.50313e-05	0	0.00330388	2.01443	0.926471	32.9115	2.22799e-05	2.96009e-05	5.28594e-05	4.08647e-05	4.14585e-05	2.57278e-05	1.50403	0.290228	13.3339	2.01395e-07	3.93829e-08	4.88319e-08	5.62675e-08	4.82097e-08	2.23434e-08	0.00213085	0.00218174	0.00304968	45.676	10963.4	10707.7	15324.8	-44.324	0.0000000E+000	0.0000000E+000	0.0000000E+000	44.324	0.0000000E+000	0.0000000E+000	0.0000000E+000	-44.324	0.0000000E+000	0.0000000E+000	0.0000000E+000	-45.676	0.0000000E+000	0.0000000E+000	0.0000000E+000	45.676	0.976676	44.3239	7.26325e-06
15.879	354.212	304.241	466.935	-40.6601	548.721	0.453256	0.0252192	32.9441	13.9862	2	40	0.00490211	1.04985e-05	0	0.00332596	1.51074	1.01881	32.1189	2.7186e-05	3.0226e-05	3.25831e-05	1.37543e-05	3.90757e-05	2.7036e-05	1.72873	0.525314	18.8513	1.58596e-07	2.95292e-08	3.87056e-08	2.68848e-08	5.29082e-08	2.93462e-08	0.00162461	0.00139542	0.00214162	40.6601	13986.2	16283.4	21465.4	-49.3399	0.0000000E+000	0.0000000E+000	0.0000000E+000	49.3399	0.0000000E+000	0.0000000E+000	0.0000000E+000	-49.3399	0.0000000E+000	0.0000000E+000	0.0000000E+000	-40.6601	0.0000000E+000	0.0000000E+000	0.0000000E+000	40.6601	1.16425	49.34	7.23844e-06
7.95573	526.906	358.381	637.234	-34.222	552.158	0.453267	0.0251995	55.8206	17.6558	2	40	0.00491597	7.71453e-06	0	0.00334977	1.05613	0.828526	22.6993	1.00044e-05	2.19386e-05	1.47782e-05	2.31278e-05	2.57839e-05	1.91387e-05	2.34378	0.748784	18.5396	1.61415e-07	2.68401e-08	4.11169e-08	3.39442e-08	3.87038e-08	2.7616e-08	0.00129758	0.000882566	0.00156928	34.222	17655.8	25958.2	31393.6	-55.778	0.0000000E+000	0.0000000E+000	0.0000000E+000	55.778	0.0000000E+000	0.0000000E+000	0.0000000E+000	-55.778	0.0000000E+000	0.0000000E+000	0.0000000E+000	-34.222	0.0000000E+000	0.0000000E+000	0.0000000E+000	34.222	1.47024	55.778	8.37102e-06
3.98597	719.951	368.427	808.744	-27.1006	557.63	0.453267	0.0251659	108.376	22.4913	2	41	0.00492467	6.08928e-06	0	0.00338755	1.09346	0.576793	19.3713	1.89738e-05	1.99901e-05	3.23612e-05	2.16692e-05	1.35732e-05	1.34491e-05	2.44184	0.0802137	3.17234	1.47994e-07	8.16218e-09	3.00599e-09	9.9777e-09	2.635e-09	2.1347e-09	0.00110073	0.000563286	0.00123649	27.1006	22491.3	43950.8	49371.3	-62.8994	0.0000000E+000	0.0000000E+000	0.0000000E+000	62.8994	0.0000000E+000	0.0000000E+000	0.0000000E+000	-62.8994	0.0000000E+000	0.0000000E+000	0.0000000E+000	-27.1006	0.0000000E+000	0.0000000E+000	0.0000000E+000	27.1006	1.95412	62.8994	1.69821e-05
1.99783	891.88	332.031	951.68	-20.4194	566.159	0.453261	0.0249993	239.929	29.2051	2	41	0.00490949	5.15876e-06	0	0.00344677	0.621468	0.348773	12.8553	1.19154e-05	8.01864e-06	9.10838e-06	1.52138e-05	1.38078e-05	1.15818e-05	2.69477	0.176338	2.64142	1.38551e-07	8.49458e-09	3.21803e-09	5.32399e-09	1.42593e-09	2.93412e-09	0.000984747	0.000366604	0.00105077	20.4194	29205.1	78448.8	83708.8	-69.5806	0.0000000E+000	0.0000000E+000	0.0000000E+000	69.5806	0.0000000E+000	0.0000000E+000	0.0000000E+000	-69.5806	0.0000000E+000	0.0000000E+000	0.0000000E+000	-20.4194	0.0000000E+000	0.0000000E+000	0.0000000E+000	20.4194	2.68613	69.5806	2.37673e-05
1.00122	1029	286.558	1068.15	-15.5616	582.023	0.45326	0.0249079	554.728	39.9243	2	41	0.00490715	4.59405e-06	0	0.00355608	0.478697	0.327782	9.01744	3.20035e-06	8.75539e-06	6.56659e-06	1.24773e-05	6.30807e-06	1.14684e-05	2.89607	0.391418	2.39314	1.32752e-07	4.92166e-09	2.46364e-09	5.35493e-09	2.28617e-09	2.48335e-09	0.000901878	0.000251157	0.000936196	15.5616	39924.3	143364	148819	-74.4384	0.0000000E+000	0.0000000E+000	0.0000000E+000	74.4384	0.0000000E+000	0.0000000E+000	0.0000000E+000	-74.4384	0.0000000E+000	0.0000000E+000	0.0000000E+000	-15.5616	0.0000000E+000	0.0000000E+000	0.0000000E+000	15.5616	3.59089	74.4384	4.4484e-05
0.501541	1137.64	262.533	1167.54	-12.9947	612.519	0.453268	0.0244114	1208.73	61.1163	2	41	0.00490558	4.20165e-06	0	0.0037644	0.309866	0.178491	6.1246	3.39117e-06	9.70535e-06	2.63037e-06	6.89274e-06	4.14701e-06	5.27656e-06	3.0517	0.533725	2.1114	1.27875e-07	6.39075e-09	2.39486e-09	4.07804e-09	2.14241e-09	1.8813e-09	0.00083457	0.000192594	0.000856504	12.9947	61116.3	264836	271796	-77.0053	0.0000000E+000	0.0000000E+000	0.0000000E+000	77.0053	0.0000000E+000	0.0000000E+000	0.0000000E+000	-77.0053	0.0000000E+000	0.0000000E+000	0.0000000E+000	-12.9947	0.0000000E+000	0.0000000E+000	0.0000000E+000	12.9947	4.3333	77.0053	8.49239e-05
0.251222	1248.03	256.792	1274.17	-11.6268	672.415	0.453259	0.0246847	2467.07	100.205	2	41	0.00490412	3.84887e-06	0	0.00417026	0.298128	0.226682	4.51528	5.14213e-06	6.26201e-06	6.17901e-06	7.09421e-06	2.22398e-06	5.75008e-06	3.06769	0.850703	1.82409	1.17775e-07	3.98716e-09	3.65545e-09	4.83912e-09	2.23307e-09	1.53967e-09	0.00076872	0.00015817	0.000784824	11.6268	100205	487002	497205	-78.3732	0.0000000E+000	0.0000000E+000	0.0000000E+000	78.3732	0.0000000E+000	0.0000000E+000	0.0000000E+000	-78.3732	0.0000000E+000	0.0000000E+000	0.0000000E+000	-11.6268	0.0000000E+000	0.0000000E+000	0.0000000E+000	11.6268	4.86008	78.3732	0.000168343
0.125939	1406.53	264.585	1431.2	-10.6535	790.976	0.453265	0.023497	4776.34	163.239	2	41	0.00490936	3.43024e-06	0	0.00496427	0.21837	0.09934	3.15768	3.33641e-06	6.17671e-06	2.69732e-06	2.62669e-06	4.40012e-06	4.69338e-06	3.33962	2.13646	1.62353	1.12471e-07	1.63446e-08	8.6636e-09	5.47774e-09	6.1804e-09	5.07255e-09	0.00068667	0.000129171	0.000698714	10.6535	163239	867779	882999	-79.3465	0.0000000E+000	0.0000000E+000	0.0000000E+000	79.3465	0.0000000E+000	0.0000000E+000	0.0000000E+000	-79.3465	0.0000000E+000	0.0000000E+000	0.0000000E+000	-10.6535	0.0000000E+000	0.0000000E+000	0.0000000E+000	10.6535	5.31599	79.3465	0.000322549
317705	12.2896	3.78598	12.8595	-17.1222	856.414	0.453372	0.0219333	0.132317	0.011469	3	38	0.00510111	0.00039668	0	0.00538066	-1	-1	-1	0	0	0	0	0	0	-1	-1	-1	0	0	0	0	0	0	0.0743168	0.0228944	0.0777633	17.1222	11.469	37.2291	38.9557	-72.8778	0.0000000E+000	0.0000000E+000	0.0000000E+000	72.8778	0.0000000E+000	0.0000000E+000	0.0000000E+000	-72.8778	0.0000000E+000	0.0000000E+000	0.0000000E+000	-17.1222	0.0000000E+000	0.0000000E+000	0.0000000E+000	17.1222	3.24607	72.8778	6.59934e-06
159201	13.17	3.16372	13.5447	-13.5077	859.855	0.453354	0.0225049	0.315993	0.0172399	3	38	0.00517114	0.000381784	0	0.00540082	-1	-1	-1	0	0	0	0	0	0	-1	-1	-1	0	0	0	0	0	0	0.0717874	0.0172449	0.0738297	13.5077	17.2399	71.7669	73.8085	-76.4923	0.0000000E+000	0.0000000E+000	0.0000000E+000	76.4923	0.0000000E+000	0.0000000E+000	0.0000000E+000	-76.4923	0.0000000E+000	0.0000000E+000	0.0000000E+000	-13.5077	0.0000000E+000	0.0000000E+000	0.0000000E+000	13.5077	4.16283	76.4923	6.81401e-06
79767.3	14.0807	3.33405	14.47	-13.3213	863.296	0.453351	0.0212332	0.598443	0.0317709	3	38	0.00519072	0.000358723	0	0.00542098	1.59706	0.808165	24.9335	3.62933e-05	1.49916e-05	2.16863e-05	1.9973e-05	1.59393e-05	6.13422e-05	0.449058	0.206811	7.86926	7.92749e-07	3.6337e-07	3.60778e-07	4.37536e-07	4.00889e-07	1.1108e-06	0.0672489	0.0159233	0.0691084	13.3213	31.7709	134.178	137.888	-76.6787	0.0000000E+000	0.0000000E+000	0.0000000E+000	76.6787	0.0000000E+000	0.0000000E+000	0.0000000E+000	-76.6787	0.0000000E+000	0.0000000E+000	0.0000000E+000	-13.3213	0.0000000E+000	0.0000000E+000	0.0000000E+000	13.3213	4.22329	76.6787	6.62121e-06
39971.8	15.0655	4.15005	15.6266	-15.4012	866.738	0.453359	0.0205908	0.959429	0.0676691	3	38	0.00515057	0.000329602	0	0.00544114	1.94923	0.699325	25.6746	3.80348e-05	1.44593e-05	3.9283e-05	4.15445e-05	5.70192e-05	2.47273e-05	0.438243	0.306048	8.65703	3.57257e-07	5.77602e-07	5.92293e-07	2.5922e-07	7.36151e-07	5.66624e-07	0.0616954	0.0169951	0.0639934	15.4012	67.6691	245.651	254.801	-74.5988	0.0000000E+000	0.0000000E+000	0.0000000E+000	74.5988	0.0000000E+000	0.0000000E+000	0.0000000E+000	-74.5988	0.0000000E+000	0.0000000E+000	0.0000000E+000	-15.4012	0.0000000E+000	0.0000000E+000	0.0000000E+000	15.4012	3.63019	74.5988	6.61544e-06
20032.3	16.5207	5.71165	17.4802	-19.0717	870.178	0.453373	0.0213877	1.391	0.148512	3	38	0.0051338	0.000293693	0	0.00546151	1.43034	0.49051	25.3083	1.52735e-05	2.19468e-05	2.68301e-05	3.87821e-05	3.54992e-05	2.29649e-05	0.461194	0.215827	9.78703	5.43597e-07	4.50493e-07	4.81257e-07	4.10686e-07	3.15757e-07	7.24361e-07	0.0540676	0.0186927	0.0572077	19.0717	148.512	429.563	454.511	-70.9283	0.0000000E+000	0.0000000E+000	0.0000000E+000	70.9283	0.0000000E+000	0.0000000E+000	0.0000000E+000	-70.9283	0.0000000E+000	0.0000000E+000	0.0000000E+000	-19.0717	0.0000000E+000	0.0000000E+000	0.0000000E+000	19.0717	2.89245	70.9283	6.50879e-06
10039.3	18.4381	8.34539	20.2388	-24.3523	873.483	0.453365	0.0215274	1.89963	0.322992	3	38	0.00524971	0.000259388	0	0.00548059	1.37342	0.779938	24.6991	2.40156e-05	2.63225e-05	3.42404e-05	1.48886e-05	2.97543e-05	3.18555e-05	0.618483	0.376435	11.0252	1.09087e-06	4.84986e-07	4.42959e-07	3.99854e-07	5.66495e-07	2.54944e-07	0.0450139	0.020374	0.04941	24.3523	322.992	713.611	783.303	-65.6477	0.0000000E+000	0.0000000E+000	0.0000000E+000	65.6477	0.0000000E+000	0.0000000E+000	0.0000000E+000	-65.6477	0.0000000E+000	0.0000000E+000	0.0000000E+000	-24.3523	0.0000000E+000	0.0000000E+000	0.0000000E+000	24.3523	2.20938	65.6477	6.01415e-06
5028.39	21.4899	12.5217	24.8719	-30.2283	876.832	0.453248	0.021196	2.52772	0.640673	3	38	0.00546363	0.000219671	0	0.00550029	1.64391	0.491114	23.8862	4.81917e-05	2.91315e-05	2.29646e-05	3.51233e-05	3.63637e-05	3.45022e-05	0.63024	0.422396	12.9154	6.56586e-07	5.56165e-07	1.8636e-07	5.35952e-07	7.08633e-07	3.72059e-07	0.0347391	0.0202416	0.0402061	30.2283	640.673	1099.54	1272.57	-59.7717	0.0000000E+000	0.0000000E+000	0.0000000E+000	59.7717	0.0000000E+000	0.0000000E+000	0.0000000E+000	-59.7717	0.0000000E+000	0.0000000E+000	0.0000000E+000	-30.2283	0.0000000E+000	0.0000000E+000	0.0000000E+000	30.2283	1.71622	59.7717	6.63388e-06
2519.19	26.0097	19.3467	32.4161	-36.6429	880.151	0.453258	0.0223448	3.26551	1.16318	3	38	0.00548449	0.00016919	0	0.00551976	1.30612	0.768742	24.4735	1.61522e-05	4.0329e-05	2.9481e-05	3.28934e-05	1.24692e-05	2.37064e-05	0.999573	0.545816	16.7808	5.5497e-07	8.15625e-07	7.1657e-07	4.58024e-07	3.45364e-07	8.34797e-07	0.0247523	0.0184114	0.0308489	36.6429	1163.18	1563.77	1948.94	-53.3571	0.0000000E+000	0.0000000E+000	0.0000000E+000	53.3571	0.0000000E+000	0.0000000E+000	0.0000000E+000	-53.3571	0.0000000E+000	0.0000000E+000	0.0000000E+000	-36.6429	0.0000000E+000	0.0000000E+000	0.0000000E+000	36.6429	1.3444	53.3571	6.57527e-06
1262.98	33.1835	29.624	44.4829	-41.7564	883.943	0.453254	0.0223873	4.25383	1.88661	3	39	0.00478451	0.000107558	0	0.00554262	1.50521	0.993489	23.9132	2.64213e-05	4.36538e-05	1.94538e-05	2.81693e-05	2.45327e-05	1.36965e-05	0.702803	0.261873	10.623	4.56533e-07	2.5785e-07	2.9117e-07	2.66917e-07	2.52227e-07	1.43184e-07	0.0167701	0.0149713	0.0224806	41.7564	1886.61	2113.3	2832.9	-48.2436	0.0000000E+000	0.0000000E+000	0.0000000E+000	48.2436	0.0000000E+000	0.0000000E+000	0.0000000E+000	-48.2436	0.0000000E+000	0.0000000E+000	0.0000000E+000	-41.7564	0.0000000E+000	0.0000000E+000	0.0000000E+000	41.7564	1.12015	48.2436	6.68125e-06
632.773	44.0674	45.5461	63.3749	-45.9453	887.264	0.453249	0.0223735	5.52232	2.85226	3	39	0.00458097	7.22836e-05	0	0.00556287	1.33839	0.945885	24.9335	1.3896e-05	2.91958e-05	3.31041e-05	1.83321e-05	1.50565e-05	2.42023e-05	0.872876	0.517809	16.05	3.73535e-07	1.61888e-07	2.17656e-07	2.91861e-07	2.34879e-07	1.58036e-07	0.0109719	0.0113401	0.0157791	45.9453	2852.26	2759.66	3968.76	-44.0547	0.0000000E+000	0.0000000E+000	0.0000000E+000	44.0547	0.0000000E+000	0.0000000E+000	0.0000000E+000	-44.0547	0.0000000E+000	0.0000000E+000	0.0000000E+000	-45.9453	0.0000000E+000	0.0000000E+000	0.0000000E+000	45.9453	0.967535	44.0547	6.76273e-06
316.927	61.7891	69.2082	92.7775	-48.2415	890.805	0.453242	0.0224385	7.2561	4.03769	3	39	0.00495819	5.34417e-05	0	0.00558469	1.33938	0.738738	23.0504	1.79455e-05	3.82834e-05	9.07551e-06	3.27707e-05	2.63109e-05	2.11188e-05	1.16324	0.539331	21.9789	4.85987e-07	1.81055e-07	1.3498e-07	1.42894e-07	1.89938e-07	1.43861e-07	0.00717838	0.0080403	0.0107785	48.2415	4037.69	3604.85	5412.76	-41.7585	0.0000000E+000	0.0000000E+000	0.0000000E+000	41.7585	0.0000000E+000	0.0000000E+000	0.0000000E+000	-41.7585	0.0000000E+000	0.0000000E+000	0.0000000E+000	-48.2415	0.0000000E+000	0.0000000E+000	0.0000000E+000	48.2415	0.8928	41.7585	8.10314e-06
158.831	89.7743	104.324	137.633	-49.2868	894.125	0.453245	0.0224167	9.60513	5.51853	3	39	0.00491816	3.57339e-05	0	0.0056052	1.48593	0.540798	23.3842	2.37403e-05	2.7223e-05	1.22908e-05	2.19735e-05	2.82198e-05	4.64921e-05	2.08219	0.893261	32.6826	4.88772e-07	2.11802e-07	1.81511e-07	2.5686e-07	1.69246e-07	2.70872e-07	0.00473923	0.00550728	0.0072657	49.2868	5518.53	4748.9	7280.53	-40.7132	0.0000000E+000	0.0000000E+000	0.0000000E+000	40.7132	0.0000000E+000	0.0000000E+000	0.0000000E+000	-40.7132	0.0000000E+000	0.0000000E+000	0.0000000E+000	-49.2868	0.0000000E+000	0.0000000E+000	0.0000000E+000	49.2868	0.860538	40.7132	6.84018e-06
79.6177	134.284	154.478	204.684	-49.0004	897.412	0.453267	0.0221239	12.9403	7.3707	3	39	0.00488328	2.38576e-05	0	0.00562534	1.45765	0.628896	24.2389	3.86065e-05	2.65602e-05	1.63816e-05	2.50496e-05	2.16165e-05	2.42149e-05	2.67258	1.261	48.1932	2.71511e-07	1.95261e-07	2.16973e-07	1.17972e-07	3.6119e-07	2.54362e-07	0.0032052	0.00368721	0.00488557	49.0004	7370.7	6407.16	9766.21	-40.9996	0.0000000E+000	0.0000000E+000	0.0000000E+000	40.9996	0.0000000E+000	0.0000000E+000	0.0000000E+000	-40.9996	0.0000000E+000	0.0000000E+000	0.0000000E+000	-49.0004	0.0000000E+000	0.0000000E+000	0.0000000E+000	49.0004	0.869274	40.9996	6.58395e-06
39.8851	206.868	221.352	302.97	-46.9372	900.886	0.453248	0.0222222	18.0271	9.6226	3	40	0.00490197	1.61797e-05	0	0.00564643	2.04482	0.780078	31.3909	2.39525e-05	4.10737e-05	3.23747e-05	4.28356e-05	2.53708e-05	5.70806e-05	1.58713	0.292509	12.0842	2.24301e-07	4.18097e-08	2.08007e-08	6.40562e-08	2.05876e-08	8.65923e-08	0.00225368	0.00241148	0.00330065	46.9372	9622.6	8992.95	13170.7	-43.0628	0.0000000E+000	0.0000000E+000	0.0000000E+000	43.0628	0.0000000E+000	0.0000000E+000	0.0000000E+000	-43.0628	0.0000000E+000	0.0000000E+000	0.0000000E+000	-46.9372	0.0000000E+000	0.0000000E+000	0.0000000E+000	46.9372	0.934565	43.0628	6.56681e-06
19.9808	323.23	300.376	441.252	-42.9012	904.062	0.453269	0.0221679	26.5181	12.2885	3	40	0.00491622	1.11415e-05	0	0.00566587	1.67383	0.850954	31.5155	1.9177e-05	3.13496e-05	3.62344e-05	4.13048e-05	2.69284e-05	3.70569e-05	1.86387	0.519109	17.4871	1.92683e-07	1.62248e-08	3.24777e-08	4.34494e-08	3.81522e-08	2.92415e-08	0.00166012	0.00154274	0.00226628	42.9012	12288.5	13223.5	18051.8	-47.0988	0.0000000E+000	0.0000000E+000	0.0000000E+000	47.0988	0.0000000E+000	0.0000000E+000	0.0000000E+000	-47.0988	0.0000000E+000	0.0000000E+000	0.0000000E+000	-42.9012	0.0000000E+000	0.0000000E+000	0.0000000E+000	42.9012	1.07608	47.0988	6.51328e-06
10.016	484.104	368.488	608.391	-37.2775	907.33	0.45326	0.0221381	43.1222	15.8191	3	40	0.00488793	8.03419e-06	0	0.0056858	1.69087	1.01609	32.1781	3.56878e-05	2.34341e-05	3.91252e-05	3.37603e-05	3.20555e-05	2.12003e-05	2.42605	0.745677	24.478	1.70364e-07	2.40178e-08	4.62569e-08	3.82924e-08	4.08285e-08	2.97092e-08	0.0013079	0.000995537	0.00164368	37.2775	15819.1	20782.5	26118.1	-52.7225	0.0000000E+000	0.0000000E+000	0.0000000E+000	52.7225	0.0000000E+000	0.0000000E+000	0.0000000E+000	-52.7225	0.0000000E+000	0.0000000E+000	0.0000000E+000	-37.2775	0.0000000E+000	0.0000000E+000	0.0000000E+000	37.2775	1.31376	52.7225	6.4355e-06
5.01766	691.982	399.702	799.125	-30.0115	911.536	0.453271	0.0221603	79.3566	19.853	3	40	0.00490871	6.14261e-06	0	0.00571145	1.04722	0.596817	19.0439	1.62111e-05	2.20495e-05	1.23111e-05	7.43851e-06	3.53592e-05	1.56622e-05	2.50147	0.528062	19.0142	1.38455e-07	3.11412e-08	1.56771e-08	2.45701e-08	4.49854e-08	1.88726e-08	0.00108359	0.000625902	0.00125137	30.0115	19853	34370.4	39692.1	-59.9885	0.0000000E+000	0.0000000E+000	0.0000000E+000	59.9885	0.0000000E+000	0.0000000E+000	0.0000000E+000	-59.9885	0.0000000E+000	0.0000000E+000	0.0000000E+000	-30.0115	0.0000000E+000	0.0000000E+000	0.0000000E+000	30.0115	1.73125	59.9885	9.88548e-06
2.51368	896.453	374.615	971.578	-22.6793	919.114	0.453277	0.0220172	169.015	25.127	3	41	0.00490679	5.05033e-06	0	0.00575753	0.92618	0.548403	14.9473	1.18312e-05	1.89321e-05	1.14437e-05	2.05988e-05	1.97504e-05	1.78947e-05	2.63477	0.166572	3.02465	1.32512e-07	6.60865e-09	2.83763e-09	7.28026e-09	4.40059e-09	2.51888e-09	0.000949669	0.000396853	0.00102925	22.6793	25127	60128.8	65167.8	-67.3207	0.0000000E+000	0.0000000E+000	0.0000000E+000	67.3207	0.0000000E+000	0.0000000E+000	0.0000000E+000	-67.3207	0.0000000E+000	0.0000000E+000	0.0000000E+000	-22.6793	0.0000000E+000	0.0000000E+000	0.0000000E+000	22.6793	2.393	67.3207	1.70659e-05
1.25968	1058.48	329.018	1108.43	-17.2674	931.952	0.453271	0.0219113	384.009	33.8347	3	41	0.00491001	4.42969e-06	0	0.00583549	0.539347	0.36797	10.3097	1.17591e-05	1.03517e-05	1.05826e-05	8.62205e-06	1.1002e-05	6.15563e-06	2.80346	0.194426	2.69373	1.24011e-07	4.61931e-09	1.21088e-09	3.25684e-09	2.19213e-09	9.69399e-10	0.000861514	0.000267794	0.000902175	17.2674	33834.7	108849	113986	-72.7326	0.0000000E+000	0.0000000E+000	0.0000000E+000	72.7326	0.0000000E+000	0.0000000E+000	0.0000000E+000	-72.7326	0.0000000E+000	0.0000000E+000	0.0000000E+000	-17.2674	0.0000000E+000	0.0000000E+000	0.0000000E+000	17.2674	3.21708	72.7326	3.17393e-05
0.631645	1183.42	289.968	1218.43	-13.7677	956.407	0.453277	0.021752	868.954	49.2151	3	41	0.00490672	4.02709e-06	0	0.00598334	0.329442	0.199319	7.00849	3.812e-06	8.12966e-06	3.72782e-06	8.83121e-06	5.84498e-06	6.04993e-06	2.98157	0.45584	2.32598	1.19866e-07	4.99254e-09	2.19039e-09	3.88182e-09	1.66591e-09	8.00485e-10	0.000797149	0.000195322	0.00082073	13.7677	49215.1	200857	206799	-76.2323	0.0000000E+000	0.0000000E+000	0.0000000E+000	76.2323	0.0000000E+000	0.0000000E+000	0.0000000E+000	-76.2323	0.0000000E+000	0.0000000E+000	0.0000000E+000	-13.7677	0.0000000E+000	0.0000000E+000	0.0000000E+000	13.7677	4.08121	76.2323	6.00092e-05
0.316193	1303.06	283.137	1333.46	-12.2591	1004.18	0.453247	0.0211279	1777.76	80.1499	3	41	0.00490774	3.68045e-06	0	0.00626735	0.311879	0.174346	5.12184	5.61004e-06	6.04426e-06	6.5764e-06	2.60296e-06	4.76692e-06	7.38437e-06	3.01904	0.734025	2.00618	1.10577e-07	7.88837e-09	3.08206e-09	4.97816e-09	2.7856e-09	1.3252e-09	0.000732828	0.000159234	0.000749928	12.2591	80149.9	368867	377474	-77.741	0.0000000E+000	0.0000000E+000	0.0000000E+000	77.741	0.0000000E+000	0.0000000E+000	0.0000000E+000	-77.741	0.0000000E+000	0.0000000E+000	0.0000000E+000	-12.2591	0.0000000E+000	0.0000000E+000	0.0000000E+000	12.2591	4.60221	77.741	0.000115601
0.158419	1421.79	299.122	1452.91	-11.8808	1098.56	0.453251	0.0207698	3358.66	142.358	3	41	0.00490781	3.37791e-06	0	0.00681519	0.243535	0.146291	3.47916	4.45853e-06	6.08657e-06	3.41676e-06	4.29103e-06	5.62826e-06	3.07739e-06	3.2013	0.963079	1.58317	1.07939e-07	3.73031e-09	2.87109e-09	2.1527e-09	2.79965e-09	1.7281e-09	0.000673528	0.000141699	0.000688272	11.8808	142358	676658	691471	-78.1192	0.0000000E+000	0.0000000E+000	0.0000000E+000	78.1192	0.0000000E+000	0.0000000E+000	0.0000000E+000	-78.1192	0.0000000E+000	0.0000000E+000	0.0000000E+000	-11.8808	0.0000000E+000	0.0000000E+000	0.0000000E+000	11.8808	4.75322	78.1192	0.000224691
0.0999518	1543.56	319.665	1576.32	-11.7003	1208.76	0.453255	0.0203964	4981.21	204.851	3	41	0.00490643	3.11259e-06	0	0.007448	0.244087	0.119169	3.06577	4.42944e-06	8.31988e-06	2.32098e-06	5.40272e-06	3.06159e-06	1.61618e-06	2.99768	1.92466	1.45098	9.25986e-08	6.34212e-09	4.39084e-09	6.41414e-09	3.90746e-09	2.75024e-09	0.000621209	0.000128649	0.00063439	11.7003	204851	989162	1.01015e+06	-78.2997	0.0000000E+000	0.0000000E+000	0.0000000E+000	78.2997	0.0000000E+000	0.0000000E+000	0.0000000E+000	-78.2997	0.0000000E+000	0.0000000E+000	0.0000000E+000	-11.7003	0.0000000E+000	0.0000000E+000	0.0000000E+000	11.7003	4.82869	78.2997	0.000350207