File: Python/Experiments/RDE/Dicarboxylferrocene/Data/240327-CVEIS-5mM_DiCaFerrocene-1M_NaCl-453p5mVvsRef-2000RPM-Ag_AgCl_BLF8-Au_RDE_01_CV_C15.mpt
EC-Lab ASCII FILE
Nb header lines : 60

Cyclic Voltammetry

Run on channel : 15 (SN 19485)
User :
Electrode connection : standard
Potential control : Ewe
Ewe ctrl range : min = -1.00 V, max = 1.00 V
Ewe,I filtering : <None>
Safety Limits :
	Do not start on E overload
Channel : Floating
Acquisition started on : 03/27/2024 13:46:18.854
Loaded Setting File :  C:\Data\mathias\GoldElectrode\240327-CVEIS-5mM_DiCaFerrocene-1M_NaCl-2000RPM-Ag_AgCl_BLF8-Au_RDE.mps
Saved on :
	File : 240327-CVEIS-5mM_DiCaFerrocene-1M_NaCl-453p5mVvsRef-2000RPM-Ag_AgCl_BLF8-Au_RDE_01_CV_C15.mpr
	Directory : C:\Data\mathias\GoldElectrode\
	Host : 192.168.0.1
Device : VMP-300 (SN 0826)
Address : USB
EC-Lab for windows v11.52 (software)
Internet server v11.52 (firmware)
Command interpretor v11.52 (firmware)
Electrode material :
Initial state :
Electrolyte :
Comments :
Cable : special
Electrode surface area : 0.001 cm²
Characteristic mass : 0.001 g
Equivalent Weight : 0.000 g/eq.
Density : 0.000 g/cm3
Volume (V) : 0.001 cm³
Record EIS quality indicators
Cycle Definition : Charge/Discharge alternance
Ei (V)              0.000
vs.                 Eoc
dE/dt               20.000
dE/dt unit          mV/s
E1 (V)              0.700
vs.                 Ref
Step percent        50
N                   10
E range min (V)     -1.000
E range max (V)     1.000
I Range             Auto
I Range min         Unset
I Range max         Unset
I Range init        Unset
Bandwidth           8
E2 (V)              0.000
vs.                 Ref
nc cycles           1
Reverse Scan        1
Ef (V)              0.000
vs.                 Eoc

mode	ox/red	error	control changes	counter inc.	time/s	control/V	Ewe/V	<I>/mA	cycle number	(Q-Qo)/C	I Range	step time/s	P/W
2	1	0	0	0	0.000000000000000E+000	0.0769821	0.0764661	0.000145075	1	0.0000000E+000	43	0.000000000000000E+000	1.10933e-08
2	1	0	1	0	0.2387	0.0817548	0.0813419	0.000184146	1	3.78021e-08	43	0.2249	1.49788e-08
2	1	0	1	0	0.4886	0.0867524	0.0863764	0.000203601	1	8.6396e-08	43	0.4748	1.75863e-08
2	1	0	1	0	0.7385	0.09175	0.0914855	0.000224986	1	1.41177e-07	43	0.7247	2.0583e-08
2	1	0	1	0	0.9884	0.0967494	0.0964896	0.000255581	1	2.00634e-07	43	0.9746	2.46609e-08
2	1	0	1	0	1.2382	0.101745	0.10153	0.000264962	1	2.65053e-07	43	1.2244	2.69017e-08
2	1	0	1	0	1.4881	0.106743	0.106423	0.000280544	1	3.34186e-07	43	1.4743	2.98565e-08
2	1	0	1	0	1.738	0.11174	0.11151	0.000311805	1	4.08277e-07	43	1.7242	3.47694e-08
2	1	0	1	0	1.9879	0.116738	0.116452	0.000327961	1	4.8732e-07	43	1.9741	3.81917e-08
2	1	0	1	0	2.2378	0.121737	0.121356	0.000345288	1	5.7228e-07	43	2.224	4.19028e-08
2	1	0	1	0	2.4876	0.126733	0.126339	0.000379624	1	6.62943e-07	43	2.4738	4.79614e-08
2	1	0	1	0	2.7375	0.131731	0.131356	0.000407038	1	7.60154e-07	43	2.7237	5.34668e-08
2	1	0	1	0	2.9874	0.136728	0.136576	0.000426372	1	8.64546e-07	43	2.9736	5.82323e-08
2	1	0	1	0	3.2373	0.141726	0.141542	0.000463571	1	9.77089e-07	43	3.2235	6.56149e-08
2	1	0	1	0	3.4872	0.146725	0.146489	0.000512462	1	1.09815e-06	43	3.4734	7.50703e-08
2	1	0	1	0	3.737	0.151721	0.151474	0.000543253	1	1.22903e-06	43	3.7232	8.22886e-08
2	1	0	1	0	3.9869	0.156719	0.156569	0.000586826	1	1.37104e-06	43	3.9731	9.18789e-08
2	1	0	1	0	4.2368	0.161716	0.161453	0.000648406	1	1.52521e-06	43	4.223	1.04687e-07
2	1	0	1	0	4.4867	0.166714	0.166482	0.000704915	1	1.6929e-06	43	4.4729	1.17356e-07
2	1	0	1	0	4.7366	0.171713	0.171516	0.000758173	1	1.87641e-06	43	4.7228	1.30039e-07
2	1	0	1	0	4.9864	0.176709	0.17638	0.000843654	1	2.07694e-06	43	4.9726	1.48804e-07
2	1	0	1	0	5.2363	0.181707	0.181551	0.000926978	1	2.29711e-06	43	5.2225	1.68294e-07
2	1	0	1	0	5.4862	0.186704	0.186432	0.00101389	1	2.53948e-06	43	5.4724	1.89021e-07
2	1	0	1	0	5.7661	0.192302	0.19215	0.00113828	1	2.84103e-06	42	5.7523	2.1872e-07
2	1	0	1	0	6.0159	0.197299	0.197195	0.00126321	1	3.14032e-06	42	6.0021	2.49097e-07
2	1	0	1	0	6.2658	0.202297	0.20219	0.00139555	1	3.4725e-06	42	6.252	2.82167e-07
2	1	0	1	0	6.5157	0.207295	0.20708	0.00155376	1	3.84105e-06	42	6.5019	3.21753e-07
2	1	0	1	0	6.7656	0.212292	0.21213	0.00173483	1	4.25121e-06	42	6.7518	3.68009e-07
2	1	0	1	0	7.0155	0.21729	0.216977	0.00192657	1	4.70831e-06	42	7.0017	4.18021e-07
2	1	0	1	0	7.2653	0.222287	0.222147	0.00215798	1	5.21814e-06	42	7.2515	4.7939e-07
2	1	0	1	0	7.5152	0.227285	0.226982	0.0024092	1	5.78733e-06	42	7.5014	5.46845e-07
2	1	0	1	0	7.7651	0.232283	0.231868	0.00268938	1	6.42337e-06	42	7.7513	6.2358e-07
2	1	0	1	0	8.015	0.23728	0.237089	0.00300351	1	7.13405e-06	42	8.0012	7.12098e-07
2	1	0	1	0	8.2649	0.242278	0.241612	0.00335836	1	7.9283e-06	42	8.2511	8.1142e-07
2	1	0	1	0	8.5147	0.247275	0.24708	0.00375126	1	8.81506e-06	42	8.5009	9.26861e-07
2	1	0	1	0	8.7646	0.252273	0.252069	0.00418646	1	9.80621e-06	42	8.7508	1.05528e-06
2	1	0	1	0	9.0145	0.257271	0.256936	0.00466592	1	1.09121e-05	42	9.0007	1.19884e-06
2	1	0	1	0	9.2644	0.262268	0.262079	0.00520297	1	1.21447e-05	42	9.2506	1.36359e-06
2	1	0	1	0	9.5143	0.267266	0.267012	0.00577201	1	1.35151e-05	42	9.5005	1.5412e-06
2	1	0	1	0	9.7641	0.272263	0.271802	0.00642953	1	1.50384e-05	42	9.7503	1.74756e-06
2	1	0	1	0	10.014	0.277261	0.276957	0.00710347	1	1.67276e-05	42	10.0002	1.96736e-06
2	1	0	1	0	10.2639	0.282259	0.282042	0.00784199	1	1.85952e-05	42	10.2501	2.21177e-06
2	1	0	1	0	10.5138	0.287256	0.287048	0.00862623	1	2.06533e-05	42	10.5	2.47614e-06
2	1	0	1	0	10.7637	0.292254	0.292115	0.00945692	1	2.29138e-05	42	10.7499	2.7625e-06
2	1	0	1	0	11.0136	0.297253	0.296922	0.0103283	1	2.53857e-05	42	10.9998	3.0667e-06
2	1	0	1	0	11.2934	0.302849	0.302687	0.0111219	1	2.84122e-05	41	11.2796	3.36647e-06
2	1	0	1	0	11.5433	0.307846	0.307569	0.0121007	1	3.13539e-05	41	11.5295	3.7218e-06
2	1	0	1	0	11.7932	0.312844	0.31252	0.0129832	1	3.45256e-05	41	11.7794	4.05749e-06
2	1	0	1	0	12.043	0.31784	0.317539	0.0138823	1	3.79243e-05	41	12.0292	4.40818e-06
2	1	0	1	0	12.2929	0.322839	0.322727	0.0148278	1	4.1554e-05	41	12.2791	4.78533e-06
2	1	0	1	0	12.5428	0.327837	0.327648	0.0156976	1	4.53994e-05	41	12.529	5.14329e-06
2	1	0	1	0	12.7927	0.332834	0.332653	0.0165274	1	4.94637e-05	41	12.7789	5.49789e-06
2	1	0	1	0	13.0426	0.337832	0.33754	0.017447	1	5.37463e-05	41	13.0288	5.88905e-06
2	1	0	1	0	13.2924	0.342828	0.342558	0.0183263	1	5.82489e-05	41	13.2786	6.27782e-06
2	1	0	1	0	13.5423	0.347827	0.347431	0.0192193	1	6.29752e-05	41	13.5285	6.6774e-06
2	1	0	1	0	13.7922	0.352825	0.35253	0.0201986	1	6.7943e-05	41	13.7784	7.1206e-06
2	1	0	1	0	14.0421	0.357822	0.357431	0.0211798	1	7.31483e-05	41	14.0283	7.57033e-06
2	1	0	1	0	14.292	0.36282	0.362733	0.0222421	1	7.86044e-05	41	14.2782	8.06796e-06
2	1	0	1	0	14.5419	0.367818	0.36745	0.0234686	1	8.43491e-05	41	14.5281	8.62354e-06
2	1	0	1	0	14.7917	0.372815	0.372553	0.0248396	1	9.04157e-05	41	14.7779	9.25407e-06
2	1	0	1	0	15.0416	0.377813	0.377644	0.0262648	1	9.68252e-05	41	15.0278	9.91876e-06
2	1	0	1	0	15.2915	0.382811	0.382508	0.0279683	1	0.000103626	41	15.2777	1.06981e-05
2	1	0	1	0	15.5414	0.387808	0.387433	0.0298552	1	0.000110879	41	15.5276	1.15669e-05
2	1	0	1	0	15.7913	0.392806	0.392569	0.0320441	1	0.000118636	41	15.7775	1.25795e-05
2	1	0	1	0	16.0411	0.397803	0.397494	0.0344679	1	0.000126966	41	16.0273	1.37008e-05
2	1	0	1	0	16.291	0.402801	0.402437	0.0372855	1	0.000135951	41	16.2772	1.50051e-05
2	1	0	1	0	16.5409	0.407799	0.407447	0.0405087	1	0.000145687	41	16.5271	1.65052e-05
2	1	0	1	0	16.7908	0.412796	0.412587	0.0441596	1	0.000156285	41	16.777	1.82197e-05
2	1	0	1	0	17.0407	0.417794	0.417593	0.0483608	1	0.000167858	41	17.0269	2.01952e-05
2	1	0	1	0	17.2905	0.422791	0.422458	0.0530616	1	0.000180543	41	17.2767	2.24163e-05
2	1	0	1	0	17.5404	0.427789	0.42741	0.0585942	1	0.000194494	41	17.5266	2.50437e-05
2	1	0	1	0	17.7903	0.432787	0.432367	0.064683	1	0.000209896	41	17.7765	2.79668e-05
2	1	0	1	0	18.0402	0.437784	0.437514	0.0715725	1	0.00022693	41	18.0264	3.1314e-05
2	1	0	1	0	18.2901	0.442782	0.442574	0.0793405	1	0.000245797	41	18.2763	3.5114e-05
2	1	0	1	0	18.5399	0.447779	0.447281	0.0880332	1	0.00026671	41	18.5261	3.93756e-05
2	1	0	1	0	18.7898	0.452777	0.452514	0.0976095	1	0.000289897	41	18.776	4.41697e-05
2	1	0	1	0	19.0397	0.457775	0.457684	0.108105	1	0.000315601	41	19.0259	4.94779e-05
2	1	0	1	0	19.3196	0.463372	0.46315	0.120703	1	0.000347629	40	19.3058	5.59036e-05
2	1	0	1	0	19.5694	0.468369	0.468029	0.133071	1	0.000379399	40	19.5556	6.22811e-05
2	1	0	1	0	19.8193	0.473367	0.473112	0.146418	1	0.000414389	40	19.8055	6.9272e-05
2	1	0	1	0	20.0692	0.478365	0.478006	0.160423	1	0.000452789	40	20.0554	7.66834e-05
2	1	0	1	0	20.3191	0.483362	0.48316	0.174654	1	0.000494735	40	20.3053	8.43857e-05
2	1	0	1	0	20.569	0.48836	0.488205	0.189739	1	0.000540382	40	20.5552	9.26314e-05
2	1	0	1	0	20.8188	0.493357	0.493166	0.205035	1	0.000589724	40	20.805	0.000101116
2	1	0	1	0	21.0687	0.498355	0.498044	0.220448	1	0.000642944	40	21.0549	0.000109793
2	1	0	1	0	21.3186	0.503353	0.503086	0.235283	1	0.000699977	40	21.3048	0.000118367
2	1	0	1	0	21.5685	0.50835	0.508093	0.249863	1	0.000760705	40	21.5547	0.000126954
2	1	0	1	0	21.8184	0.513348	0.513189	0.263189	1	0.000824922	40	21.8046	0.000135066
2	1	0	1	0	22.0682	0.518345	0.517992	0.276402	1	0.000892453	40	22.0544	0.000143174
2	1	0	1	0	22.3181	0.523343	0.522922	0.287627	1	0.000963123	40	22.3043	0.000150406
2	1	0	1	0	22.568	0.528341	0.527963	0.299232	1	0.00103673	40	22.5542	0.000157984
2	1	0	1	0	22.8179	0.533338	0.532918	0.307974	1	0.00111272	40	22.8041	0.000164125
2	1	0	1	0	23.0678	0.538336	0.537996	0.316091	1	0.00119078	40	23.054	0.000170056
2	1	0	1	0	23.3176	0.543332	0.54306	0.323691	1	0.00127076	40	23.3038	0.000175784
2	1	0	1	0	23.5675	0.548331	0.548062	0.328764	1	0.00135235	40	23.5537	0.000180183
2	1	0	1	0	23.8174	0.553329	0.552985	0.333148	1	0.00143533	40	23.8036	0.000184226
2	1	0	1	0	24.0673	0.558326	0.557924	0.337833	1	0.00151927	40	24.0535	0.000188485
2	1	0	1	0	24.3172	0.563324	0.562971	0.342398	1	0.00160418	40	24.3034	0.00019276
2	1	0	1	0	24.567	0.56832	0.568158	0.344146	1	0.00168992	40	24.5532	0.00019553
2	1	0	1	0	24.8169	0.573319	0.572976	0.345907	1	0.00177634	40	24.8031	0.000198196
2	1	0	1	0	25.0668	0.578317	0.577984	0.347547	1	0.00186309	40	25.053	0.000200876
2	1	0	1	0	25.3167	0.583314	0.582832	0.349878	1	0.00195072	40	25.3029	0.00020392
2	1	0	1	0	25.5666	0.588312	0.588136	0.350676	1	0.00203855	40	25.5528	0.000206245
2	1	0	1	0	25.8165	0.59331	0.593023	0.350985	1	0.00212637	40	25.8027	0.000208142
2	1	0	1	0	26.0663	0.598307	0.598025	0.351634	1	0.00221437	40	26.0525	0.000210286
2	1	0	1	0	26.3162	0.603305	0.602855	0.353936	1	0.00230275	40	26.3024	0.000213372
2	1	0	1	0	26.5661	0.608302	0.607896	0.353867	1	0.00239115	40	26.5523	0.000215114
2	1	0	1	0	26.816	0.6133	0.612895	0.355001	1	0.00247972	40	26.8022	0.000217579
2	1	0	1	0	27.0659	0.618298	0.617853	0.353896	1	0.00256841	40	27.0521	0.000218656
2	1	0	1	0	27.3157	0.623295	0.623155	0.354783	1	0.00265706	40	27.3019	0.000221085
2	1	0	1	0	27.5656	0.628293	0.628079	0.354831	1	0.00274577	40	27.5518	0.000222862
2	1	0	1	0	27.8155	0.63329	0.632911	0.354082	1	0.00283442	40	27.8017	0.000224103
2	1	0	1	0	28.0654	0.638288	0.637927	0.354692	1	0.00292311	40	28.0516	0.000226268
2	1	0	1	0	28.3153	0.643286	0.643059	0.355047	1	0.00301203	40	28.3015	0.000228316
2	1	0	1	0	28.5651	0.648283	0.647988	0.354837	1	0.00310082	40	28.5513	0.00022993
2	1	0	1	0	28.815	0.653281	0.652933	0.354737	1	0.00318959	40	28.8012	0.00023162
2	1	0	1	0	29.0649	0.658279	0.657871	0.354773	1	0.00327834	40	29.0511	0.000233395
2	1	0	1	0	29.3148	0.663276	0.663025	0.355311	1	0.00336715	40	29.301	0.00023558
2	1	0	1	0	29.5647	0.668274	0.668018	0.354572	1	0.00345603	40	29.5509	0.000236861
2	1	0	1	0	29.8145	0.673271	0.673021	0.354347	1	0.0035447	40	29.8007	0.000238483
2	1	0	1	0	30.0644	0.678269	0.678037	0.353899	1	0.00363334	40	30.0506	0.000239957
2	1	0	1	0	30.3143	0.683267	0.683065	0.354439	1	0.00372184	40	30.3005	0.000242105
2	1	0	1	0	30.5642	0.688264	0.687852	0.354633	1	0.00381049	40	30.5504	0.000243935
2	1	0	1	0	30.8141	0.693262	0.693028	0.353648	1	0.00389903	40	30.8003	0.000245088
2	1	0	1	0	31.0639	0.698259	0.698029	0.353805	1	0.00398755	40	31.0501	0.000246966
2	1	0	1	0	31.2892	0.69721	0.696951	0.350067	1	0.00406681	40	31.2754	0.00024398
2	1	0	1	0	31.5391	0.692212	0.691976	0.348806	1	0.004154	40	31.5253	0.000241365
2	1	0	1	0	31.789	0.687215	0.686861	0.348199	1	0.00424101	40	31.7752	0.000239164
2	1	0	1	0	32.0389	0.682217	0.681944	0.34681	1	0.00432766	40	32.0251	0.000236505
2	1	0	1	0	32.2888	0.677219	0.676934	0.344863	1	0.00441406	40	32.275	0.000233449
2	1	0	1	0	32.5386	0.672222	0.671935	0.345746	1	0.00450029	40	32.5248	0.000232319
2	1	0	1	0	32.7885	0.667224	0.666968	0.345022	1	0.00458638	40	32.7747	0.000230119
2	1	0	1	0	33.0384	0.662227	0.661961	0.343586	1	0.00467249	40	33.0246	0.000227441
2	1	0	1	0	33.2883	0.657229	0.656987	0.343405	1	0.00475814	40	33.2745	0.000225613
2	1	0	1	0	33.5382	0.652231	0.651936	0.342448	1	0.00484365	40	33.5244	0.000223254
2	1	0	1	0	33.788	0.647234	0.646907	0.342534	1	0.00492908	40	33.7742	0.000221588
2	1	0	1	0	34.0379	0.642236	0.642	0.341081	1	0.00501442	40	34.0241	0.000218974
2	1	0	1	0	34.2878	0.637239	0.63694	0.339343	1	0.00509939	40	34.274	0.000216141
2	1	0	1	0	34.5377	0.632241	0.631964	0.338859	1	0.00518404	40	34.5239	0.000214146
2	1	0	1	0	34.7876	0.627243	0.62702	0.338551	1	0.00526859	40	34.7738	0.000212278
2	1	0	1	0	35.0374	0.622246	0.621926	0.336843	1	0.00535288	40	35.0236	0.000209491
2	1	0	1	0	35.2873	0.617248	0.617044	0.335553	1	0.00543667	40	35.2735	0.000207051
2	1	0	1	0	35.5372	0.612251	0.611961	0.333902	1	0.00552025	40	35.5234	0.000204335
2	1	0	1	0	35.7871	0.607253	0.607077	0.332806	1	0.00560358	40	35.7733	0.000202039
2	1	0	1	0	36.037	0.602255	0.601917	0.329709	1	0.00568634	40	36.0232	0.000198457
2	1	0	1	0	36.2868	0.597258	0.596991	0.329278	1	0.00576855	40	36.273	0.000196576
2	1	0	1	0	36.5367	0.59226	0.592094	0.325259	1	0.00585018	40	36.5229	0.000192584
2	1	0	1	0	36.7866	0.587263	0.587106	0.321619	1	0.00593088	40	36.7728	0.000188824
2	1	0	1	0	37.0365	0.582265	0.58207	0.318189	1	0.00601075	40	37.0227	0.000185208
2	1	0	1	0	37.2864	0.577267	0.577023	0.313592	1	0.00608957	40	37.2726	0.00018095
2	1	0	1	0	37.5362	0.57227	0.571966	0.308879	1	0.00616726	40	37.5224	0.000176668
2	1	0	1	0	37.7861	0.567272	0.567024	0.303669	1	0.00624374	40	37.7723	0.000172188
2	1	0	1	0	38.036	0.562275	0.562012	0.29582	1	0.00631858	40	38.0222	0.000166255
2	1	0	1	0	38.2859	0.557277	0.556931	0.288308	1	0.00639152	40	38.2721	0.000160568
2	1	0	1	0	38.5358	0.552279	0.551992	0.28011	1	0.00646245	40	38.522	0.000154619
2	1	0	1	0	38.7856	0.547282	0.547235	0.269871	1	0.00653106	40	38.7718	0.000147683
2	1	0	1	0	39.0355	0.542284	0.542053	0.260077	1	0.00659728	40	39.0217	0.000140975
2	1	0	1	0	39.2854	0.537286	0.536872	0.248701	1	0.00666074	40	39.2716	0.00013352
2	1	0	1	0	39.5353	0.532289	0.532018	0.236477	1	0.00672132	40	39.5215	0.00012581
2	1	0	1	0	39.7852	0.527291	0.526937	0.22412	1	0.00677879	40	39.7714	0.000118097
2	1	0	1	0	40.035	0.522294	0.522072	0.211179	1	0.00683306	40	40.0212	0.00011025
2	1	0	1	0	40.2849	0.517296	0.517013	0.197706	1	0.00688404	40	40.2711	0.000102217
2	1	0	1	0	40.5348	0.512298	0.512037	0.184143	1	0.00693166	40	40.521	9.4288e-05
2	1	0	1	0	40.7847	0.507301	0.507227	0.170921	1	0.00697593	40	40.7709	8.6696e-05
2	1	0	1	0	41.0346	0.502303	0.502	0.157787	1	0.00701692	40	41.0208	7.9209e-05
2	1	0	1	0	41.2844	0.497306	0.497059	0.144764	1	0.00705461	40	41.2706	7.19561e-05
2	1	0	1	0	41.5343	0.492308	0.492142	0.13239	1	0.00708918	40	41.5205	6.51544e-05
2	1	0	1	0	41.7842	0.48731	0.486918	0.120523	1	0.00712068	40	41.7704	5.86847e-05
2	1	0	1	0	42.0341	0.482313	0.482017	0.109325	1	0.00714929	40	42.0203	5.26965e-05
2	1	0	1	0	42.284	0.477315	0.476967	0.0986887	1	0.00717518	40	42.2702	4.70712e-05
2	1	0	1	0	42.5338	0.472318	0.472104	0.0887497	1	0.00719849	40	42.52	4.18991e-05
2	1	0	1	0	42.7837	0.46732	0.467058	0.0795959	1	0.00721943	40	42.7699	3.7176e-05
2	1	0	1	0	43.0336	0.462322	0.462073	0.0711827	1	0.00723819	40	43.0198	3.28916e-05
2	1	0	1	0	43.2835	0.457325	0.456985	0.0634488	1	0.00725493	40	43.2697	2.89952e-05
2	1	0	1	0	43.5334	0.452327	0.452109	0.0564271	1	0.00726983	40	43.5196	2.55112e-05
2	1	0	1	0	43.7832	0.44733	0.447198	0.050151	1	0.00728307	40	43.7694	2.24274e-05
2	1	0	1	0	44.0331	0.442332	0.442141	0.0444789	1	0.00729482	40	44.0193	1.96659e-05
2	1	0	1	0	44.313	0.436735	0.436745	0.0386901	1	0.00730642	41	44.2992	1.68977e-05
2	1	0	1	0	44.5629	0.431737	0.431357	0.0342658	1	0.00731551	41	44.5491	1.47808e-05
2	1	0	1	0	44.8128	0.426739	0.426342	0.0303159	1	0.00732356	41	44.799	1.2925e-05
2	1	0	1	0	45.0626	0.421742	0.421512	0.0268009	1	0.00733067	41	45.0488	1.12969e-05
2	1	0	1	0	45.3125	0.416744	0.416576	0.023691	1	0.00733696	41	45.2987	9.86912e-06
2	1	0	1	0	45.5624	0.411747	0.411699	0.020844	1	0.0073425	41	45.5486	8.58145e-06
2	1	0	1	0	45.8123	0.406749	0.406344	0.0182937	1	0.00734737	41	45.7985	7.43353e-06
2	1	0	1	0	46.0622	0.401751	0.401373	0.0159547	1	0.00735163	41	46.0484	6.40378e-06
2	1	0	1	0	46.312	0.396754	0.396461	0.0138594	1	0.00735534	41	46.2982	5.4947e-06
2	1	0	1	0	46.5619	0.391756	0.391371	0.0119938	1	0.00735855	41	46.5481	4.69402e-06
2	1	0	1	0	46.8118	0.386759	0.386316	0.0103505	1	0.00736132	41	46.798	3.99855e-06
2	1	0	1	0	47.0617	0.381761	0.381451	0.00887165	1	0.0073637	41	47.0479	3.3841e-06
2	1	0	1	0	47.3116	0.376763	0.376526	0.0075856	1	0.00736574	41	47.2978	2.85617e-06
2	1	0	1	0	47.5614	0.371766	0.371513	0.00646407	1	0.00736748	41	47.5476	2.40149e-06
2	1	0	1	0	47.8113	0.366768	0.366376	0.00547271	1	0.00736895	41	47.7975	2.00507e-06
2	1	0	1	0	48.0612	0.361771	0.361476	0.00462294	1	0.00737019	41	48.0474	1.67108e-06
2	1	0	1	0	48.3411	0.356173	0.355834	0.00372178	1	0.00737135	42	48.3273	1.32433e-06
2	1	0	1	0	48.591	0.351174	0.350964	0.00309173	1	0.00737219	42	48.5772	1.08509e-06
2	1	0	1	0	48.8408	0.346178	0.345956	0.00250719	1	0.00737289	42	48.827	8.67377e-07
2	1	0	1	0	49.0907	0.34118	0.340753	0.00206177	1	0.00737346	42	49.0769	7.02555e-07
2	1	0	1	0	49.3406	0.336183	0.335911	0.00163518	1	0.00737392	42	49.3268	5.49275e-07
2	1	0	1	0	49.5905	0.331185	0.331037	0.00125606	1	0.00737428	42	49.5767	4.15803e-07
2	1	0	1	0	49.8404	0.326186	0.325851	0.000966038	1	0.00737456	42	49.8266	3.14784e-07
2	1	0	1	0	50.0902	0.32119	0.320747	0.000696516	1	0.00737476	42	50.0764	2.23405e-07
2	1	0	1	0	50.3401	0.316192	0.315909	0.000455535	1	0.0073749	42	50.3263	1.43908e-07
2	1	0	1	0	50.62	0.310595	0.310217	0.000227641	1	0.007375	43	50.6062	7.06182e-08
2	1	0	1	0	50.8698	0.305599	0.305294	6.00901e-05	1	0.00737504	43	50.856	1.83451e-08
2	0	0	1	0	51.1197	0.3006	0.30066	-8.26378e-05	1	0.00737504	43	0.0999	-2.48459e-08
2	0	0	1	0	51.3696	0.295602	0.29518	-0.00021074	1	0.007375	43	0.3498	-6.22064e-08
2	0	0	1	0	51.6195	0.290605	0.290524	-0.000319845	1	0.00737493	43	0.5997	-9.29224e-08
2	0	0	1	0	51.8694	0.285607	0.285413	-0.000417958	1	0.00737484	43	0.8496	-1.19291e-07
2	0	0	1	0	52.1192	0.280611	0.2804	-0.000493888	1	0.00737473	43	1.0994	-1.38486e-07
2	0	0	1	0	52.3691	0.275612	0.275311	-0.000567019	1	0.00737459	43	1.3493	-1.56106e-07
2	0	0	1	0	52.619	0.270614	0.270131	-0.000630158	1	0.00737444	43	1.5992	-1.70225e-07
2	0	0	1	0	52.8689	0.265617	0.265265	-0.000673296	1	0.00737428	43	1.8491	-1.78602e-07
2	0	0	1	0	53.1188	0.260619	0.260466	-0.000724265	1	0.0073741	43	2.099	-1.88647e-07
2	0	0	1	0	53.3687	0.255621	0.255351	-0.000758948	1	0.00737392	43	2.3489	-1.93798e-07
2	0	0	1	0	53.6185	0.250624	0.250352	-0.000792829	1	0.00737372	43	2.5987	-1.98487e-07
2	0	0	1	0	53.8684	0.245626	0.245446	-0.000823657	1	0.00737352	43	2.8486	-2.02164e-07
2	0	0	1	0	54.1183	0.240629	0.240466	-0.000849011	1	0.00737331	43	3.0985	-2.04158e-07
2	0	0	1	0	54.3682	0.235631	0.235393	-0.000865864	1	0.0073731	43	3.3484	-2.03818e-07
2	0	0	1	0	54.6181	0.230633	0.230523	-0.000884458	1	0.00737288	43	3.5983	-2.03887e-07
2	0	0	1	0	54.8679	0.225636	0.225373	-0.000904287	1	0.00737266	43	3.8481	-2.03802e-07
2	0	0	1	0	55.1178	0.220638	0.22038	-0.000916626	1	0.00737243	43	4.098	-2.02006e-07
2	0	0	1	0	55.3677	0.215641	0.215094	-0.000923253	1	0.0073722	43	4.3479	-1.98587e-07
2	0	0	1	0	55.6176	0.210643	0.210482	-0.000933794	1	0.00737197	43	4.5978	-1.96547e-07
2	0	0	1	0	55.8675	0.205645	0.205284	-0.000939668	1	0.00737173	43	4.8477	-1.92898e-07
2	0	0	1	0	56.1173	0.200648	0.200402	-0.000946592	1	0.0073715	43	5.0975	-1.89698e-07
2	0	0	1	0	56.3672	0.19565	0.195287	-0.000955829	1	0.00737126	43	5.3474	-1.86661e-07
2	0	0	1	0	56.6171	0.190653	0.190166	-0.000962948	1	0.00737102	43	5.5973	-1.8312e-07
2	0	0	1	0	56.867	0.185655	0.18535	-0.000961364	1	0.00737078	43	5.8472	-1.78188e-07
2	0	0	1	0	57.1169	0.180657	0.18033	-0.000968759	1	0.00737054	43	6.0971	-1.74697e-07
2	0	0	1	0	57.3667	0.17566	0.175428	-0.000971389	1	0.0073703	43	6.3469	-1.70409e-07
2	0	0	1	0	57.6166	0.170662	0.170482	-0.000978691	1	0.00737006	43	6.5968	-1.66849e-07
2	0	0	1	0	57.8665	0.165665	0.165561	-0.000970028	1	0.00736981	43	6.8467	-1.60599e-07
2	0	0	1	0	58.1164	0.160667	0.160473	-0.000972726	1	0.00736957	43	7.0966	-1.56096e-07
2	0	0	1	0	58.3663	0.155669	0.155391	-0.000975067	1	0.00736932	43	7.3465	-1.51516e-07
2	0	0	1	0	58.6161	0.150672	0.150215	-0.000975712	1	0.00736908	43	7.5963	-1.46566e-07
2	0	0	1	0	58.866	0.145674	0.145648	-0.000983516	1	0.00736883	43	7.8462	-1.43247e-07
2	0	0	1	0	59.1159	0.140677	0.140501	-0.000985294	1	0.00736859	43	8.0961	-1.38435e-07
2	0	0	1	0	59.3658	0.135679	0.135346	-0.00098463	1	0.00736834	43	8.346	-1.33266e-07
2	0	0	1	0	59.6157	0.130681	0.130375	-0.000979461	1	0.0073681	43	8.5959	-1.27697e-07
2	0	0	1	0	59.8656	0.125682	0.125466	-0.000982493	1	0.00736785	43	8.8458	-1.2327e-07
2	0	0	1	0	60.1154	0.120686	0.120448	-0.000979609	1	0.00736761	43	9.0956	-1.17992e-07
2	0	0	1	0	60.3653	0.115688	0.115575	-0.000980853	1	0.00736736	43	9.3455	-1.13362e-07
2	0	0	1	0	60.6152	0.110691	0.110354	-0.000988599	1	0.00736712	43	9.5954	-1.09095e-07
2	0	0	1	0	60.8651	0.105693	0.105413	-0.000987734	1	0.00736687	43	9.8453	-1.0412e-07
2	0	0	1	0	61.115	0.100694	0.10039	-0.000982354	1	0.00736662	43	10.0952	-9.86181e-08
2	0	0	1	0	61.3648	0.0956981	0.0954818	-0.00098612	1	0.00736638	43	10.345	-9.41565e-08
2	0	0	1	0	61.6147	0.0907005	0.0901956	-0.000990354	1	0.00736613	43	10.5949	-8.93255e-08
2	0	0	1	0	61.8646	0.0857029	0.0854137	-0.000984546	1	0.00736588	43	10.8448	-8.40937e-08
2	0	0	1	0	62.1145	0.0807053	0.0804284	-0.000990121	1	0.00736563	43	11.0947	-7.96338e-08
2	0	0	1	0	62.3644	0.0757063	0.0753128	-0.00100245	1	0.00736539	43	11.3446	-7.54975e-08
2	0	0	1	0	62.6142	0.0707101	0.0704557	-0.000993988	1	0.00736514	43	11.5944	-7.00321e-08
2	0	0	1	0	62.8641	0.0657125	0.0653648	-0.0010062	1	0.00736489	43	11.8443	-6.57697e-08
2	0	0	1	0	63.114	0.0607148	0.0604382	-0.00101074	1	0.00736464	43	12.0942	-6.10874e-08
2	0	0	1	0	63.3639	0.0557172	0.055463	-0.00101385	1	0.00736438	43	12.3441	-5.62314e-08
2	0	0	1	0	63.6138	0.0507187	0.0504698	-0.0010202	1	0.00736413	43	12.594	-5.14895e-08
2	0	0	1	0	63.8636	0.045722	0.045629	-0.00103289	1	0.00736387	43	12.8438	-4.71299e-08
2	0	0	1	0	64.1135	0.0407244	0.040366	-0.00104169	1	0.00736362	43	13.0937	-4.20487e-08
2	0	0	1	0	64.3634	0.0357268	0.0355128	-0.00103532	1	0.00736336	43	13.3436	-3.67669e-08
2	0	0	1	0	64.6133	0.0307292	0.0303926	-0.00105165	1	0.0073631	43	13.5935	-3.19624e-08
2	0	0	1	0	64.8632	0.0257312	0.0253387	-0.0010657	1	0.00736283	43	13.8434	-2.70035e-08
2	0	0	1	0	65.113	0.020734	0.0204119	-0.001075	1	0.00736256	43	14.0932	-2.19428e-08
2	0	0	1	0	65.3929	0.0151367	0.0148733	-0.00108544	1	0.00736226	42	14.3731	-1.6144e-08
2	0	0	1	0	65.6428	0.0101391	0.00970852	-0.00110902	1	0.00736199	42	14.623	-1.0767e-08
2	0	0	1	0	65.8927	0.00514148	0.00484882	-0.00111706	1	0.00736171	42	14.8729	-5.41642e-09
2	0	0	1	0	66.1387	0.000219839	7.33529e-05	-0.0011501	1	0.00736143	42	15.1189	-8.43634e-11
2	0	0	1	1	66.3928	0.00489338	0.00484578	-0.000313308	1	0.0073613	43	15.373	-1.51822e-09
2	0	0	1	1	66.6426	0.00988921	0.00969472	-0.00016304	1	0.00736124	43	15.6228	-1.58063e-09
2	0	0	1	1	66.8925	0.0148868	0.0145144	-5.53957e-05	1	0.00736121	43	15.8727	-8.04035e-10
2	1	0	1	1	67.1424	0.0198844	0.0197484	2.30494e-05	1	0.00736121	43	0.025	4.55188e-10
2	1	0	1	1	67.3923	0.024882	0.0245614	8.83274e-05	1	0.00736122	43	0.2749	2.16944e-09
2	1	0	1	1	67.6422	0.029881	0.0296962	0.000144476	1	0.00736125	43	0.5248	4.2904e-09
2	1	0	1	1	67.892	0.0348772	0.0345202	0.000185798	1	0.00736129	43	0.7746	6.41377e-09
2	1	0	1	1	68.1419	0.0398748	0.0396322	0.000224666	1	0.00736135	43	1.0245	8.90399e-09
2	1	0	1	1	68.3918	0.0448724	0.0445232	0.00026405	1	0.00736141	43	1.2744	1.17563e-08
2	1	0	1	1	68.6417	0.04987	0.0494564	0.000287553	1	0.00736148	43	1.5243	1.42213e-08
2	1	0	1	1	68.8916	0.054869	0.054706	0.000312609	1	0.00736155	43	1.7742	1.71016e-08
2	1	0	1	1	69.1414	0.0598653	0.0594815	0.000340127	1	0.00736163	43	2.024	2.02313e-08
2	1	0	1	1	69.3913	0.0648629	0.0644625	0.000358703	1	0.00736172	43	2.2739	2.31229e-08
2	1	0	1	1	69.6412	0.0698605	0.0695625	0.000376676	1	0.00736181	43	2.5238	2.62025e-08
2	1	0	1	1	69.8911	0.0748581	0.0744629	0.000402566	1	0.00736191	43	2.7737	2.99762e-08
2	1	0	1	1	70.106	0.079156	0.0787283	0.000418467	2	0.007362	43	2.9886	3.29452e-08
2	1	0	1	1	70.3558	0.0841532	0.0839119	0.000433502	2	0.00736211	43	3.2384	3.6376e-08
2	1	0	1	1	70.6057	0.0891512	0.0890026	0.000445002	2	0.00736222	43	3.4883	3.96064e-08
2	1	0	1	1	70.8556	0.0941488	0.093723	0.000470932	2	0.00736233	43	3.7382	4.41371e-08
2	1	0	1	1	71.1055	0.0991464	0.0988617	0.000479563	2	0.00736245	43	3.9881	4.74104e-08
2	1	0	1	1	71.3554	0.104144	0.10409	0.000496473	2	0.00736257	43	4.238	5.16777e-08
2	1	0	1	1	71.6052	0.109141	0.108898	0.000509725	2	0.0073627	43	4.4878	5.55079e-08
2	1	0	1	1	71.8551	0.114139	0.113807	0.00052781	2	0.00736283	43	4.7377	6.00686e-08
2	1	0	1	1	72.105	0.119137	0.118887	0.000537492	2	0.00736296	43	4.9876	6.39007e-08
2	1	0	1	1	72.3549	0.124134	0.123844	0.000551518	2	0.0073631	43	5.2375	6.83022e-08
2	1	0	1	1	72.6048	0.129132	0.128805	0.000570427	2	0.00736324	43	5.4874	7.34739e-08
2	1	0	1	1	72.8546	0.134128	0.133809	0.000581436	2	0.00736338	43	5.7372	7.78012e-08
2	1	0	1	1	73.1045	0.139127	0.138969	0.00059859	2	0.00736353	43	5.9871	8.31857e-08
2	1	0	1	1	73.3544	0.144125	0.14386	0.000612289	2	0.00736368	43	6.237	8.80842e-08
2	1	0	1	1	73.6043	0.149122	0.148633	0.000631051	2	0.00736383	43	6.4869	9.37951e-08
2	1	0	1	1	73.8542	0.15412	0.153883	0.000644904	2	0.00736399	43	6.7368	9.92397e-08
2	1	0	1	1	74.104	0.159116	0.158851	0.000663926	2	0.00736416	43	6.9866	1.05465e-07
2	1	0	1	1	74.3539	0.164115	0.164022	0.000679934	2	0.00736433	43	7.2365	1.11524e-07
2	1	0	1	1	74.6038	0.169113	0.168874	0.000697262	2	0.0073645	43	7.4864	1.17749e-07
2	1	0	1	1	74.8537	0.174111	0.173838	0.000715472	2	0.00736467	43	7.7363	1.24376e-07
2	1	0	1	1	75.1036	0.179108	0.178799	0.000731071	2	0.00736485	43	7.9862	1.30715e-07
2	1	0	1	1	75.3534	0.184104	0.183629	0.000752893	2	0.00736504	43	8.236	1.38253e-07
2	1	0	1	1	75.6033	0.189103	0.18891	0.000771894	2	0.00736523	43	8.4859	1.45819e-07
2	1	0	1	1	75.8532	0.194101	0.193883	0.000798357	2	0.00736542	43	8.7358	1.54788e-07
2	1	0	1	1	76.1031	0.199099	0.19881	0.000813801	2	0.00736563	43	8.9857	1.61792e-07
2	1	0	1	1	76.353	0.204096	0.203691	0.000835083	2	0.00736583	43	9.2356	1.70099e-07
2	1	0	1	1	76.6029	0.209094	0.20874	0.000863208	2	0.00736604	43	9.4855	1.80186e-07
2	1	0	1	1	76.8527	0.214091	0.213988	0.000887999	2	0.00736626	43	9.7353	1.90021e-07
2	1	0	1	1	77.1026	0.219089	0.218766	0.000913601	2	0.00736649	43	9.9852	1.99865e-07
2	1	0	1	1	77.3525	0.224087	0.22382	0.000944949	2	0.00736672	43	10.2351	2.11498e-07
2	1	0	1	1	77.6024	0.229084	0.228684	0.000979034	2	0.00736696	43	10.485	2.2389e-07
2	1	0	1	1	77.8523	0.234082	0.2338	0.00101085	2	0.00736721	43	10.7349	2.36337e-07
2	1	0	1	1	78.1021	0.239079	0.238974	0.00105207	2	0.00736747	43	10.9847	2.51418e-07
2	1	0	1	1	78.367	0.244377	0.244187	0.00111798	2	0.00736775	43	11.2496	2.72995e-07
2	1	0	1	1	78.6319	0.249674	0.249247	0.00114206	2	0.00736805	42	11.5145	2.84655e-07
2	1	0	1	1	78.8818	0.254672	0.254486	0.00118816	2	0.00736834	42	11.7644	3.02369e-07
2	1	0	1	1	79.1316	0.25967	0.25948	0.00124596	2	0.00736864	42	12.0142	3.23302e-07
2	1	0	1	1	79.3815	0.264667	0.264372	0.00130354	2	0.00736896	42	12.2641	3.44619e-07
2	1	0	1	1	79.6314	0.269665	0.269506	0.00137293	2	0.0073693	42	12.514	3.70012e-07
2	1	0	1	1	79.8813	0.274662	0.27452	0.00146194	2	0.00736965	42	12.7639	4.01331e-07
2	1	0	1	1	80.1312	0.27966	0.279382	0.00152379	2	0.00737002	42	13.0138	4.2572e-07
2	1	0	1	1	80.381	0.284657	0.284456	0.00164358	2	0.00737042	42	13.2636	4.67527e-07
2	1	0	1	1	80.6309	0.289655	0.289401	0.00175074	2	0.00737084	42	13.5135	5.06666e-07
2	1	0	1	1	80.8808	0.294653	0.294474	0.00185897	2	0.00737129	42	13.7634	5.47418e-07
2	1	0	1	1	81.1307	0.29965	0.299544	0.0020078	2	0.00737178	42	14.0133	6.01424e-07
2	1	0	1	1	81.3806	0.304648	0.30425	0.00216072	2	0.0073723	42	14.2632	6.574e-07
2	1	0	1	1	81.6304	0.309645	0.309445	0.00233418	2	0.00737286	42	14.513	7.22299e-07
2	1	0	1	1	81.8803	0.314643	0.314386	0.00253554	2	0.00737347	42	14.7629	7.97136e-07
2	1	0	1	1	82.1302	0.319641	0.319417	0.00276213	2	0.00737413	42	15.0128	8.82273e-07
2	1	0	1	1	82.3801	0.324638	0.324453	0.00301788	2	0.00737485	42	15.2627	9.79161e-07
2	1	0	1	1	82.63	0.329636	0.329513	0.00328992	2	0.00737564	42	15.5126	1.08407e-06
2	1	0	1	1	82.8798	0.334633	0.334365	0.00363064	2	0.0073765	42	15.7624	1.21396e-06
2	1	0	1	1	83.1297	0.339631	0.339328	0.00399761	2	0.00737745	42	16.0123	1.3565e-06
2	1	0	1	1	83.3796	0.344629	0.344415	0.00440227	2	0.0073785	42	16.2622	1.51621e-06
2	1	0	1	1	83.6295	0.349626	0.349208	0.00489819	2	0.00737967	42	16.5121	1.71049e-06
2	1	0	1	1	83.8794	0.354624	0.354201	0.00544527	2	0.00738096	42	16.762	1.92872e-06
2	1	0	1	1	84.1292	0.35962	0.359403	0.00605418	2	0.00738239	42	17.0118	2.17589e-06
2	1	0	1	1	84.3791	0.364619	0.364248	0.00677252	2	0.00738399	42	17.2617	2.46688e-06
2	1	0	1	1	84.629	0.369617	0.369314	0.00757154	2	0.00738579	42	17.5116	2.79628e-06
2	1	0	1	1	84.8789	0.374614	0.374271	0.00850228	2	0.00738779	42	17.7615	3.18215e-06
2	1	0	1	1	85.1288	0.379612	0.379318	0.00954451	2	0.00739005	42	18.0114	3.6204e-06
2	1	0	1	1	85.3786	0.384608	0.384284	0.0107504	2	0.00739258	42	18.2612	4.13119e-06
2	1	0	1	1	85.6585	0.390207	0.389927	0.0122342	2	0.0073958	41	18.5411	4.77044e-06
2	1	0	1	1	85.9084	0.395205	0.394955	0.0137709	2	0.00739906	41	18.791	5.4389e-06
2	1	0	1	1	86.1583	0.400202	0.400012	0.0155687	2	0.00740274	41	19.0409	6.22768e-06
2	1	0	1	1	86.4082	0.4052	0.405044	0.0175554	2	0.00740689	41	19.2908	7.1107e-06
2	1	0	1	1	86.658	0.410197	0.410037	0.0197723	2	0.00741157	41	19.5406	8.10738e-06
2	1	0	1	1	86.9079	0.415195	0.414735	0.0222731	2	0.00741683	41	19.7905	9.23741e-06
2	1	0	1	1	87.1578	0.420193	0.42018	0.0250354	2	0.00742275	41	20.0404	1.05194e-05
2	1	0	1	1	87.4077	0.42519	0.424972	0.0280573	2	0.00742939	41	20.2903	1.19236e-05
2	1	0	1	1	87.6576	0.430188	0.429806	0.0314507	2	0.00743684	41	20.5402	1.35177e-05
2	1	0	1	1	87.9074	0.435185	0.435055	0.0352315	2	0.00744517	41	20.79	1.53276e-05
2	1	0	1	1	88.1573	0.440183	0.439858	0.0394595	2	0.00745451	41	21.0399	1.73566e-05
2	1	0	1	1	88.4072	0.445181	0.445013	0.0441707	2	0.00746497	41	21.2898	1.96565e-05
2	1	0	1	1	88.6571	0.450178	0.449708	0.0495085	2	0.00747668	41	21.5397	2.22644e-05
2	1	0	1	1	88.907	0.455176	0.454897	0.0554918	2	0.00748981	41	21.7896	2.5243e-05
2	1	0	1	1	89.1568	0.460173	0.460039	0.0621727	2	0.0075045	41	22.0394	2.86018e-05
2	1	0	1	1	89.4067	0.465171	0.464931	0.0696237	2	0.00752098	41	22.2893	3.23702e-05
2	1	0	1	1	89.6566	0.470169	0.469896	0.077804	2	0.00753939	41	22.5392	3.65598e-05
2	1	0	1	1	89.9065	0.475166	0.475139	0.0868138	2	0.00755996	41	22.7891	4.12486e-05
2	1	0	1	1	90.1564	0.480164	0.479933	0.0966431	2	0.00758288	41	23.039	4.63822e-05
2	1	0	1	1	90.4062	0.485161	0.485006	0.107272	2	0.00760835	41	23.2888	5.20276e-05
2	1	0	1	1	90.6861	0.490759	0.490445	0.119844	2	0.00764016	40	23.5687	5.87771e-05
2	1	0	1	1	90.936	0.495756	0.495388	0.13222	2	0.00767171	40	23.8186	6.55004e-05
2	1	0	1	1	91.1859	0.500754	0.500395	0.145254	2	0.00770643	40	24.0685	7.26846e-05
2	1	0	1	1	91.4358	0.505752	0.505514	0.158823	2	0.00774449	40	24.3184	8.02873e-05
2	1	0	1	1	91.6856	0.510749	0.510398	0.17282	2	0.007786	40	24.5682	8.8207e-05
2	1	0	1	1	91.9355	0.515747	0.515374	0.18717	2	0.00783104	40	24.8181	9.64625e-05
2	1	0	1	1	92.1854	0.520744	0.520447	0.20156	2	0.0078797	40	25.068	0.000104901
2	1	0	1	1	92.4353	0.525742	0.525399	0.216189	2	0.00793198	40	25.3179	0.000113585
2	1	0	1	1	92.6852	0.53074	0.530379	0.230033	2	0.00798784	40	25.5678	0.000122005
2	1	0	1	1	92.935	0.535737	0.53555	0.243483	2	0.0080471	40	25.8176	0.000130397
2	1	0	1	1	93.1849	0.540735	0.540614	0.256121	2	0.00810963	40	26.0675	0.000138463
2	1	0	1	1	93.4348	0.545732	0.545187	0.267738	2	0.0081752	40	26.3174	0.000145967
2	1	0	1	1	93.6847	0.55073	0.550474	0.277833	2	0.00824349	40	26.5673	0.00015294
2	1	0	1	1	93.9346	0.555728	0.555473	0.287064	2	0.00831421	40	26.8172	0.000159457
2	1	0	1	1	94.1844	0.560725	0.560364	0.295047	2	0.00838699	40	27.067	0.000165334
2	1	0	1	1	94.4343	0.565723	0.565555	0.30181	2	0.00846171	40	27.3169	0.00017069
2	1	0	1	1	94.6842	0.57072	0.570439	0.307001	2	0.00853784	40	27.5668	0.000175126
2	1	0	1	1	94.9341	0.575718	0.575491	0.311584	2	0.00861525	40	27.8167	0.000179313
2	1	0	1	1	95.184	0.580716	0.580474	0.314285	2	0.00869348	40	28.0666	0.000182434
2	1	0	1	1	95.4338	0.585713	0.585503	0.318043	2	0.00877258	40	28.3164	0.000186215
2	1	0	1	1	95.6837	0.590711	0.590347	0.32011	2	0.00885239	40	28.5663	0.000188976
2	1	0	1	1	95.9336	0.595709	0.595347	0.321947	2	0.00893273	40	28.8162	0.00019167
2	1	0	1	1	96.1835	0.600706	0.6004	0.322187	2	0.00901332	40	29.0661	0.000193441
2	1	0	1	1	96.4334	0.605704	0.605546	0.32342	2	0.00909415	40	29.316	0.000195846
2	1	0	1	1	96.6832	0.610701	0.610316	0.323494	2	0.00917501	40	29.5658	0.000197434
2	1	0	1	1	96.9331	0.615699	0.61544	0.324623	2	0.00925616	40	29.8157	0.000199786
2	1	0	1	1	97.183	0.620697	0.620386	0.324913	2	0.00933742	40	30.0656	0.000201571
2	1	0	1	1	97.4329	0.625694	0.625552	0.324883	2	0.00941865	40	30.3155	0.000203231
2	1	0	1	1	97.6828	0.630692	0.63038	0.325402	2	0.00950002	40	30.5654	0.000205127
2	1	0	1	1	97.9326	0.635689	0.635412	0.326208	2	0.0095814	40	30.8152	0.000207277
2	1	0	1	1	98.1825	0.640687	0.640462	0.325479	2	0.0096629	40	31.0651	0.000208457
2	1	0	1	1	98.4324	0.645684	0.645468	0.326077	2	0.00974447	40	31.315	0.000210472
2	1	0	1	1	98.6823	0.650682	0.650557	0.32613	2	0.00982601	40	31.5649	0.000212166
2	1	0	1	1	98.9322	0.65568	0.655307	0.32574	2	0.00990759	40	31.8148	0.00021346
2	1	0	1	1	99.182	0.660677	0.660326	0.325824	2	0.00998908	40	32.0646	0.00021515
2	1	0	1	1	99.4319	0.665675	0.665395	0.325109	2	0.0100704	40	32.3145	0.000216326
2	1	0	1	1	99.6818	0.670673	0.670477	0.32455	2	0.0101518	40	32.5644	0.000217603
2	1	0	1	1	99.9317	0.67567	0.675534	0.325318	2	0.0102331	40	32.8143	0.000219763
2	1	0	1	1	100.182	0.680668	0.680351	0.325329	2	0.0103145	40	33.0642	0.000221338
2	1	0	1	1	100.431	0.685665	0.685509	0.324685	2	0.0103957	40	33.314	0.000222574
2	1	0	1	1	100.681	0.690663	0.690318	0.324407	2	0.0104769	40	33.5639	0.000223944
2	1	0	1	1	100.931	0.695661	0.695315	0.324647	2	0.010558	40	33.8138	0.000225732
2	1	0	1	1	101.148	0.699984	0.699933	0.323376	2	0.0106283	40	34.0304	0.000226341
2	1	0	1	1	101.386	0.695211	0.6948	0.317509	2	0.0107042	40	34.269	0.000220605
2	1	0	1	1	101.636	0.690213	0.689821	0.316848	2	0.0107836	40	34.5189	0.000218568
2	1	0	1	1	101.886	0.685216	0.684903	0.315959	2	0.0108625	40	34.7687	0.000216402
2	1	0	1	1	102.136	0.680218	0.679988	0.313812	2	0.0109412	40	35.0186	0.000213389
2	1	0	1	1	102.386	0.67522	0.675044	0.31445	2	0.0110197	40	35.2685	0.000212268
2	1	0	1	1	102.636	0.670223	0.670084	0.312578	2	0.0110979	40	35.5184	0.000209454
2	1	0	1	1	102.886	0.665225	0.665026	0.31147	2	0.0111759	40	35.7683	0.000207136
2	1	0	1	1	103.136	0.660226	0.65995	0.311371	2	0.0112536	40	36.0182	0.000205489
2	1	0	1	1	103.385	0.65523	0.655122	0.310948	2	0.0113313	40	36.268	0.000203709
2	1	0	1	1	103.635	0.650232	0.65005	0.309759	2	0.0114088	40	36.5179	0.000201359
2	1	0	1	1	103.885	0.645235	0.644805	0.308956	2	0.0114861	40	36.7678	0.000199216
2	1	0	1	1	104.135	0.640237	0.640179	0.308638	2	0.0115631	40	37.0177	0.000197583
2	1	0	1	1	104.385	0.635238	0.635084	0.30832	2	0.0116402	40	37.2676	0.000195809
2	1	0	1	1	104.635	0.630242	0.630031	0.306929	2	0.011717	40	37.5174	0.000193375
2	1	0	1	1	104.885	0.625244	0.62479	0.306088	2	0.0117935	40	37.7673	0.000191241
2	1	0	1	1	105.135	0.620247	0.619861	0.304672	2	0.0118697	40	38.0172	0.000188854
2	1	0	1	1	105.384	0.615249	0.61491	0.302466	2	0.0119455	40	38.2671	0.00018599
2	1	0	1	1	105.634	0.610251	0.609876	0.3021	2	0.012021	40	38.517	0.000184243
2	1	0	1	1	105.884	0.605254	0.605123	0.30034	2	0.0120962	40	38.7668	0.000181742
2	1	0	1	1	106.134	0.600256	0.599785	0.298065	2	0.0121709	40	39.0167	0.000178775
2	1	0	1	1	106.384	0.595259	0.595094	0.294877	2	0.0122449	40	39.2666	0.000175479
2	1	0	1	1	106.634	0.590261	0.590048	0.292347	2	0.0123182	40	39.5165	0.000172499
2	1	0	1	1	106.884	0.585263	0.584999	0.289112	2	0.0123908	40	39.7664	0.00016913
2	1	0	1	1	107.134	0.580266	0.58	0.284097	2	0.0124623	40	40.0162	0.000164776
2	1	0	1	1	107.383	0.575268	0.575099	0.278728	2	0.0125325	40	40.2661	0.000160296
2	1	0	1	1	107.633	0.570271	0.569948	0.273414	2	0.0126014	40	40.516	0.000155832
2	1	0	1	1	107.883	0.565273	0.565012	0.267166	2	0.012669	40	40.7659	0.000150952
2	1	0	1	1	108.133	0.560275	0.560009	0.259142	2	0.0127346	40	41.0158	0.000145122
2	1	0	1	1	108.383	0.555278	0.555024	0.250095	2	0.0127982	40	41.2656	0.000138808
2	1	0	1	1	108.633	0.55028	0.550141	0.240543	2	0.0128594	40	41.5155	0.000132333
2	1	0	1	1	108.883	0.545283	0.545048	0.230761	2	0.0129182	40	41.7654	0.000125776
2	1	0	1	1	109.133	0.540285	0.539917	0.219878	2	0.0129745	40	42.0153	0.000118716
2	1	0	1	1	109.383	0.535287	0.534943	0.20866	2	0.013028	40	42.2652	0.000111621
2	1	0	1	1	109.632	0.53029	0.530016	0.197165	2	0.0130786	40	42.515	0.000104501
2	1	0	1	1	109.882	0.525292	0.524994	0.184563	2	0.0131262	40	42.7649	9.68946e-05
2	1	0	1	1	110.132	0.520295	0.519889	0.172381	2	0.0131707	40	43.0148	8.96192e-05
2	1	0	1	1	110.382	0.515297	0.51515	0.160036	2	0.0132121	40	43.2647	8.24427e-05
2	1	0	1	1	110.632	0.510299	0.509952	0.147966	2	0.0132505	40	43.5146	7.54553e-05
2	1	0	1	1	110.882	0.505302	0.50505	0.136237	2	0.0132859	40	43.7644	6.88064e-05
2	1	0	1	1	111.132	0.500304	0.50002	0.124719	2	0.0133185	40	44.0143	6.2362e-05
2	1	0	1	1	111.382	0.495307	0.49509	0.11378	2	0.0133482	40	44.2642	5.63313e-05
2	1	0	1	1	111.631	0.490309	0.489868	0.10339	2	0.0133752	40	44.5141	5.06475e-05
2	1	0	1	1	111.881	0.485311	0.485223	0.0935454	2	0.0133997	40	44.764	4.53904e-05
2	1	0	1	1	112.131	0.480314	0.480014	0.0842607	2	0.0134218	40	45.0138	4.04463e-05
2	1	0	1	1	112.381	0.475316	0.475077	0.0756347	2	0.0134417	40	45.2637	3.59323e-05
2	1	0	1	1	112.631	0.470319	0.470172	0.0676741	2	0.0134596	40	45.5136	3.18184e-05
2	1	0	1	1	112.881	0.465321	0.465039	0.0604518	2	0.0134755	40	45.7635	2.81125e-05
2	1	0	1	1	113.131	0.460323	0.460189	0.0537961	2	0.0134897	40	46.0134	2.47564e-05
2	1	0	1	1	113.381	0.455326	0.455068	0.0478609	2	0.0135023	40	46.2632	2.178e-05
2	1	0	1	1	113.66	0.449728	0.449429	0.0417254	2	0.0135148	41	46.5431	1.87526e-05
2	1	0	1	1	113.91	0.444731	0.444409	0.036934	2	0.0135246	41	46.793	1.64138e-05
2	1	0	1	1	114.16	0.439733	0.439468	0.0326461	2	0.0135333	41	47.0429	1.43469e-05
2	1	0	1	1	114.41	0.434734	0.434527	0.0288272	2	0.013541	41	47.2928	1.25262e-05
2	1	0	1	1	114.66	0.429738	0.429411	0.0254977	2	0.0135477	41	47.5426	1.0949e-05
2	1	0	1	1	114.91	0.42474	0.424194	0.0224979	2	0.0135537	41	47.7925	9.54345e-06
2	1	0	1	1	115.16	0.419743	0.41939	0.0198246	2	0.013559	41	48.0424	8.31424e-06
2	1	0	1	1	115.41	0.414745	0.414631	0.0174233	2	0.0135636	41	48.2923	7.22425e-06
2	1	0	1	1	115.66	0.409746	0.409356	0.0152328	2	0.0135677	41	48.5422	6.23564e-06
2	1	0	1	1	115.909	0.40475	0.404448	0.0132944	2	0.0135712	41	48.792	5.3769e-06
2	1	0	1	1	116.159	0.399752	0.399393	0.0114986	2	0.0135743	41	49.0419	4.59245e-06
2	1	0	1	1	116.409	0.394755	0.39428	0.00994398	2	0.013577	41	49.2918	3.92071e-06
2	1	0	1	1	116.659	0.389757	0.389311	0.00853189	2	0.0135793	41	49.5417	3.32156e-06
2	1	0	1	1	116.909	0.384758	0.38444	0.00729453	2	0.0135812	41	49.7916	2.80431e-06
2	1	0	1	1	117.159	0.379762	0.379451	0.00620873	2	0.0135829	41	50.0414	2.35591e-06
2	1	0	1	1	117.409	0.374764	0.3745	0.00523096	2	0.0135843	41	50.2913	1.95899e-06
2	1	0	1	1	117.659	0.369767	0.369549	0.00438342	2	0.0135855	41	50.5412	1.61989e-06
2	1	0	1	1	117.938	0.364171	0.363893	0.00353269	2	0.0135866	42	50.821	1.28552e-06
2	1	0	1	1	118.188	0.359172	0.358723	0.00290978	2	0.0135874	42	51.0709	1.0438e-06
2	1	0	1	1	118.438	0.354174	0.353752	0.00236603	2	0.0135881	42	51.3208	8.36988e-07
2	1	0	1	1	118.688	0.349177	0.34872	0.0019025	2	0.0135886	42	51.5707	6.63441e-07
2	1	0	1	1	118.938	0.344179	0.343809	0.00149157	2	0.013589	42	51.8206	5.12816e-07
2	1	0	1	1	119.188	0.339181	0.338741	0.00112902	2	0.0135893	42	52.0705	3.82445e-07
2	1	0	1	1	119.438	0.334184	0.333949	0.000838867	2	0.0135896	42	52.3203	2.80139e-07
2	1	0	1	1	119.688	0.329186	0.329043	0.00056786	2	0.0135898	42	52.5702	1.8685e-07
2	1	0	1	1	119.967	0.323589	0.323171	0.000384934	2	0.0135899	43	52.8501	1.24399e-07
2	1	0	1	1	120.217	0.318591	0.31834	0.000120971	2	0.0135899	43	53.1	3.85098e-08
2	0	0	1	1	120.467	0.313594	0.313287	-4.75884e-05	2	0.0135899	43	0.0249	-1.49088e-08
2	0	0	1	1	120.717	0.308596	0.308299	-0.000185934	2	0.0135899	43	0.2748	-5.73233e-08
2	0	0	1	1	120.967	0.303598	0.303417	-0.000310057	2	0.0135898	43	0.5247	-9.40766e-08
2	0	0	1	1	121.217	0.298601	0.298371	-0.000421843	2	0.0135898	43	0.7746	-1.25866e-07
2	0	0	1	1	121.467	0.293603	0.293334	-0.000495897	2	0.0135896	43	1.0245	-1.45463e-07
2	0	0	1	1	121.717	0.288606	0.288366	-0.000582204	2	0.0135895	43	1.2743	-1.67888e-07
2	0	0	1	1	121.966	0.283608	0.283427	-0.000644622	2	0.0135894	43	1.5242	-1.82703e-07
2	0	0	1	1	122.216	0.27861	0.278251	-0.000700485	2	0.0135892	43	1.7741	-1.9491e-07
2	0	0	1	1	122.466	0.273613	0.27339	-0.000759342	2	0.013589	43	2.024	-2.07596e-07
2	0	0	1	1	122.716	0.268615	0.268472	-0.000789317	2	0.0135888	43	2.2739	-2.1191e-07
2	0	0	1	1	122.966	0.263618	0.263112	-0.000826537	2	0.0135886	43	2.5237	-2.17472e-07
2	0	0	1	1	123.216	0.25862	0.258148	-0.000850279	2	0.0135884	43	2.7736	-2.19498e-07
2	0	0	1	1	123.466	0.253622	0.25354	-0.000883483	2	0.0135882	43	3.0235	-2.23998e-07
2	0	0	1	1	123.716	0.248625	0.24848	-0.000912291	2	0.013588	43	3.2734	-2.26686e-07
2	0	0	1	1	123.966	0.243627	0.243355	-0.000911407	2	0.0135877	43	3.5233	-2.21795e-07
2	0	0	1	1	124.215	0.23863	0.238278	-0.000929366	2	0.0135875	43	3.7731	-2.21447e-07
2	0	0	1	1	124.465	0.233632	0.233029	-0.000946473	2	0.0135873	43	4.023	-2.20556e-07
2	0	0	1	1	124.715	0.228634	0.228392	-0.000953645	2	0.013587	43	4.2729	-2.17805e-07
2	0	0	1	1	124.965	0.223637	0.223445	-0.000951116	2	0.0135868	43	4.5228	-2.12522e-07
2	0	0	1	1	125.215	0.218639	0.218343	-0.000959324	2	0.0135865	43	4.7727	-2.09462e-07
2	0	0	1	1	125.465	0.213643	0.213522	-0.000963403	2	0.0135863	43	5.0225	-2.05707e-07
2	0	0	1	1	125.715	0.208644	0.208717	-0.000965438	2	0.0135861	43	5.2724	-2.01503e-07
2	0	0	1	1	125.965	0.203646	0.203417	-0.000982888	2	0.0135858	43	5.5223	-1.99936e-07
2	0	0	1	1	126.214	0.198649	0.19827	-0.00098007	2	0.0135856	43	5.7722	-1.94318e-07
2	0	0	1	1	126.464	0.193651	0.193306	-0.000978945	2	0.0135853	43	6.0221	-1.89236e-07
2	0	0	1	1	126.714	0.188655	0.188361	-0.000987736	2	0.0135851	43	6.2719	-1.86051e-07
2	0	0	1	1	126.964	0.183656	0.183336	-0.000995289	2	0.0135848	43	6.5218	-1.82473e-07
2	0	0	1	1	127.214	0.178658	0.178454	-0.000974473	2	0.0135846	43	6.7717	-1.73899e-07
2	0	0	1	1	127.464	0.173661	0.173315	-0.000980759	2	0.0135843	43	7.0216	-1.6998e-07
2	0	0	1	1	127.714	0.168663	0.168285	-0.000994939	2	0.0135841	43	7.2715	-1.67433e-07
2	0	0	1	1	127.964	0.163667	0.163462	-0.000979099	2	0.0135839	43	7.5213	-1.60046e-07
2	0	0	1	1	128.213	0.158668	0.158549	-0.000970952	2	0.0135836	43	7.7712	-1.53944e-07
2	0	0	1	1	128.463	0.15367	0.153655	-0.000980269	2	0.0135834	43	8.0211	-1.50623e-07
2	0	0	1	1	128.713	0.148673	0.148263	-0.000982335	2	0.0135831	43	8.271	-1.45644e-07
2	0	0	1	1	128.963	0.143675	0.143573	-0.000982078	2	0.0135829	43	8.5209	-1.41e-07
2	0	0	1	1	129.213	0.138677	0.13816	-0.000987551	2	0.0135826	43	8.7708	-1.3644e-07
2	0	0	1	1	129.463	0.13368	0.13348	-0.00098288	2	0.0135824	43	9.0206	-1.31195e-07
2	0	0	1	1	129.713	0.128682	0.128383	-0.00097406	2	0.0135821	43	9.2705	-1.25053e-07
2	0	0	1	1	129.963	0.123685	0.123397	-0.000977299	2	0.0135819	43	9.5204	-1.20596e-07
2	0	0	1	1	130.213	0.118687	0.118405	-0.000976432	2	0.0135817	43	9.7703	-1.15615e-07
2	0	0	1	1	130.462	0.113689	0.11344	-0.000972278	2	0.0135814	43	10.0202	-1.10296e-07
2	0	0	1	1	130.712	0.108692	0.108447	-0.000969694	2	0.0135812	43	10.27	-1.05161e-07
2	0	0	1	1	130.962	0.103694	0.103332	-0.000972856	2	0.0135809	43	10.5199	-1.00527e-07
2	0	0	1	1	131.212	0.0986966	0.0984133	-0.000964871	2	0.0135807	43	10.7698	-9.49562e-08
2	0	0	1	1	131.462	0.093699	0.0933517	-0.000968086	2	0.0135804	43	11.0197	-9.03725e-08
2	0	0	1	1	131.712	0.0887014	0.0883813	-0.000971079	2	0.0135802	43	11.2696	-8.58252e-08
2	0	0	1	1	131.962	0.0837038	0.0834419	-0.000965829	2	0.01358	43	11.5194	-8.05906e-08
2	0	0	1	1	132.212	0.0787062	0.0783925	-0.000961827	2	0.0135797	43	11.7693	-7.54e-08
2	0	0	1	1	132.461	0.0737086	0.0733836	-0.000976152	2	0.0135795	43	12.0192	-7.16336e-08
2	0	0	1	1	132.711	0.068711	0.0685653	-0.000975338	2	0.0135792	43	12.2691	-6.68743e-08
2	0	0	1	1	132.961	0.0637134	0.0634872	-0.000964342	2	0.013579	43	12.519	-6.12234e-08
2	0	0	1	1	133.211	0.0587158	0.0583876	-0.000970281	2	0.0135787	43	12.7688	-5.66524e-08
2	0	0	1	1	133.461	0.0537182	0.0535167	-0.000977915	2	0.0135785	43	13.0187	-5.23348e-08
2	0	0	1	1	133.711	0.0487206	0.0485627	-0.000975805	2	0.0135783	43	13.2686	-4.73877e-08
2	0	0	1	1	133.961	0.043723	0.0434842	-0.00098284	2	0.013578	43	13.5185	-4.2738e-08
2	0	0	1	1	134.211	0.0387254	0.0382625	-0.000984112	2	0.0135778	43	13.7684	-3.76545e-08
2	0	0	1	1	134.46	0.0337278	0.0336225	-0.000988969	2	0.0135775	43	14.0182	-3.32516e-08
2	0	0	1	1	134.71	0.0287302	0.0286382	-0.000994394	2	0.0135773	43	14.2681	-2.84776e-08
2	0	0	1	1	134.96	0.0237326	0.0232686	-0.00100737	2	0.013577	43	14.518	-2.34401e-08
2	0	0	1	1	135.21	0.018735	0.0183142	-0.00100744	2	0.0135768	43	14.7679	-1.84505e-08
2	0	0	1	1	135.46	0.0137374	0.0133965	-0.0010153	2	0.0135765	43	15.0178	-1.36015e-08
2	0	0	1	1	135.71	0.00873797	0.00844392	-0.0010359	2	0.0135763	43	15.2677	-8.74707e-09
2	0	0	1	1	135.96	0.00374215	0.0035158	-0.00104089	2	0.013576	43	15.5175	-3.65956e-09
2	0	0	1	0	136.215	0.00139328	0.00119258	-0.000420163	2	0.0135758	42	15.7727	-5.01077e-10
2	0	0	1	0	136.495	0.00699059	0.00680935	-0.000157464	2	0.0135757	43	16.0526	-1.07223e-09
2	0	0	1	0	136.745	0.0119882	0.0115975	-4.40392e-05	2	0.0135757	43	16.3025	-5.10743e-10
2	1	0	1	0	136.995	0.0169858	0.0166364	4.62372e-05	2	0.0135757	43	0.075	7.69222e-10
2	1	0	1	0	137.244	0.0219834	0.0217787	0.000109685	2	0.0135757	43	0.3248	2.3888e-09
2	1	0	1	0	137.494	0.026981	0.0267	0.00016389	2	0.0135757	43	0.5747	4.37584e-09
2	1	0	1	0	137.744	0.0319786	0.0317312	0.000210997	2	0.0135758	43	0.8246	6.69519e-09
2	1	0	1	0	137.994	0.0369762	0.0368005	0.000249086	2	0.0135758	43	1.0745	9.16651e-09
2	1	0	1	0	138.244	0.0419738	0.0417679	0.000272452	2	0.0135759	43	1.3244	1.13797e-08
2	1	0	1	0	138.494	0.0469714	0.0466341	0.000311396	2	0.013576	43	1.5742	1.45217e-08
2	1	0	1	0	138.744	0.051969	0.0518929	0.000338754	2	0.0135761	43	1.8241	1.75789e-08
2	1	0	1	0	138.994	0.0569666	0.0567196	0.000354118	2	0.0135761	43	2.074	2.00855e-08
2	1	0	1	0	139.244	0.0619643	0.0619807	0.000376502	2	0.0135762	43	2.3239	2.33359e-08
2	1	0	1	0	139.493	0.0669619	0.0668221	0.000393444	2	0.0135763	43	2.5738	2.62908e-08
2	1	0	1	0	139.743	0.0719595	0.0718262	0.00041084	2	0.0135764	43	2.8236	2.95091e-08
2	1	0	1	0	139.935	0.0758326	0.0754506	0.00041516	2	0.0135765	43	0.000000000000000E+000	3.13241e-08