File: Python/Experiments/RDE/Dicarboxylferrocene/Data/240327-CVEIS-5mM_DiCaFerrocene-1M_NaCl-ReNeutralized-453p5mVvsRef-2000RPM-Ag_AgCl_BLF8-Au_RDE_01_CV_C15.mpt
EC-Lab ASCII FILE
Nb header lines : 59

Cyclic Voltammetry

Run on channel : 15 (SN 19485)
User :
Electrode connection : standard
Potential control : Ewe
Ewe ctrl range : min = -1.00 V, max = 1.00 V
Ewe,I filtering : <None>
Safety Limits :
	Do not start on E overload
Channel : Floating
Acquisition started on : 03/27/2024 16:11:02.884
Loaded Setting File :  C:\Data\mathias\GoldElectrode\240327-CVEIS-5mM_DiCaFerrocene-1M_NaCl-2000RPM-Ag_AgCl_BLF8-Au_RDE.mps
Saved on :
	File : 240327-CVEIS-5mM_DiCaFerrocene-1M_NaCl-ReNeutralized-453p5mVvsRef-2000RPM-Ag_AgCl_BLF8-Au_RDE_01_CV_C15.mpr
	Directory : C:\Data\mathias\GoldElectrode\
	Host : 192.168.0.1
Device : VMP-300 (SN 0826)
Address : USB
EC-Lab for windows v11.52 (software)
Internet server v11.52 (firmware)
Command interpretor v11.52 (firmware)
Electrode material :
Initial state :
Electrolyte :
Comments :
Cable : special
Electrode surface area : 0.001 cm²
Characteristic mass : 0.001 g
Equivalent Weight : 0.000 g/eq.
Density : 0.000 g/cm3
Volume (V) : 0.001 cm³
Cycle Definition : Charge/Discharge alternance
Ei (V)              0.000
vs.                 Eoc
dE/dt               20.000
dE/dt unit          mV/s
E1 (V)              0.700
vs.                 Ref
Step percent        50
N                   10
E range min (V)     -1.000
E range max (V)     1.000
I Range             Auto
I Range min         Unset
I Range max         Unset
I Range init        Unset
Bandwidth           8
E2 (V)              0.000
vs.                 Ref
nc cycles           1
Reverse Scan        1
Ef (V)              0.000
vs.                 Eoc

mode	ox/red	error	control changes	counter inc.	time/s	control/V	Ewe/V	<I>/mA	cycle number	(Q-Qo)/C	I Range	step time/s	P/W
2	1	1	1	0	0.000000000000000E+000	-0.113177	-0.113091	0.000338195	1	0.0000000E+000	43	0.000000000000000E+000	-3.82469e-08
2	1	0	1	0	0.2387	-0.108404	-0.108136	0.00020589	1	4.23122e-08	43	0.2249	-2.22641e-08
2	1	0	1	0	0.4886	-0.103407	-0.103117	0.0002117	1	9.14316e-08	43	0.4748	-2.18298e-08
2	1	0	1	0	0.7385	-0.0984089	-0.0982101	0.000197538	1	1.44229e-07	43	0.7247	-1.94003e-08
2	1	0	1	0	0.9884	-0.0934095	-0.0931724	0.000232027	1	1.99512e-07	43	0.9746	-2.16185e-08
2	1	0	1	0	1.2382	-0.0884137	-0.0880488	0.000246092	1	2.56473e-07	43	1.2244	-2.16681e-08
2	1	0	1	0	1.4881	-0.0834161	-0.0830209	0.000226677	1	3.15683e-07	43	1.4743	-1.88189e-08
2	1	0	1	0	1.738	-0.0784185	-0.0780585	0.000244078	1	3.77049e-07	43	1.7242	-1.90524e-08
2	1	0	1	0	1.9879	-0.0734209	-0.0731623	0.000271559	1	4.39944e-07	43	1.9741	-1.98679e-08
2	1	0	1	0	2.2378	-0.0684215	-0.0682426	0.000261108	1	5.04594e-07	43	2.224	-1.78186e-08
2	1	0	1	0	2.4876	-0.0634257	-0.0630809	0.000258976	1	5.71666e-07	43	2.4738	-1.63364e-08
2	1	0	1	0	2.7375	-0.0584281	-0.0583221	0.000287322	1	6.40257e-07	43	2.7237	-1.67572e-08
2	1	0	1	0	2.9874	-0.0534305	-0.0533128	0.000294463	1	7.10675e-07	43	2.9736	-1.56987e-08
2	1	0	1	0	3.2373	-0.0484329	-0.0482745	0.000280238	1	7.83508e-07	43	3.2235	-1.35283e-08
2	1	0	1	0	3.4872	-0.0434339	-0.0433109	0.000308196	1	8.58489e-07	43	3.4734	-1.33482e-08
2	1	0	1	0	3.737	-0.0384377	-0.0381823	0.000323504	1	9.35201e-07	43	3.7232	-1.23521e-08
2	1	0	1	0	3.9869	-0.03344	-0.0333018	0.000314302	1	1.0144e-06	43	3.9731	-1.04668e-08
2	1	0	1	0	4.2368	-0.0284424	-0.0281596	0.000327137	1	1.09643e-06	43	4.223	-9.21206e-09
2	1	0	1	0	4.4867	-0.0234448	-0.0232077	0.00035703	1	1.18047e-06	43	4.4729	-8.28584e-09
2	1	0	1	0	4.7366	-0.0184463	-0.0182168	0.00035627	1	1.26722e-06	43	4.7228	-6.49009e-09
2	1	0	1	0	4.9864	-0.0134496	-0.013248	0.000357976	1	1.35719e-06	43	4.9726	-4.74247e-09
2	1	0	1	0	5.2363	-0.00845201	-0.00811882	0.000387429	1	1.44999e-06	43	5.2225	-3.14547e-09
2	1	0	1	0	5.4862	-0.0034544	-0.00325774	0.000401212	1	1.5456e-06	43	5.4724	-1.30704e-09
2	1	0	1	0	5.7361	0.0015432	0.00174513	0.000390186	1	1.64511e-06	43	5.7223	6.80925e-10
2	1	0	1	0	5.986	0.00654126	0.0067704	0.000421703	1	1.74817e-06	43	5.9722	2.8551e-09
2	1	0	1	0	6.2358	0.0115384	0.0116962	0.000446382	1	1.85473e-06	43	6.222	5.22096e-09
2	1	0	1	0	6.4857	0.016536	0.0167527	0.000444939	1	1.96554e-06	43	6.4719	7.45394e-09
2	1	0	1	0	6.7356	0.0215336	0.0217531	0.000464308	1	2.08118e-06	43	6.7218	1.01001e-08
2	1	0	1	0	6.9855	0.0265312	0.0266179	0.000504423	1	2.2014e-06	43	6.9717	1.34267e-08
2	1	0	1	0	7.2354	0.0315293	0.0317308	0.000510323	1	2.32691e-06	43	7.2216	1.6193e-08
2	1	0	1	0	7.4852	0.0365264	0.0367469	0.000530293	1	2.45842e-06	43	7.4714	1.94866e-08
2	1	0	1	0	7.7351	0.041524	0.0416262	0.000568814	1	2.59623e-06	43	7.7213	2.36776e-08
2	1	0	1	0	7.985	0.0465216	0.0466987	0.000600879	1	2.74068e-06	43	7.9712	2.80602e-08
2	1	0	1	0	8.2349	0.0515193	0.0517161	0.00061686	1	2.89319e-06	43	8.2211	3.19016e-08
2	1	0	1	0	8.4848	0.0565169	0.0566785	0.000655504	1	3.05405e-06	43	8.471	3.7153e-08
2	1	0	1	0	8.7346	0.0615145	0.0618197	0.000708022	1	3.22393e-06	43	8.7208	4.37697e-08
2	1	0	1	0	8.9845	0.0665121	0.0666446	0.000732698	1	3.40386e-06	43	8.9707	4.88304e-08
2	1	0	1	0	9.2344	0.0715097	0.0717448	0.00078104	1	3.59524e-06	43	9.2206	5.60355e-08
2	1	0	1	0	9.4843	0.0765073	0.076906	0.000853658	1	3.79841e-06	43	9.4705	6.56514e-08
2	1	0	1	0	9.7342	0.0815049	0.0816388	0.000895071	1	4.01447e-06	43	9.7204	7.30726e-08
2	1	0	1	0	9.984	0.0865025	0.0866954	0.00094034	1	4.24513e-06	43	9.9702	8.15232e-08
2	1	0	1	0	10.2339	0.0915001	0.0915446	0.00102171	1	4.49094e-06	43	10.2201	9.3532e-08
2	1	0	1	0	10.5138	0.0970974	0.0973242	0.00106952	1	4.78588e-06	42	10.5	1.0409e-07
2	1	0	1	0	10.7637	0.102095	0.102273	0.00117778	1	5.06819e-06	42	10.7499	1.20455e-07
2	1	0	1	0	11.0136	0.107094	0.107367	0.00125263	1	5.36911e-06	42	10.9998	1.34492e-07
2	1	0	1	0	11.2634	0.11209	0.112274	0.00131269	1	5.69029e-06	42	11.2496	1.47381e-07
2	1	0	1	0	11.5133	0.117088	0.117408	0.00141123	1	6.03314e-06	42	11.4995	1.6569e-07
2	1	0	1	0	11.7632	0.122085	0.122297	0.00150546	1	6.39793e-06	42	11.7494	1.84114e-07
2	1	0	1	0	12.0131	0.127083	0.127302	0.00160115	1	6.78582e-06	42	11.9993	2.0383e-07
2	1	0	1	0	12.263	0.132082	0.132389	0.00167836	1	7.19834e-06	42	12.2492	2.22197e-07
2	1	0	1	0	12.5128	0.137078	0.137475	0.00179973	1	7.63506e-06	42	12.499	2.47418e-07
2	1	0	1	0	12.7627	0.142076	0.142266	0.00191266	1	8.09728e-06	42	12.7489	2.72107e-07
2	1	0	1	0	13.0126	0.147073	0.147402	0.00197622	1	8.58574e-06	42	12.9988	2.91299e-07
2	1	0	1	0	13.2625	0.152071	0.152326	0.00212655	1	9.10017e-06	42	13.2487	3.23929e-07
2	1	0	1	0	13.5124	0.15707	0.157435	0.00222114	1	9.64009e-06	42	13.4986	3.49685e-07
2	1	0	1	0	13.7622	0.162066	0.162252	0.00231039	1	1.02063e-05	42	13.7484	3.74866e-07
2	1	0	1	0	14.0121	0.167064	0.16736	0.0024077	1	1.07983e-05	42	13.9983	4.02954e-07
2	1	0	1	0	14.262	0.172062	0.172224	0.00252002	1	1.14152e-05	42	14.2482	4.34008e-07
2	1	0	1	0	14.5119	0.177059	0.177322	0.00261952	1	1.20565e-05	42	14.4981	4.64498e-07
2	1	0	1	0	14.7618	0.182058	0.182193	0.00268968	1	1.2723e-05	42	14.748	4.90041e-07
2	1	0	1	0	15.0116	0.187054	0.187303	0.00282441	1	1.34129e-05	42	14.9978	5.29022e-07
2	1	0	1	0	15.2615	0.192052	0.1922	0.00291252	1	1.41262e-05	42	15.2477	5.59787e-07
2	1	0	1	0	15.5114	0.19705	0.197306	0.00296634	1	1.48633e-05	42	15.4976	5.85276e-07
2	1	0	1	0	15.7613	0.202047	0.202178	0.00311068	1	1.56244e-05	42	15.7475	6.2891e-07
2	1	0	1	0	16.0112	0.207046	0.207218	0.00319812	1	1.64101e-05	42	15.9974	6.6271e-07
2	1	0	1	0	16.261	0.212042	0.212292	0.00329827	1	1.72215e-05	42	16.2472	7.00196e-07
2	1	0	1	0	16.5109	0.21704	0.217188	0.00340505	1	1.80616e-05	42	16.4971	7.39534e-07
2	1	0	1	0	16.7608	0.222038	0.222305	0.0035615	1	1.89321e-05	42	16.747	7.91738e-07
2	1	0	1	0	17.0107	0.227035	0.227268	0.00370454	1	1.98379e-05	42	16.9969	8.41924e-07
2	1	0	1	0	17.2606	0.232033	0.232345	0.0038315	1	2.0782e-05	42	17.2468	8.90229e-07
2	1	0	1	0	17.5104	0.23703	0.237246	0.00407749	1	2.17708e-05	42	17.4966	9.67367e-07
2	1	0	1	0	17.7603	0.242028	0.242214	0.00428949	1	2.2811e-05	42	17.7465	1.03897e-06
2	1	0	1	0	18.0102	0.247026	0.24706	0.00452365	1	2.39132e-05	42	17.9964	1.11761e-06
2	1	0	1	0	18.2601	0.252023	0.252138	0.00484688	1	2.50847e-05	42	18.2463	1.22208e-06
2	1	0	1	0	18.51	0.257021	0.257214	0.00520039	1	2.6337e-05	42	18.4962	1.33761e-06
2	1	0	1	0	18.7598	0.262018	0.262329	0.00558767	1	2.76824e-05	42	18.746	1.46581e-06
2	1	0	1	0	19.0097	0.267016	0.267243	0.00602659	1	2.91375e-05	42	18.9959	1.61057e-06
2	1	0	1	0	19.2596	0.272014	0.272089	0.00658801	1	3.07133e-05	42	19.2458	1.79252e-06
2	1	0	1	0	19.5095	0.277011	0.277442	0.00718552	1	3.24303e-05	42	19.4957	1.99357e-06
2	1	0	1	0	19.7594	0.282009	0.282379	0.0077943	1	3.43046e-05	42	19.7456	2.20095e-06
2	1	0	1	0	20.0092	0.287006	0.287015	0.00860023	1	3.63553e-05	42	19.9954	2.4684e-06
2	1	0	1	0	20.2591	0.292004	0.292013	0.00941169	1	3.86007e-05	42	20.2453	2.74833e-06
2	1	0	1	0	20.509	0.297002	0.297134	0.0102741	1	4.10604e-05	42	20.4952	3.05277e-06
2	1	0	1	0	20.7889	0.302599	0.303003	0.0113004	1	4.40869e-05	41	20.7751	3.42406e-06
2	1	0	1	0	21.0387	0.307597	0.307774	0.0123597	1	4.70518e-05	41	21.0249	3.80401e-06
2	1	0	1	0	21.2886	0.312594	0.312806	0.0134389	1	5.02856e-05	41	21.2748	4.20376e-06
2	1	0	1	0	21.5385	0.317592	0.317728	0.0145722	1	5.38054e-05	41	21.5247	4.63e-06
2	1	0	1	0	21.7884	0.322589	0.322787	0.0157539	1	5.76022e-05	41	21.7746	5.08514e-06
2	1	0	1	0	22.0383	0.327587	0.327806	0.0169668	1	6.1697e-05	41	22.0245	5.56182e-06
2	1	0	1	0	22.2882	0.332586	0.332633	0.0181613	1	6.61111e-05	41	22.2744	6.04105e-06
2	1	0	1	0	22.538	0.337582	0.337768	0.0195607	1	7.08485e-05	41	22.5242	6.60698e-06
2	1	0	1	0	22.7879	0.34258	0.342883	0.0208792	1	7.59114e-05	41	22.7741	7.15911e-06
2	1	0	1	0	23.0378	0.347577	0.347774	0.022364	1	8.13335e-05	41	23.024	7.77764e-06
2	1	0	1	0	23.2877	0.352575	0.352777	0.023977	1	8.71382e-05	41	23.2739	8.45854e-06
2	1	0	1	0	23.5376	0.357574	0.357782	0.0258302	1	9.33691e-05	41	23.5238	9.24157e-06
2	1	0	1	0	23.7874	0.36257	0.362875	0.0276685	1	0.000100052	41	23.7736	1.00402e-05
2	1	0	1	0	24.0373	0.367568	0.367695	0.0299058	1	0.000107266	41	24.0235	1.09962e-05
2	1	0	1	0	24.2872	0.372565	0.372792	0.0324919	1	0.000115078	41	24.2734	1.21127e-05
2	1	0	1	0	24.5371	0.377563	0.377719	0.0353018	1	0.000123549	41	24.5233	1.33342e-05
2	1	0	1	0	24.787	0.382562	0.382669	0.0385936	1	0.000132792	41	24.7732	1.47686e-05
2	1	0	1	0	25.0368	0.387558	0.387789	0.0426386	1	0.000142936	41	25.023	1.65348e-05
2	1	0	1	0	25.2867	0.392556	0.392783	0.0469479	1	0.000154127	41	25.2729	1.84404e-05
2	1	0	1	0	25.5366	0.397553	0.39783	0.0519602	1	0.000166471	41	25.5228	2.06714e-05
2	1	0	1	0	25.7865	0.402551	0.402824	0.0577387	1	0.000180179	41	25.7727	2.32586e-05
2	1	0	1	0	26.0364	0.40755	0.407789	0.0640156	1	0.000195409	41	26.0226	2.61048e-05
2	1	0	1	0	26.2862	0.412546	0.412742	0.0714642	1	0.000212331	41	26.2724	2.94963e-05
2	1	0	1	0	26.5361	0.417544	0.417864	0.0798056	1	0.00023123	41	26.5223	3.33479e-05
2	1	0	1	0	26.786	0.422541	0.422793	0.0889153	1	0.000252326	41	26.7722	3.75928e-05
2	1	0	1	0	27.0359	0.427539	0.427545	0.0986878	1	0.000275723	41	27.0221	4.21935e-05
2	1	0	1	0	27.2858	0.432537	0.432617	0.109211	1	0.000301703	41	27.272	4.72464e-05
2	1	0	1	0	27.5656	0.438134	0.438286	0.122242	1	0.000334059	40	27.5518	5.35769e-05
2	1	0	1	0	27.8155	0.443132	0.443292	0.13311	1	0.000365969	40	27.8017	5.90065e-05
2	1	0	1	0	28.0654	0.448129	0.448218	0.144914	1	0.000400836	40	28.0516	6.49529e-05
2	1	0	1	0	28.3153	0.453127	0.453137	0.156842	1	0.000438614	40	28.3015	7.10708e-05
2	1	0	1	0	28.5651	0.458124	0.458286	0.169032	1	0.000479401	40	28.5513	7.74649e-05
2	1	0	1	0	28.815	0.463122	0.463297	0.180939	1	0.000523131	40	28.8012	8.38282e-05
2	1	0	1	0	29.0649	0.46812	0.468333	0.191591	1	0.000569763	40	29.0511	8.97283e-05
2	1	0	1	0	29.3148	0.473117	0.473337	0.202283	1	0.000619022	40	29.301	9.5748e-05
2	1	0	1	0	29.5647	0.478115	0.478343	0.21208	1	0.000670907	40	29.5509	0.000101447
2	1	0	1	0	29.8145	0.483112	0.483273	0.220787	1	0.00072503	40	29.8007	0.0001067
2	1	0	1	0	30.0644	0.48811	0.488279	0.22912	1	0.00078135	40	30.0506	0.000111874
2	1	0	1	0	30.3143	0.493108	0.493325	0.237059	1	0.000839693	40	30.3005	0.000116947
2	1	0	1	0	30.5642	0.498105	0.498303	0.244111	1	0.000899918	40	30.5504	0.000121641
2	1	0	1	0	30.8141	0.503103	0.50326	0.249685	1	0.000961673	40	30.8003	0.000125657
2	1	0	1	0	31.0639	0.508101	0.508267	0.255524	1	0.00102484	40	31.0501	0.000129875
2	1	0	1	0	31.3138	0.513098	0.513239	0.259926	1	0.00108932	40	31.3	0.000133404
2	1	0	1	0	31.5637	0.518096	0.518306	0.263558	1	0.00115479	40	31.5499	0.000136604
2	1	0	1	0	31.8136	0.523093	0.523207	0.267229	1	0.00122126	40	31.7998	0.000139816
2	1	0	1	0	32.0635	0.528091	0.528323	0.272703	1	0.00128873	40	32.0497	0.000144075
2	1	0	1	0	32.3133	0.533089	0.533182	0.274785	1	0.001357	40	32.2995	0.00014651
2	1	0	1	0	32.5632	0.538086	0.538283	0.277068	1	0.00142603	40	32.5494	0.000149141
2	1	0	1	0	32.8131	0.543084	0.543333	0.279578	1	0.00149566	40	32.7993	0.000151904
2	1	0	1	0	33.063	0.548081	0.548371	0.281749	1	0.00156573	40	33.0492	0.000154503
2	1	0	1	0	33.3129	0.553079	0.553278	0.283197	1	0.00163633	40	33.2991	0.000156687
2	1	0	1	0	33.5628	0.558078	0.558301	0.284344	1	0.00170733	40	33.549	0.000158749
2	1	0	1	0	33.8126	0.563074	0.563337	0.286918	1	0.00177866	40	33.7988	0.000161632
2	1	0	1	0	34.0625	0.568072	0.568208	0.288785	1	0.00185061	40	34.0487	0.00016409
2	1	0	1	0	34.3124	0.573069	0.573323	0.288918	1	0.00192288	40	34.2986	0.000165644
2	1	0	1	0	34.5623	0.578067	0.578107	0.290794	1	0.00199541	40	34.5485	0.00016811
2	1	0	1	0	34.8122	0.583066	0.583258	0.291296	1	0.00206812	40	34.7984	0.000169901
2	1	0	1	0	35.062	0.588062	0.588144	0.292595	1	0.00214109	40	35.0482	0.000172088
2	1	0	1	0	35.3119	0.59306	0.593195	0.293515	1	0.00221433	40	35.2981	0.000174112
2	1	0	1	0	35.5618	0.598057	0.598172	0.294554	1	0.00228796	40	35.548	0.000176194
2	1	0	1	0	35.8117	0.603055	0.603254	0.295359	1	0.00236172	40	35.7979	0.000178176
2	1	0	1	0	36.0616	0.608054	0.608182	0.295435	1	0.00243557	40	36.0478	0.000179678
2	1	0	1	0	36.3114	0.61305	0.613067	0.29702	1	0.00250973	40	36.2976	0.000182093
2	1	0	1	0	36.5613	0.618048	0.618297	0.297551	1	0.00258403	40	36.5475	0.000183975
2	1	0	1	0	36.8112	0.623045	0.623248	0.298812	1	0.00265859	40	36.7974	0.000186234
2	1	0	1	0	37.0611	0.628043	0.628145	0.299331	1	0.00273324	40	37.0473	0.000188023
2	1	0	1	0	37.311	0.633042	0.633174	0.29967	1	0.00280812	40	37.2972	0.000189743
2	1	0	1	0	37.5608	0.638038	0.638173	0.299933	1	0.0028828	40	37.547	0.000191409
2	1	0	1	0	37.8107	0.643036	0.643103	0.30161	1	0.00295792	40	37.7969	0.000193967
2	1	0	1	0	38.0606	0.648033	0.648285	0.301708	1	0.00303335	40	38.0468	0.000195593
2	1	0	1	0	38.3105	0.653031	0.653145	0.301546	1	0.00310883	40	38.2967	0.000196953
2	1	0	1	0	38.5604	0.65803	0.658194	0.302965	1	0.00318443	40	38.5466	0.000199409
2	1	0	1	0	38.8102	0.663026	0.663177	0.304508	1	0.0032604	40	38.7964	0.000201943
2	1	0	1	0	39.0601	0.668024	0.667999	0.303625	1	0.0033364	40	39.0463	0.000202821
2	1	0	1	0	39.31	0.673022	0.673247	0.304431	1	0.0034123	40	39.2962	0.000204957
2	1	0	1	0	39.5599	0.678019	0.678065	0.306179	1	0.00348864	40	39.5461	0.000207609
2	1	0	1	0	39.8098	0.683017	0.683026	0.305812	1	0.00356515	40	39.796	0.000208878
2	1	0	1	0	40.0596	0.688014	0.688147	0.306435	1	0.00364152	40	40.0458	0.000210872
2	1	0	1	0	40.3095	0.693012	0.693292	0.306265	1	0.00371814	40	40.2957	0.000212331
2	1	0	1	0	40.5594	0.698009	0.698068	0.307332	1	0.00379483	40	40.5456	0.000214538
2	1	0	1	0	40.7723	0.69771	0.697818	0.306987	1	0.00386021	40	40.7585	0.000214221
2	1	0	1	0	41.0222	0.692712	0.692761	0.304676	1	0.00393649	40	41.0084	0.000211068
2	1	0	1	0	41.2721	0.687714	0.687869	0.303305	1	0.00401241	40	41.2583	0.000208634
2	1	0	1	0	41.5219	0.682717	0.682945	0.302612	1	0.00408813	40	41.5081	0.000206667
2	1	0	1	0	41.7718	0.677719	0.677797	0.301089	1	0.00416364	40	41.758	0.000204077
2	1	0	1	0	42.0217	0.672722	0.672959	0.300416	1	0.00423876	40	42.0079	0.000202167
2	1	0	1	0	42.2716	0.667724	0.667848	0.299492	1	0.00431364	40	42.2578	0.000200015
2	1	0	1	0	42.5215	0.662726	0.662938	0.298248	1	0.00438831	40	42.5077	0.00019772
2	1	0	1	0	42.7713	0.657729	0.657796	0.297706	1	0.00446277	40	42.7575	0.00019583
2	1	0	1	0	43.0212	0.652731	0.652842	0.296906	1	0.00453704	40	43.0074	0.000193833
2	1	0	1	0	43.2711	0.647734	0.647839	0.296745	1	0.00461121	40	43.2573	0.000192243
2	1	0	1	0	43.521	0.642736	0.642861	0.295622	1	0.00468517	40	43.5072	0.000190044
2	1	0	1	0	43.7709	0.637738	0.637862	0.293839	1	0.00475875	40	43.7571	0.000187429
2	1	0	1	0	44.0207	0.632741	0.632843	0.292944	1	0.00483209	40	44.0069	0.000185387
2	1	0	1	0	44.2706	0.627743	0.627886	0.292215	1	0.00490526	40	44.2568	0.000183478
2	1	0	1	0	44.5205	0.622746	0.622833	0.292185	1	0.00497833	40	44.5067	0.000181983
2	1	0	1	0	44.7704	0.617748	0.617799	0.290461	1	0.00505108	40	44.7566	0.000179447
2	1	0	1	0	45.0203	0.61275	0.613103	0.288877	1	0.00512342	40	45.0065	0.000177111
2	1	0	1	0	45.2701	0.607753	0.607946	0.288233	1	0.00519554	40	45.2563	0.00017523
2	1	0	1	0	45.52	0.602755	0.60287	0.28664	1	0.00526738	40	45.5062	0.000172807
2	1	0	1	0	45.7699	0.597758	0.598029	0.286071	1	0.00533881	40	45.7561	0.000171079
2	1	0	1	0	46.0198	0.59276	0.592917	0.284882	1	0.0054102	40	46.006	0.000168911
2	1	0	1	0	46.2697	0.587762	0.587934	0.282147	1	0.00548083	40	46.2559	0.000165884
2	1	0	1	0	46.5195	0.582765	0.582915	0.281342	1	0.00555128	40	46.5057	0.000163998
2	1	0	1	0	46.7694	0.577767	0.578036	0.27938	1	0.00562135	40	46.7556	0.000161492
2	1	0	1	0	47.0193	0.57277	0.572958	0.278262	1	0.00569113	40	47.0055	0.000159432
2	1	0	1	0	47.2692	0.567772	0.567847	0.276776	1	0.00576049	40	47.2554	0.000157166
2	1	0	1	0	47.5191	0.562774	0.562979	0.275708	1	0.00582951	40	47.5053	0.000155218
2	1	0	1	0	47.769	0.557775	0.557793	0.273978	1	0.00589804	40	47.7552	0.000152823
2	1	0	1	0	48.0188	0.552779	0.553116	0.271217	1	0.00596613	40	48.005	0.000150015
2	1	0	1	0	48.2687	0.547781	0.547974	0.268735	1	0.00603357	40	48.2549	0.00014726
2	1	0	1	0	48.5186	0.542784	0.542987	0.266472	1	0.00610048	40	48.5048	0.000144691
2	1	0	1	0	48.7685	0.537786	0.538016	0.263297	1	0.00616665	40	48.7547	0.000141658
2	1	0	1	0	49.0184	0.532787	0.532759	0.260703	1	0.00623217	40	49.0046	0.000138892
2	1	0	1	0	49.2682	0.527791	0.527861	0.257428	1	0.0062969	40	49.2544	0.000135886
2	1	0	1	0	49.5181	0.522793	0.523034	0.253967	1	0.00636069	40	49.5043	0.000132833
2	1	0	1	0	49.768	0.517796	0.517817	0.24991	1	0.00642359	40	49.7542	0.000129408
2	1	0	1	0	50.0179	0.512798	0.512901	0.245454	1	0.00648546	40	50.0041	0.000125894
2	1	0	1	0	50.2678	0.507799	0.508022	0.239123	1	0.00654586	40	50.254	0.00012148
2	1	0	1	0	50.5176	0.502803	0.503035	0.233971	1	0.00660486	40	50.5038	0.000117695
2	1	0	1	0	50.7675	0.497805	0.497892	0.22788	1	0.00666253	40	50.7537	0.00011346
2	1	0	1	0	51.0174	0.492808	0.493125	0.221952	1	0.00671867	40	51.0036	0.00010945
2	1	0	1	0	51.2673	0.48781	0.487912	0.213986	1	0.00677309	40	51.2535	0.000104406
2	1	0	1	0	51.5172	0.482812	0.482926	0.205493	1	0.00682548	40	51.5034	9.92382e-05
2	1	0	1	0	51.767	0.477815	0.478133	0.196037	1	0.00687557	40	51.7532	9.37316e-05
2	1	0	1	0	52.0169	0.472817	0.473062	0.187038	1	0.00692344	40	52.0031	8.84808e-05
2	1	0	1	0	52.2668	0.46782	0.468143	0.176824	1	0.0069688	40	52.253	8.27791e-05
2	1	0	1	0	52.5167	0.462822	0.463102	0.165979	1	0.00701155	40	52.5029	7.68651e-05
2	1	0	1	0	52.7666	0.457824	0.457886	0.154662	1	0.00705157	40	52.7528	7.08173e-05
2	1	0	1	0	53.0164	0.452827	0.453126	0.143884	1	0.00708876	40	53.0026	6.51974e-05
2	1	0	1	0	53.2663	0.447829	0.448008	0.132351	1	0.00712322	40	53.2525	5.92941e-05
2	1	0	1	0	53.5162	0.442832	0.443063	0.120676	1	0.00715479	40	53.5024	5.3467e-05
2	1	0	1	0	53.7661	0.437834	0.437928	0.110279	1	0.00718355	40	53.7523	4.8294e-05
2	1	0	1	0	54.016	0.432836	0.432996	0.0997093	1	0.00720966	40	54.0022	4.31738e-05
2	1	0	1	0	54.2658	0.427839	0.42795	0.0897863	1	0.00723326	40	54.252	3.8424e-05
2	1	0	1	0	54.5157	0.422841	0.42296	0.0803301	1	0.00725444	40	54.5019	3.39764e-05
2	1	0	1	0	54.7656	0.417844	0.417969	0.0723141	1	0.00727343	40	54.7518	3.0225e-05
2	1	0	1	0	55.0155	0.412846	0.413096	0.064564	1	0.0072904	40	55.0017	2.66711e-05
2	1	0	1	0	55.2654	0.407849	0.40808	0.0577632	1	0.0073056	40	55.2516	2.3572e-05
2	1	0	1	0	55.5152	0.402851	0.40308	0.0513638	1	0.00731912	40	55.5014	2.07037e-05
2	1	0	1	0	55.7651	0.397853	0.397961	0.0460165	1	0.00733118	40	55.7513	1.83128e-05
2	1	0	1	0	56.045	0.392256	0.392468	0.0406664	1	0.00734328	41	56.0312	1.59603e-05
2	1	0	1	0	56.2949	0.387258	0.387394	0.0367424	1	0.00735293	41	56.2811	1.42338e-05
2	1	0	1	0	56.5447	0.382261	0.382209	0.0332511	1	0.00736164	41	56.5309	1.27089e-05
2	1	0	1	0	56.7946	0.377263	0.37738	0.0301133	1	0.00736953	41	56.7808	1.13642e-05
2	1	0	1	0	57.0445	0.372266	0.372551	0.0275972	1	0.00737672	41	57.0307	1.02814e-05
2	1	0	1	0	57.2944	0.367268	0.367365	0.0253072	1	0.00738331	41	57.2806	9.297e-06
2	1	0	1	0	57.5443	0.36227	0.362559	0.0229519	1	0.00738932	41	57.5305	8.32141e-06
2	1	0	1	0	57.7942	0.357271	0.357354	0.0212073	1	0.00739483	41	57.7804	7.57853e-06
2	1	0	1	0	58.044	0.352275	0.352434	0.0197282	1	0.00739993	41	58.0302	6.95289e-06
2	1	0	1	0	58.2939	0.347278	0.347358	0.0180783	1	0.00740463	41	58.2801	6.27964e-06
2	1	0	1	0	58.5438	0.34228	0.342619	0.0167328	1	0.00740897	41	58.53	5.73298e-06
2	1	0	1	0	58.7937	0.337282	0.337526	0.0154148	1	0.00741297	41	58.7799	5.20291e-06
2	1	0	1	0	59.0436	0.332283	0.332457	0.014138	1	0.00741665	41	59.0298	4.70028e-06
2	1	0	1	0	59.2934	0.327287	0.327383	0.0128522	1	0.00742001	41	59.2796	4.20758e-06
2	1	0	1	0	59.5433	0.32229	0.322489	0.0116573	1	0.00742307	41	59.5295	3.75934e-06
2	1	0	1	0	59.7932	0.317292	0.317544	0.0106148	1	0.00742583	41	59.7794	3.37067e-06
2	1	0	1	0	60.0431	0.312294	0.312432	0.00934694	1	0.00742831	41	60.0293	2.92028e-06
2	1	0	1	0	60.293	0.307295	0.307328	0.00840396	1	0.00743052	41	60.2792	2.58278e-06
2	1	0	1	0	60.5428	0.302299	0.302529	0.00742588	1	0.00743249	41	60.529	2.24655e-06
2	1	0	1	0	60.7927	0.297301	0.297404	0.00647318	1	0.00743421	41	60.7789	1.92515e-06
2	1	0	1	0	61.0426	0.292304	0.292506	0.00560319	1	0.00743571	41	61.0288	1.63897e-06
2	1	0	1	0	61.2925	0.287306	0.287407	0.00484446	1	0.007437	41	61.2787	1.39233e-06
2	1	0	1	0	61.5723	0.281709	0.281896	0.00401523	1	0.00743823	42	61.5585	1.13188e-06
2	1	0	1	0	61.8222	0.276711	0.276935	0.00332283	1	0.00743915	42	61.8084	9.20211e-07
2	1	0	1	0	62.0721	0.271714	0.271859	0.00283253	1	0.00743992	42	62.0583	7.70049e-07
2	1	0	1	0	62.322	0.266716	0.266843	0.00235488	1	0.00744056	42	62.3082	6.28382e-07
2	1	0	1	0	62.5719	0.261719	0.261876	0.00189975	1	0.00744109	42	62.5581	4.97501e-07
2	1	0	1	0	62.8217	0.256721	0.257094	0.0015053	1	0.00744151	42	62.8079	3.87004e-07
2	1	0	1	0	63.0716	0.251723	0.251951	0.0012384	1	0.00744185	42	63.0578	3.12015e-07
2	1	0	1	0	63.3215	0.246726	0.247007	0.000934502	1	0.00744212	42	63.3077	2.30828e-07
2	1	0	1	0	63.5714	0.241728	0.241845	0.000636793	1	0.00744232	42	63.5576	1.54005e-07
2	1	0	1	0	63.8213	0.236731	0.236994	0.000524905	1	0.00744246	42	63.8075	1.24399e-07
2	1	0	1	0	64.1011	0.231133	0.231289	0.000259884	1	0.00744257	43	64.0873	6.01083e-08
2	1	0	1	0	64.351	0.226136	0.226479	0.000148324	1	0.00744262	43	64.3372	3.35922e-08
2	1	0	1	0	64.6009	0.221138	0.221364	1.13588e-06	1	0.00744263	43	0.000000000000000E+000	2.51443e-10
2	0	0	1	0	64.8508	0.21614	0.216331	-0.000113051	1	0.00744262	43	0.1999	-2.44564e-08
2	0	0	1	0	65.1006	0.211143	0.211283	-0.000204242	1	0.00744258	43	0.4497	-4.3153e-08
2	0	0	1	0	65.3505	0.206145	0.206255	-0.000287975	1	0.00744252	43	0.6996	-5.93963e-08
2	0	0	1	0	65.6004	0.201148	0.20144	-0.000364878	1	0.00744244	43	0.9495	-7.35011e-08
2	0	0	1	0	65.8503	0.19615	0.196399	-0.000421728	1	0.00744234	43	1.1994	-8.28269e-08
2	0	0	1	0	66.1002	0.191152	0.191357	-0.000481026	1	0.00744222	43	1.4493	-9.20478e-08
2	0	0	1	0	66.35	0.186155	0.186426	-0.000544619	1	0.0074421	43	1.6991	-1.01531e-07
2	0	0	1	0	66.5999	0.181157	0.181271	-0.00056615	1	0.00744196	43	1.949	-1.02626e-07
2	0	0	1	0	66.8498	0.17616	0.176479	-0.000603624	1	0.00744181	43	2.1989	-1.06527e-07
2	0	0	1	0	67.0997	0.171162	0.171373	-0.000644158	1	0.00744166	43	2.4488	-1.10392e-07
2	0	0	1	0	67.3496	0.166164	0.166301	-0.000663359	1	0.00744149	43	2.6987	-1.10317e-07
2	0	0	1	0	67.5994	0.161168	0.161264	-0.000687011	1	0.00744132	43	2.9485	-1.1079e-07
2	0	0	1	0	67.8493	0.156169	0.156554	-0.000711288	1	0.00744115	43	3.1984	-1.11355e-07
2	0	0	1	0	68.0992	0.151172	0.151293	-0.000741438	1	0.00744096	43	3.4483	-1.12174e-07
2	0	0	1	0	68.3491	0.146174	0.14643	-0.000755524	1	0.00744078	43	3.6982	-1.10631e-07
2	0	0	1	0	68.599	0.141176	0.141462	-0.000764455	1	0.00744059	43	3.9481	-1.08141e-07
2	0	0	1	0	68.8488	0.13618	0.136314	-0.00078281	1	0.00744039	43	4.1979	-1.06708e-07
2	0	0	1	0	69.0987	0.131181	0.131438	-0.000786931	1	0.0074402	43	4.4478	-1.03433e-07
2	0	0	1	0	69.3486	0.126183	0.12626	-0.000794519	1	0.00744	43	4.6977	-1.00316e-07
2	0	0	1	0	69.5985	0.121186	0.121321	-0.000803523	1	0.0074398	43	4.9476	-9.74841e-08
2	0	0	1	0	69.8484	0.116188	0.116639	-0.000803421	1	0.0074396	43	5.1975	-9.37098e-08
2	0	0	1	0	70.0982	0.111192	0.111441	-0.000808656	1	0.00743939	43	5.4473	-9.01176e-08
2	0	0	1	0	70.3481	0.106193	0.106424	-0.000814721	1	0.00743919	43	5.6972	-8.67056e-08
2	0	0	1	0	70.598	0.101195	0.101241	-0.000832649	1	0.00743898	43	5.9471	-8.42981e-08
2	0	0	1	0	70.8479	0.0961979	0.0962601	-0.000815759	1	0.00743878	43	6.197	-7.8525e-08
2	0	0	1	0	71.0978	0.0912002	0.0912502	-0.000819461	1	0.00743857	43	6.4469	-7.4776e-08
2	0	0	1	0	71.3476	0.0862044	0.0864604	-0.000826056	1	0.00743837	43	6.6967	-7.14211e-08
2	0	0	1	0	71.5975	0.081205	0.0813832	-0.000832305	1	0.00743816	43	6.9466	-6.77356e-08
2	0	0	1	0	71.8474	0.0762074	0.0766235	-0.000803903	1	0.00743796	43	7.1965	-6.15978e-08
2	0	0	1	0	72.0973	0.0712098	0.0715352	-0.00081493	1	0.00743776	43	7.4464	-5.82962e-08
2	0	0	1	0	72.3472	0.0662122	0.0664174	-0.000812452	1	0.00743755	43	7.6963	-5.39609e-08
2	0	0	1	0	72.5971	0.0612146	0.0613433	-0.000798552	1	0.00743735	43	7.9462	-4.89859e-08
2	0	0	1	0	72.8469	0.056217	0.0564672	-0.000799825	1	0.00743715	43	8.196	-4.51639e-08
2	0	0	1	0	73.0968	0.0512194	0.0514032	-0.00080888	1	0.00743695	43	8.4459	-4.1579e-08
2	0	0	1	0	73.3467	0.0462218	0.0465022	-0.000784601	1	0.00743675	43	8.6958	-3.64857e-08
2	0	0	1	0	73.5966	0.0412242	0.0413377	-0.000783779	1	0.00743655	43	8.9457	-3.23996e-08
2	0	0	1	0	73.8465	0.0362266	0.0365116	-0.000796648	1	0.00743635	43	9.1956	-2.90869e-08
2	0	0	1	0	74.0963	0.031229	0.0314223	-0.000789687	1	0.00743616	43	9.4454	-2.48138e-08
2	0	0	1	0	74.3462	0.0262314	0.0264914	-0.000776069	1	0.00743596	43	9.6953	-2.05592e-08
2	0	0	1	0	74.5961	0.0212338	0.0214898	-0.000781756	1	0.00743577	43	9.9452	-1.67998e-08
2	0	0	1	0	74.846	0.0162362	0.0163222	-0.000771959	1	0.00743557	43	10.1951	-1.26001e-08
2	0	0	1	0	75.0959	0.0112386	0.0113628	-0.000763395	1	0.00743538	43	10.445	-8.67427e-09
2	0	0	1	0	75.3457	0.00624095	0.00636587	-0.000761816	1	0.00743519	43	10.6948	-4.84962e-09
2	0	0	1	0	75.5956	0.00124335	0.00139319	-0.000772467	1	0.007435	43	10.9447	-1.07619e-09
2	1	0	1	1	75.8511	0.00389208	0.00416563	-2.62116e-05	2	0.00743492	42	11.2002	-1.09188e-10
2	1	0	1	1	76.131	0.0094894	0.0098547	0.000117856	2	0.00743494	43	0.2299	1.16144e-09
2	1	0	1	1	76.3809	0.014487	0.0147465	0.000176814	2	0.00743498	43	0.4798	2.60739e-09
2	1	0	1	1	76.6307	0.0194846	0.0197427	0.000246717	2	0.00743503	43	0.7296	4.87086e-09
2	1	0	1	1	76.8806	0.0244822	0.0246047	0.00027575	2	0.0074351	43	0.9795	6.78475e-09
2	1	0	1	1	77.1305	0.0294798	0.0296979	0.000305675	2	0.00743517	43	1.2294	9.07788e-09
2	1	0	1	1	77.3804	0.0344774	0.0347481	0.000350816	2	0.00743525	43	1.4793	1.21902e-08
2	1	0	1	1	77.6303	0.039475	0.0398452	0.000377805	2	0.00743534	43	1.7292	1.50537e-08
2	1	0	1	1	77.8801	0.0444726	0.0447028	0.000414376	2	0.00743544	43	1.979	1.85238e-08
2	1	0	1	1	78.13	0.0494702	0.0496586	0.000418878	2	0.00743555	43	2.2289	2.08009e-08
2	1	0	1	1	78.3799	0.0544678	0.054643	0.000452536	2	0.00743565	43	2.4788	2.47279e-08
2	1	0	1	1	78.6298	0.0594654	0.0597785	0.000474765	2	0.00743577	43	2.7287	2.83807e-08
2	1	0	1	1	78.8797	0.0644631	0.0646821	0.000486658	2	0.00743589	43	2.9786	3.1478e-08
2	1	0	1	1	79.1296	0.0694624	0.069586	0.000518575	2	0.00743602	43	3.2285	3.60856e-08
2	1	0	1	1	79.3794	0.0744583	0.0747886	0.000537478	2	0.00743615	43	3.4783	4.01972e-08
2	1	0	1	1	79.6293	0.0794559	0.0796894	0.000553212	2	0.00743628	43	3.7282	4.40851e-08
2	1	0	1	1	79.8792	0.0844535	0.0848544	0.000586034	2	0.00743643	43	3.9781	4.97276e-08
2	1	0	1	1	80.1291	0.0894511	0.0896278	0.000610266	2	0.00743657	43	4.228	5.46968e-08
2	1	0	1	1	80.379	0.09445	0.0947284	0.000631538	2	0.00743673	43	4.4779	5.98246e-08
2	1	0	1	1	80.6288	0.0994463	0.0997782	0.000652807	2	0.00743689	43	4.7277	6.51359e-08
2	1	0	1	1	80.8787	0.104444	0.104546	0.000699067	2	0.00743706	43	4.9776	7.30848e-08
2	1	0	1	1	81.1286	0.109442	0.109637	0.000714416	2	0.00743724	43	5.2275	7.83263e-08
2	1	0	1	1	81.3785	0.114439	0.114613	0.000741415	2	0.00743742	43	5.4774	8.49756e-08
2	1	0	1	1	81.6284	0.119438	0.119501	0.000791103	2	0.00743761	43	5.7273	9.45377e-08
2	1	0	1	1	81.8782	0.124434	0.124647	0.000825617	2	0.00743781	43	5.9771	1.02911e-07
2	1	0	1	1	82.1281	0.129432	0.129583	0.000859264	2	0.00743802	43	6.227	1.11346e-07
2	1	0	1	1	82.378	0.13443	0.134648	0.000905575	2	0.00743824	43	6.4769	1.21934e-07
2	1	0	1	1	82.6279	0.139427	0.139721	0.000957411	2	0.00743847	43	6.7268	1.3377e-07
2	1	0	1	1	82.8778	0.144426	0.144648	0.000988437	2	0.00743872	43	6.9767	1.42975e-07
2	1	0	1	1	83.1276	0.149422	0.1495	0.00103261	2	0.00743897	43	7.2265	1.54375e-07
2	1	0	1	1	83.4075	0.15502	0.15538	0.0011036	2	0.00743928	42	7.5064	1.71477e-07
2	1	0	1	1	83.6574	0.160017	0.160278	0.00115725	2	0.00743956	42	7.7563	1.85482e-07
2	1	0	1	1	83.9073	0.165015	0.165222	0.00125912	2	0.00743986	42	8.0062	2.08035e-07
2	1	0	1	1	84.1571	0.170012	0.17033	0.00131544	2	0.00744018	42	8.256	2.24059e-07
2	1	0	1	1	84.407	0.17501	0.175139	0.00132883	2	0.00744051	42	8.5059	2.32729e-07
2	1	0	1	1	84.6569	0.180008	0.18038	0.00147345	2	0.00744087	42	8.7558	2.65781e-07
2	1	0	1	1	84.9068	0.185005	0.185166	0.00151771	2	0.00744124	42	9.0057	2.81029e-07
2	1	0	1	1	85.1567	0.190003	0.190171	0.00157804	2	0.00744163	42	9.2556	3.00098e-07
2	1	0	1	1	85.4065	0.195001	0.195291	0.00170708	2	0.00744204	42	9.5054	3.33376e-07
2	1	0	1	1	85.6564	0.199998	0.200259	0.00178194	2	0.00744247	42	9.7553	3.5685e-07
2	1	0	1	1	85.9063	0.204996	0.205085	0.00188225	2	0.00744293	42	10.0052	3.86022e-07
2	1	0	1	1	86.1562	0.209993	0.210244	0.00196407	2	0.00744341	42	10.2551	4.12933e-07
2	1	0	1	1	86.4061	0.214991	0.215238	0.00213695	2	0.00744393	42	10.505	4.59953e-07
2	1	0	1	1	86.6559	0.219989	0.220156	0.00222824	2	0.00744447	42	10.7548	4.90561e-07
2	1	0	1	1	86.9058	0.224986	0.225242	0.00234647	2	0.00744504	42	11.0047	5.28523e-07
2	1	0	1	1	87.1557	0.229984	0.230242	0.00258439	2	0.00744566	42	11.2546	5.95036e-07
2	1	0	1	1	87.4056	0.234981	0.235334	0.00275067	2	0.00744632	42	11.5045	6.47329e-07
2	1	0	1	1	87.6555	0.239979	0.240286	0.00295884	2	0.00744704	42	11.7544	7.10968e-07
2	1	0	1	1	87.9053	0.244977	0.245099	0.00323879	2	0.00744782	42	12.0042	7.93825e-07
2	1	0	1	1	88.1552	0.249974	0.250295	0.00353609	2	0.00744866	42	12.2541	8.85065e-07
2	1	0	1	1	88.4051	0.254972	0.255219	0.00386395	2	0.00744958	42	12.504	9.86156e-07
2	1	0	1	1	88.655	0.259969	0.260098	0.00420009	2	0.00745059	42	12.7539	1.09243e-06
2	1	0	1	1	88.9049	0.264967	0.265204	0.00473339	2	0.00745171	42	13.0038	1.25532e-06
2	1	0	1	1	89.1548	0.269966	0.270433	0.00520544	2	0.00745294	42	13.2537	1.40773e-06
2	1	0	1	1	89.4046	0.274962	0.275173	0.00574329	2	0.00745431	42	13.5035	1.5804e-06
2	1	0	1	1	89.6545	0.27996	0.280303	0.00644004	2	0.00745583	42	13.7534	1.80516e-06
2	1	0	1	1	89.9044	0.284957	0.285189	0.00712689	2	0.00745752	42	14.0033	2.03251e-06
2	1	0	1	1	90.1543	0.289955	0.290111	0.00789577	2	0.0074594	42	14.2532	2.29065e-06
2	1	0	1	1	90.4042	0.294954	0.295132	0.00875965	2	0.00746148	42	14.5031	2.58525e-06
2	1	0	1	1	90.654	0.29995	0.300058	0.00971913	2	0.00746379	42	14.7529	2.91631e-06
2	1	0	1	1	90.9039	0.304948	0.305289	0.0107093	2	0.00746634	42	15.0028	3.26941e-06
2	1	0	1	1	91.1838	0.310545	0.310913	0.0118689	2	0.0074695	41	15.2827	3.69021e-06
2	1	0	1	1	91.4336	0.315541	0.315721	0.0129638	2	0.00747261	41	15.5325	4.09294e-06
2	1	0	1	1	91.6835	0.32054	0.320814	0.0141436	2	0.00747601	41	15.7824	4.53746e-06
2	1	0	1	1	91.9334	0.325538	0.325906	0.0152669	2	0.0074797	41	16.0323	4.97556e-06
2	1	0	1	1	92.1833	0.330536	0.330929	0.0166065	2	0.00748369	41	16.2822	5.49557e-06
2	1	0	1	1	92.4332	0.335533	0.33572	0.0178543	2	0.007488	41	16.5321	5.99404e-06
2	1	0	1	1	92.6831	0.340531	0.340815	0.0191617	2	0.00749264	41	16.782	6.53061e-06
2	1	0	1	1	92.9329	0.345528	0.345667	0.0206641	2	0.00749763	41	17.0318	7.1429e-06
2	1	0	1	1	93.1828	0.350526	0.350696	0.0220967	2	0.00750299	41	17.2817	7.74924e-06
2	1	0	1	1	93.4327	0.355524	0.355657	0.0237542	2	0.00750873	41	17.5316	8.44833e-06
2	1	0	1	1	93.6826	0.360521	0.360764	0.0256906	2	0.00751491	41	17.7815	9.26824e-06
2	1	0	1	1	93.9325	0.365519	0.365781	0.0277052	2	0.00752161	41	18.0314	1.01341e-05
2	1	0	1	1	94.1823	0.370516	0.370704	0.0301043	2	0.00752883	41	18.2812	1.11598e-05
2	1	0	1	1	94.4322	0.375514	0.375898	0.0327608	2	0.00753669	41	18.5311	1.23147e-05
2	1	0	1	1	94.6821	0.380512	0.380736	0.0359638	2	0.00754529	41	18.781	1.36927e-05
2	1	0	1	1	94.932	0.385509	0.385782	0.0394265	2	0.0075547	41	19.0309	1.521e-05
2	1	0	1	1	95.1819	0.390507	0.390922	0.0433623	2	0.00756506	41	19.2808	1.69513e-05
2	1	0	1	1	95.4317	0.395504	0.395512	0.048261	2	0.00757652	41	19.5306	1.90878e-05
2	1	0	1	1	95.6816	0.400502	0.400662	0.0537566	2	0.00758926	41	19.7805	2.15382e-05
2	1	0	1	1	95.9315	0.4055	0.405497	0.0598648	2	0.00760346	41	20.0304	2.4275e-05
2	1	0	1	1	96.1814	0.410497	0.410763	0.0667908	2	0.00761927	41	20.2803	2.74352e-05
2	1	0	1	1	96.4313	0.415495	0.415777	0.0746848	2	0.00763694	41	20.5302	3.10522e-05
2	1	0	1	1	96.6811	0.420492	0.420757	0.0834755	2	0.0076567	41	20.78	3.51229e-05
2	1	0	1	1	96.931	0.42549	0.425712	0.0926301	2	0.00767868	41	21.0299	3.94337e-05
2	1	0	1	1	97.1809	0.430488	0.430672	0.102592	2	0.00770309	41	21.2798	4.41835e-05
2	1	0	1	1	97.4608	0.436085	0.436354	0.114229	2	0.0077335	40	21.5597	4.98442e-05
2	1	0	1	1	97.7106	0.441082	0.441294	0.12506	2	0.00776349	40	21.8095	5.51882e-05
2	1	0	1	1	97.9605	0.44608	0.44637	0.137378	2	0.00779638	40	22.0594	6.13214e-05
2	1	0	1	1	98.2104	0.451078	0.451237	0.149144	2	0.00783229	40	22.3093	6.72994e-05
2	1	0	1	1	98.4603	0.456075	0.456252	0.160985	2	0.00787112	40	22.5592	7.34497e-05
2	1	0	1	1	98.7102	0.461073	0.461227	0.172167	2	0.00791283	40	22.8091	7.94079e-05
2	1	0	1	1	98.96	0.46607	0.466277	0.182944	2	0.00795729	40	23.0589	8.53027e-05
2	1	0	1	1	99.2099	0.471068	0.471364	0.193869	2	0.00800446	40	23.3088	9.1383e-05
2	1	0	1	1	99.4598	0.476066	0.476237	0.202181	2	0.00805407	40	23.5587	9.6286e-05
2	1	0	1	1	99.7097	0.481063	0.481252	0.212033	2	0.00810598	40	23.8086	0.000102041
2	1	0	1	1	99.9596	0.486061	0.48622	0.22069	2	0.00816018	40	24.0585	0.000107304
2	1	0	1	1	100.209	0.491058	0.491344	0.228131	2	0.00821632	40	24.3083	0.000112091
2	1	0	1	1	100.459	0.496056	0.496135	0.235534	2	0.00827439	40	24.5582	0.000116856
2	1	0	1	1	100.709	0.501054	0.501377	0.241377	2	0.00833394	40	24.8081	0.000121021
2	1	0	1	1	100.959	0.506051	0.506301	0.246413	2	0.00839495	40	25.058	0.000124759
2	1	0	1	1	101.209	0.511049	0.511118	0.251448	2	0.00845723	40	25.3079	0.00012852
2	1	0	1	1	101.459	0.516045	0.516136	0.255845	2	0.00852065	40	25.5577	0.000132051
2	1	0	1	1	101.709	0.521044	0.521297	0.260599	2	0.0085851	40	25.8076	0.00013585
2	1	0	1	1	101.959	0.526042	0.526168	0.263072	2	0.00865057	40	26.0575	0.00013842
2	1	0	1	1	102.208	0.531039	0.531314	0.266922	2	0.00871692	40	26.3074	0.000141819
2	1	0	1	1	102.458	0.536037	0.536452	0.268625	2	0.0087838	40	26.5573	0.000144104
2	1	0	1	1	102.708	0.541033	0.541269	0.27175	2	0.00885142	40	26.8071	0.00014709
2	1	0	1	1	102.958	0.546032	0.546314	0.273753	2	0.00891964	40	27.057	0.000149555
2	1	0	1	1	103.208	0.55103	0.551258	0.275123	2	0.00898826	40	27.3069	0.000151664
2	1	0	1	1	103.458	0.556028	0.556142	0.276617	2	0.00905718	40	27.5568	0.000153838
2	1	0	1	1	103.708	0.561025	0.561101	0.278456	2	0.00912654	40	27.8067	0.000156242
2	1	0	1	1	103.958	0.566021	0.566263	0.280146	2	0.00919639	40	28.0565	0.000158637
2	1	0	1	1	104.207	0.57102	0.571287	0.280843	2	0.0092665	40	28.3064	0.000160442
2	1	0	1	1	104.457	0.576018	0.576182	0.283325	2	0.00933715	40	28.5563	0.000163247
2	1	0	1	1	104.707	0.581016	0.581259	0.284235	2	0.00940813	40	28.8062	0.000165214
2	1	0	1	1	104.957	0.586013	0.586113	0.286436	2	0.00947937	40	29.0561	0.000167884
2	1	0	1	1	105.207	0.591011	0.591282	0.286349	2	0.00955101	40	29.306	0.000169313
2	1	0	1	1	105.457	0.596008	0.596046	0.287293	2	0.00962269	40	29.5558	0.00017124
2	1	0	1	1	105.707	0.601006	0.601309	0.288306	2	0.00969465	40	29.8057	0.000173361
2	1	0	1	1	105.957	0.606004	0.606078	0.288717	2	0.00976666	40	30.0556	0.000174985
2	1	0	1	1	106.207	0.611001	0.611034	0.290485	2	0.00983906	40	30.3055	0.000177496
2	1	0	1	1	106.456	0.615999	0.616364	0.291004	2	0.00991179	40	30.5554	0.000179365
2	1	0	1	1	106.706	0.620996	0.621026	0.290999	2	0.00998454	40	30.8052	0.000180718
2	1	0	1	1	106.956	0.625994	0.626182	0.292926	2	0.0100575	40	31.0551	0.000183425
2	1	0	1	1	107.206	0.630992	0.631205	0.293727	2	0.0101309	40	31.305	0.000185402
2	1	0	1	1	107.456	0.635989	0.63617	0.293151	2	0.0102043	40	31.5549	0.000186494
2	1	0	1	1	107.706	0.640987	0.641179	0.294057	2	0.0102777	40	31.8048	0.000188543
2	1	0	1	1	107.956	0.645984	0.646247	0.296175	2	0.0103515	40	32.0546	0.000191402
2	1	0	1	1	108.206	0.650982	0.651213	0.2959	2	0.0104255	40	32.3045	0.000192694
2	1	0	1	1	108.455	0.65598	0.656174	0.296736	2	0.0104996	40	32.5544	0.00019471
2	1	0	1	1	108.705	0.660977	0.661044	0.297518	2	0.0105739	40	32.8043	0.000196673
2	1	0	1	1	108.955	0.665975	0.666166	0.298027	2	0.0106484	40	33.0542	0.000198535
2	1	0	1	1	109.205	0.670972	0.67105	0.299217	2	0.010723	40	33.304	0.00020079
2	1	0	1	1	109.455	0.67597	0.676034	0.298203	2	0.0107977	40	33.5539	0.000201596
2	1	0	1	1	109.705	0.680968	0.681197	0.299158	2	0.0108724	40	33.8038	0.000203786
2	1	0	1	1	109.955	0.685965	0.686112	0.30075	2	0.0109474	40	34.0537	0.000206348
2	1	0	1	1	110.205	0.690963	0.69107	0.29929	2	0.0110224	40	34.3036	0.00020683
2	1	0	1	1	110.454	0.695961	0.69621	0.301324	2	0.0110975	40	34.5534	0.000209785
2	1	0	1	1	110.67	0.699707	0.699854	0.30106	2	0.0111624	40	34.7689	0.000210698
2	1	0	1	1	110.92	0.694711	0.694757	0.300241	2	0.0112375	40	35.0187	0.000208595
2	1	0	1	1	111.17	0.689713	0.689926	0.297881	2	0.0113122	40	35.2686	0.000205516
2	1	0	1	1	111.42	0.684716	0.684946	0.297184	2	0.0113867	40	35.5185	0.000203555
2	1	0	1	1	111.669	0.679718	0.679889	0.296534	2	0.0114608	40	35.7684	0.00020161
2	1	0	1	1	111.919	0.674719	0.67498	0.296522	2	0.0115348	40	36.0183	0.000200146
2	1	0	1	1	112.169	0.669723	0.669885	0.295046	2	0.0116087	40	36.2681	0.000197647
2	1	0	1	1	112.419	0.664725	0.664872	0.293034	2	0.0116821	40	36.518	0.00019483
2	1	0	1	1	112.669	0.659728	0.659916	0.2924	2	0.0117552	40	36.7679	0.00019296
2	1	0	1	1	112.919	0.65473	0.655192	0.292159	2	0.0118283	40	37.0178	0.00019142
2	1	0	1	1	113.169	0.649731	0.649805	0.292081	2	0.0119013	40	37.2677	0.000189795
2	1	0	1	1	113.419	0.644735	0.64489	0.289793	2	0.011974	40	37.5175	0.000186884
2	1	0	1	1	113.668	0.639737	0.639928	0.289215	2	0.0120464	40	37.7674	0.000185077
2	1	0	1	1	113.918	0.63474	0.634911	0.288193	2	0.0121186	40	38.0173	0.000182977
2	1	0	1	1	114.168	0.629742	0.629955	0.287492	2	0.0121905	40	38.2672	0.000181107
2	1	0	1	1	114.418	0.624743	0.625163	0.286558	2	0.0122622	40	38.5171	0.000179145
2	1	0	1	1	114.668	0.619747	0.619985	0.285198	2	0.0123334	40	38.7669	0.000176819
2	1	0	1	1	114.918	0.614749	0.615007	0.284148	2	0.0124046	40	39.0168	0.000174753
2	1	0	1	1	115.168	0.609752	0.609928	0.283222	2	0.0124754	40	39.2667	0.000172745
2	1	0	1	1	115.418	0.604754	0.604935	0.281928	2	0.012546	40	39.5166	0.000170548
2	1	0	1	1	115.668	0.599756	0.599781	0.280249	2	0.0126161	40	39.7665	0.000168088
2	1	0	1	1	115.917	0.594759	0.595013	0.27882	2	0.012686	40	40.0163	0.000165902
2	1	0	1	1	116.167	0.589761	0.589942	0.278741	2	0.0127556	40	40.2662	0.000164441
2	1	0	1	1	116.417	0.584764	0.584962	0.276708	2	0.0128249	40	40.5161	0.000161863
2	1	0	1	1	116.667	0.579766	0.579987	0.274731	2	0.0128936	40	40.766	0.00015934
2	1	0	1	1	116.917	0.574768	0.575074	0.27345	2	0.0129621	40	41.0159	0.000157254
2	1	0	1	1	117.167	0.569771	0.569848	0.271392	2	0.01303	40	41.2657	0.000154652
2	1	0	1	1	117.417	0.564773	0.564962	0.269981	2	0.0130977	40	41.5156	0.000152529
2	1	0	1	1	117.667	0.559776	0.559987	0.268618	2	0.0131649	40	41.7655	0.000150423
2	1	0	1	1	117.916	0.554778	0.555049	0.266056	2	0.0132317	40	42.0154	0.000147674
2	1	0	1	1	118.166	0.54978	0.549942	0.263839	2	0.0132979	40	42.2653	0.000145096
2	1	0	1	1	118.416	0.544783	0.545064	0.260772	2	0.0133634	40	42.5151	0.000142137
2	1	0	1	1	118.666	0.539785	0.539952	0.258194	2	0.0134281	40	42.765	0.000139412
2	1	0	1	1	118.916	0.534788	0.534964	0.255859	2	0.0134923	40	43.0149	0.000136875
2	1	0	1	1	119.166	0.52979	0.529965	0.252389	2	0.0135558	40	43.2648	0.000133758
2	1	0	1	1	119.416	0.524792	0.525012	0.248658	2	0.0136184	40	43.5147	0.000130549
2	1	0	1	1	119.666	0.519795	0.520087	0.244037	2	0.01368	40	43.7645	0.00012692
2	1	0	1	1	119.915	0.514797	0.514945	0.240349	2	0.0137405	40	44.0144	0.000123766
2	1	0	1	1	120.165	0.5098	0.50988	0.235813	2	0.0138	40	44.2643	0.000120236
2	1	0	1	1	120.415	0.504802	0.504919	0.230484	2	0.0138581	40	44.5142	0.000116375
2	1	0	1	1	120.665	0.499804	0.499944	0.22517	2	0.0139151	40	44.7641	0.000112573
2	1	0	1	1	120.915	0.494807	0.495049	0.218378	2	0.0139704	40	45.0139	0.000108108
2	1	0	1	1	121.165	0.489809	0.490014	0.210393	2	0.0140238	40	45.2638	0.000103095
2	1	0	1	1	121.415	0.484812	0.484981	0.202662	2	0.0140754	40	45.5137	9.82869e-05
2	1	0	1	1	121.665	0.479814	0.480036	0.194825	2	0.0141251	40	45.7636	9.35229e-05
2	1	0	1	1	121.915	0.474816	0.475061	0.185177	2	0.0141724	40	46.0135	8.79702e-05
2	1	0	1	1	122.164	0.469819	0.470057	0.176038	2	0.0142175	40	46.2633	8.27482e-05
2	1	0	1	1	122.414	0.464821	0.465018	0.165617	2	0.0142602	40	46.5132	7.7015e-05
2	1	0	1	1	122.664	0.459824	0.460067	0.155351	2	0.0143003	40	46.7631	7.14719e-05
2	1	0	1	1	122.914	0.454826	0.454926	0.144579	2	0.0143377	40	47.013	6.57728e-05
2	1	0	1	1	123.164	0.449828	0.450052	0.133559	2	0.0143724	40	47.2629	6.01087e-05
2	1	0	1	1	123.414	0.444831	0.44497	0.122404	2	0.0144043	40	47.5127	5.44661e-05
2	1	0	1	1	123.664	0.439833	0.44005	0.111938	2	0.0144335	40	47.7626	4.92583e-05
2	1	0	1	1	123.914	0.434836	0.435095	0.101534	2	0.0144601	40	48.0125	4.41768e-05
2	1	0	1	1	124.163	0.429838	0.429959	0.091871	2	0.0144842	40	48.2624	3.95008e-05
2	1	0	1	1	124.413	0.42484	0.424935	0.082648	2	0.0145059	40	48.5123	3.512e-05
2	1	0	1	1	124.663	0.419843	0.420123	0.073919	2	0.0145253	40	48.7621	3.10551e-05
2	1	0	1	1	124.913	0.414845	0.415067	0.0661649	2	0.0145427	40	49.012	2.74629e-05
2	1	0	1	1	125.163	0.409848	0.41003	0.0593095	2	0.0145583	40	49.2619	2.43187e-05
2	1	0	1	1	125.413	0.40485	0.405106	0.052831	2	0.0145722	40	49.5118	2.14022e-05
2	1	0	1	1	125.663	0.399852	0.400125	0.0472087	2	0.0145846	40	49.7617	1.88894e-05
2	1	0	1	1	125.943	0.394255	0.394345	0.0416784	2	0.014597	41	50.0415	1.64357e-05
2	1	0	1	1	126.192	0.389257	0.389389	0.0377069	2	0.0146069	41	50.2914	1.46827e-05
2	1	0	1	1	126.442	0.38426	0.3845	0.0338539	2	0.0146158	41	50.5413	1.30168e-05
2	1	0	1	1	126.692	0.379262	0.379402	0.0308345	2	0.0146239	41	50.7912	1.16987e-05
2	1	0	1	1	126.942	0.374264	0.374546	0.028018	2	0.0146312	41	51.0411	1.0494e-05
2	1	0	1	1	127.192	0.369267	0.369417	0.0255382	2	0.0146379	41	51.2909	9.43424e-06
2	1	0	1	1	127.442	0.364269	0.364466	0.0234852	2	0.014644	41	51.5408	8.55955e-06
2	1	0	1	1	127.692	0.359272	0.35946	0.021606	2	0.0146496	41	51.7907	7.76647e-06
2	1	0	1	1	127.942	0.354274	0.354358	0.0199366	2	0.0146548	41	52.0406	7.06469e-06
2	1	0	1	1	128.192	0.349276	0.349357	0.0183829	2	0.0146595	41	52.2905	6.42219e-06
2	1	0	1	1	128.441	0.344279	0.344371	0.0168843	2	0.0146639	41	52.5403	5.81445e-06
2	1	0	1	1	128.691	0.339281	0.339322	0.0156235	2	0.014668	41	52.7902	5.3014e-06
2	1	0	1	1	128.941	0.334284	0.334479	0.0142884	2	0.0146717	41	53.0401	4.77917e-06
2	1	0	1	1	129.191	0.329286	0.329421	0.0130014	2	0.0146751	41	53.29	4.28293e-06
2	1	0	1	1	129.441	0.324288	0.324362	0.0119174	2	0.0146782	41	53.5399	3.86557e-06
2	1	0	1	1	129.691	0.319291	0.319518	0.0107002	2	0.014681	41	53.7897	3.4189e-06
2	1	0	1	1	129.941	0.314293	0.314451	0.00963804	2	0.0146836	41	54.0396	3.03069e-06
2	1	0	1	1	130.191	0.309296	0.309529	0.00861375	2	0.0146858	41	54.2895	2.66621e-06
2	1	0	1	1	130.44	0.304298	0.304582	0.00754096	2	0.0146878	41	54.5394	2.29684e-06
2	1	0	1	1	130.69	0.299301	0.299613	0.00665487	2	0.0146896	41	54.7893	1.99389e-06
2	1	0	1	1	130.94	0.294303	0.294615	0.00575101	2	0.0146911	41	55.0391	1.69433e-06
2	1	0	1	1	131.19	0.289305	0.289398	0.00493765	2	0.0146925	41	55.289	1.42895e-06
2	1	0	1	1	131.47	0.283708	0.283837	0.00405301	2	0.0146937	42	55.5689	1.15039e-06
2	1	0	1	1	131.72	0.27871	0.278902	0.00348909	2	0.0146947	42	55.8188	9.73114e-07
2	1	0	1	1	131.97	0.273713	0.273845	0.00287553	2	0.0146955	42	56.0686	7.87449e-07
2	1	0	1	1	132.22	0.268715	0.268695	0.00234044	2	0.0146961	42	56.3185	6.28864e-07
2	1	0	1	1	132.469	0.263718	0.264128	0.00192139	2	0.0146966	42	56.5684	5.07492e-07
2	1	0	1	1	132.719	0.25872	0.258852	0.00155702	2	0.0146971	42	56.8183	4.03039e-07
2	1	0	1	1	132.969	0.253722	0.253945	0.0011827	2	0.0146974	42	57.0682	3.0034e-07
2	1	0	1	1	133.219	0.248723	0.248951	0.000873546	2	0.0146977	42	57.3181	2.1747e-07
2	1	0	1	1	133.469	0.243727	0.243941	0.000686998	2	0.0146979	42	57.5679	1.67587e-07
2	1	0	1	1	133.749	0.23813	0.23837	0.00061687	2	0.014698	43	57.8478	1.47043e-07
2	1	0	1	1	133.999	0.233132	0.233306	0.000225758	2	0.0146981	43	58.0977	5.26707e-08
2	1	0	1	1	134.249	0.228136	0.228329	6.69971e-05	2	0.0146981	43	58.3475	1.52974e-08
2	0	0	1	1	134.498	0.223137	0.223343	-5.77593e-05	2	0.0146981	43	0.0499	-1.29001e-08
2	0	0	1	1	134.748	0.218139	0.218191	-0.000172568	2	0.0146981	43	0.2998	-3.76527e-08
2	0	0	1	1	134.998	0.213142	0.213315	-0.000279067	2	0.014698	43	0.5497	-5.9529e-08
2	0	0	1	1	135.248	0.208144	0.208372	-0.000357268	2	0.014698	43	0.7996	-7.44446e-08
2	0	0	1	1	135.498	0.203148	0.203283	-0.000425231	2	0.0146979	43	1.0494	-8.64423e-08
2	0	0	1	1	135.748	0.198149	0.198582	-0.000491651	2	0.0146977	43	1.2993	-9.76329e-08
2	0	0	1	1	135.998	0.193151	0.193274	-0.000550185	2	0.0146976	43	1.5492	-1.06337e-07
2	0	0	1	1	136.248	0.188154	0.188389	-0.000584397	2	0.0146975	43	1.7991	-1.10094e-07
2	0	0	1	1	136.498	0.183156	0.183441	-0.000627227	2	0.0146973	43	2.049	-1.15059e-07
2	0	0	1	1	136.747	0.178159	0.17834	-0.000670948	2	0.0146972	43	2.2989	-1.19657e-07
2	0	0	1	1	136.997	0.173161	0.173229	-0.000698728	2	0.014697	43	2.5487	-1.2104e-07
2	0	0	1	1	137.247	0.168163	0.168345	-0.000722366	2	0.0146968	43	2.7986	-1.21607e-07
2	0	0	1	1	137.497	0.163166	0.163288	-0.000755548	2	0.0146966	43	3.0485	-1.23372e-07
2	0	0	1	1	137.747	0.158168	0.158319	-0.000775413	2	0.0146964	43	3.2984	-1.22763e-07
2	0	0	1	1	137.997	0.153171	0.153575	-0.000781352	2	0.0146962	43	3.5483	-1.19997e-07
2	0	0	1	1	138.247	0.148173	0.148366	-0.000806237	2	0.014696	43	3.7981	-1.19618e-07
2	0	0	1	1	138.497	0.143175	0.143398	-0.000829508	2	0.0146958	43	4.048	-1.1895e-07
2	0	0	1	1	138.746	0.138178	0.13815	-0.000827395	2	0.0146956	43	4.2979	-1.14305e-07
2	0	0	1	1	138.996	0.13318	0.133495	-0.000835521	2	0.0146954	43	4.5478	-1.11538e-07
2	0	0	1	1	139.246	0.128183	0.128517	-0.000847553	2	0.0146952	43	4.7977	-1.08925e-07
2	0	0	1	1	139.496	0.123185	0.123351	-0.000852499	2	0.014695	43	5.0475	-1.05156e-07
2	0	0	1	1	139.746	0.118187	0.118479	-0.000851836	2	0.0146948	43	5.2974	-1.00925e-07
2	0	0	1	1	139.996	0.11319	0.113462	-0.000858616	2	0.0146946	43	5.5473	-9.74204e-08
2	0	0	1	1	140.246	0.108192	0.108545	-0.000861236	2	0.0146944	43	5.7972	-9.34832e-08
2	0	0	1	1	140.496	0.103194	0.103352	-0.000854	2	0.0146941	43	6.0471	-8.82625e-08
2	0	0	1	1	140.745	0.0981969	0.0984446	-0.000864237	2	0.0146939	43	6.2969	-8.50795e-08
2	0	0	1	1	140.995	0.0931993	0.0934962	-0.000861408	2	0.0146937	43	6.5468	-8.05384e-08
2	0	0	1	1	141.245	0.0882017	0.0882527	-0.000851134	2	0.0146935	43	6.7967	-7.51149e-08
2	0	0	1	1	141.495	0.0832041	0.0833873	-0.000848699	2	0.0146933	43	7.0466	-7.07707e-08
2	0	0	1	1	141.745	0.0782065	0.0784401	-0.00085667	2	0.0146931	43	7.2965	-6.71973e-08
2	0	0	1	1	141.995	0.0732089	0.0735457	-0.000850942	2	0.0146929	43	7.5463	-6.25831e-08
2	0	0	1	1	142.245	0.0682113	0.0684234	-0.000836373	2	0.0146926	43	7.7962	-5.72275e-08
2	0	0	1	1	142.495	0.0632137	0.063423	-0.000842696	2	0.0146924	43	8.0461	-5.34463e-08
2	0	0	1	1	142.745	0.058216	0.0584321	-0.000843356	2	0.0146922	43	8.296	-4.92791e-08
2	0	0	1	1	142.994	0.0532184	0.0535388	-0.000822686	2	0.014692	43	8.5459	-4.40456e-08
2	0	0	1	1	143.244	0.0482208	0.0485507	-0.000826764	2	0.0146918	43	8.7957	-4.014e-08
2	0	0	1	1	143.494	0.0432232	0.0434887	-0.000829207	2	0.0146916	43	9.0456	-3.60611e-08
2	0	0	1	1	143.744	0.0382256	0.0382701	-0.000817522	2	0.0146914	43	9.2955	-3.12866e-08
2	0	0	1	1	143.994	0.033228	0.03346	-0.00080885	2	0.0146912	43	9.5454	-2.70641e-08
2	0	0	1	1	144.244	0.0282304	0.0285114	-0.000806367	2	0.014691	43	9.7953	-2.29907e-08
2	0	0	1	1	144.494	0.023231	0.0237018	-0.000807401	2	0.0146908	43	10.0452	-1.91369e-08
2	0	0	1	1	144.744	0.0182352	0.0185667	-0.000787854	2	0.0146906	43	10.295	-1.46278e-08
2	0	0	1	1	144.993	0.0132376	0.01345	-0.00079817	2	0.0146904	43	10.5449	-1.07354e-08
2	0	0	1	1	145.243	0.00824	0.00864528	-0.000795935	2	0.0146902	43	10.7948	-6.88108e-09
2	0	0	1	1	145.493	0.00324239	0.00330437	-0.000782548	2	0.01469	43	11.0447	-2.58582e-09
2	0	0	1	0	145.719	-0.00125546	-0.00112175	-0.000782371	2	0.0146898	43	11.2702	8.77622e-10
2	0	0	1	0	145.969	-0.00625306	-0.00614026	-0.000782112	2	0.0146896	43	11.52	4.80237e-09
2	0	0	1	0	146.218	-0.0112507	-0.0111592	-0.000770656	2	0.0146894	43	11.7699	8.59987e-09
2	0	0	1	0	146.468	-0.0162483	-0.0161067	-0.000768713	2	0.0146892	43	12.0198	1.23814e-08
2	0	0	1	0	146.718	-0.0212459	-0.0210373	-0.000780698	2	0.014689	43	12.2697	1.64238e-08
2	0	0	1	0	146.968	-0.0262435	-0.0259044	-0.000759311	2	0.0146889	43	12.5196	1.96695e-08
2	0	0	1	0	147.218	-0.0312411	-0.0309203	-0.000760238	2	0.0146887	43	12.7694	2.35068e-08
2	0	0	1	0	147.468	-0.0362387	-0.0358898	-0.000770421	2	0.0146885	43	13.0193	2.76503e-08
2	0	0	1	0	147.718	-0.0412363	-0.0409129	-0.000761884	2	0.0146883	43	13.2692	3.11709e-08
2	0	0	1	0	147.968	-0.0462339	-0.0460658	-0.000748844	2	0.0146881	43	13.5191	3.44961e-08
2	0	0	1	0	148.218	-0.0512315	-0.0509897	-0.000760134	2	0.0146879	43	13.769	3.8759e-08
2	0	0	1	0	148.467	-0.0562291	-0.0560858	-0.000759179	2	0.0146877	43	14.0188	4.25792e-08
2	0	0	1	0	148.717	-0.0612267	-0.0610139	-0.000743539	2	0.0146875	43	14.2687	4.53663e-08
2	0	0	1	0	148.967	-0.0662244	-0.0657136	-0.000753826	2	0.0146873	43	14.5186	4.95366e-08
2	0	0	1	0	149.217	-0.071222	-0.0708913	-0.000755425	2	0.0146872	43	14.7685	5.35531e-08
2	0	0	1	0	149.467	-0.0762196	-0.0760221	-0.000743767	2	0.014687	43	15.0184	5.65427e-08
2	0	0	1	0	149.717	-0.0812172	-0.0807955	-0.000744877	2	0.0146868	43	15.2682	6.01827e-08
2	0	0	1	0	149.967	-0.0862148	-0.0859021	-0.000752647	2	0.0146866	43	15.5181	6.46539e-08
2	0	0	1	0	150.217	-0.0912124	-0.0910456	-0.000744283	2	0.0146864	43	15.768	6.77637e-08
2	0	0	1	0	150.466	-0.09621	-0.0960188	-0.000734239	2	0.0146862	43	16.0179	7.05007e-08
2	0	0	1	0	150.716	-0.101208	-0.100936	-0.000749022	2	0.014686	43	16.2678	7.5603e-08
2	0	0	1	0	150.966	-0.106205	-0.105956	-0.000749405	2	0.0146859	43	16.5176	7.9404e-08
2	0	0	1	0	151.216	-0.111203	-0.111052	-0.00072902	2	0.0146857	43	16.7675	8.09595e-08
2	0	0	0	0	151.371	-0.114326	-0.11408	-0.000715199	2	0.0146856	43	16.922	8.15898e-08