File: Python/Experiments/RDE/Dicarboxylferrocene/Data/240327-CVEIS-5mM_DiCaFerrocene-1M_NaCl-ReNeutralized-0000RPM-Ag_AgCl_BLF8-Au_RDE_CV_C15.mpt
EC-Lab ASCII FILE
Nb header lines : 59

Cyclic Voltammetry

Run on channel : 15 (SN 19485)
User :
Electrode connection : standard
Potential control : Ewe
Ewe ctrl range : min = -1.00 V, max = 1.00 V
Ewe,I filtering : <None>
Safety Limits :
	Do not start on E overload
Channel : Floating
Acquisition started on : 03/27/2024 15:28:52.448
Loaded Setting File :  C:\Data\mathias\GoldElectrode\240327-CVEIS-5mM_DiCaFerrocene-1M_NaCl-0000RPM-Ag_AgCl_BLF8-Au_RDE.mps
Saved on :
	File : 240327-CVEIS-5mM_DiCaFerrocene-1M_NaCl-ReNeutralized-0000RPM-Ag_AgCl_BLF8-Au_RDE_CV_C15.mpr
	Directory : C:\Data\mathias\GoldElectrode\
	Host : 192.168.0.1
Device : VMP-300 (SN 0826)
Address : USB
EC-Lab for windows v11.52 (software)
Internet server v11.52 (firmware)
Command interpretor v11.52 (firmware)
Electrode material :
Initial state :
Electrolyte :
Comments :
Cable : special
Electrode surface area : 0.001 cm²
Characteristic mass : 0.001 g
Equivalent Weight : 0.000 g/eq.
Density : 0.000 g/cm3
Volume (V) : 0.001 cm³
Cycle Definition : Charge/Discharge alternance
Ei (V)              0.000
vs.                 Eoc
dE/dt               20.000
dE/dt unit          mV/s
E1 (V)              0.700
vs.                 Ref
Step percent        50
N                   10
E range min (V)     -1.000
E range max (V)     1.000
I Range             Auto
I Range min         Unset
I Range max         Unset
I Range init        Unset
Bandwidth           8
E2 (V)              0.000
vs.                 Ref
nc cycles           2
Reverse Scan        1
Ef (V)              0.000
vs.                 Eoc

mode	ox/red	error	control changes	counter inc.	time/s	control/V	Ewe/V	<I>/mA	cycle number	(Q-Qo)/C	I Range	step time/s	P/W
2	1	1	0	0	0.000000000000000E+000	-0.0134246	-0.0141183	0.000147723	1	0.0000000E+000	43	0.000000000000000E+000	-2.0856e-09
2	1	0	1	0	0.3636	-0.00615311	-0.00649317	0.000195136	1	6.43044e-08	43	0.3498	-1.26705e-09
2	1	0	1	0	0.7385	0.0013433	0.00114805	0.000216195	1	1.41267e-07	43	0.7247	2.48202e-10
2	1	0	1	0	1.1133	0.00883971	0.00865588	0.000235592	1	2.25005e-07	43	1.0995	2.03926e-09
2	1	0	1	0	1.4881	0.0163361	0.016014	0.000247444	1	3.14394e-07	43	1.4743	3.96256e-09
2	1	0	1	0	1.8629	0.0238325	0.0237318	0.00025849	1	4.09413e-07	43	1.8491	6.13443e-09
2	1	0	1	0	2.2378	0.0313303	0.0311465	0.000278657	1	5.0985e-07	43	2.224	8.67919e-09
2	1	0	1	0	2.6126	0.0388253	0.0385592	0.000292498	1	6.16166e-07	43	2.5988	1.12785e-08
2	1	0	1	0	2.9874	0.0463217	0.0461368	0.000307955	1	7.28715e-07	43	2.9736	1.4208e-08
2	1	0	1	0	3.3622	0.0538182	0.053472	0.000324887	1	8.47931e-07	43	3.3484	1.73724e-08
2	1	0	1	0	3.737	0.0613146	0.0610544	0.000346961	1	9.7458e-07	43	3.7232	2.11835e-08
2	1	0	1	0	4.1118	0.0688101	0.068348	0.000374265	1	1.10918e-06	43	4.098	2.55803e-08
2	1	0	1	0	4.4867	0.0763074	0.0761893	0.000396932	1	1.25277e-06	43	4.4729	3.0242e-08
2	1	0	1	0	4.8615	0.0838038	0.0835277	0.000423673	1	1.40602e-06	43	4.8477	3.53884e-08
2	1	0	1	0	5.2363	0.0913002	0.0911644	0.000454501	1	1.57e-06	43	5.2225	4.14343e-08
2	1	0	1	0	5.6111	0.0987966	0.0985973	0.000487085	1	1.74567e-06	43	5.5973	4.80253e-08
2	1	0	1	0	5.986	0.106293	0.105965	0.000518027	1	1.93456e-06	43	5.9722	5.48929e-08
2	1	0	1	0	6.3608	0.113789	0.113655	0.000564238	1	2.13744e-06	43	6.347	6.41287e-08
2	1	0	1	0	6.7356	0.121286	0.121119	0.000602166	1	2.35552e-06	43	6.7218	7.29339e-08
2	1	0	1	0	7.1104	0.128782	0.128446	0.000646819	1	2.59013e-06	43	7.0966	8.30814e-08
2	1	0	1	0	7.4852	0.136279	0.136086	0.00069981	1	2.8428e-06	43	7.4714	9.52342e-08
2	1	0	1	0	7.86	0.143773	0.143578	0.000752416	1	3.11452e-06	43	7.8462	1.0803e-07
2	1	0	1	0	8.2349	0.151271	0.150892	0.000813012	1	3.40679e-06	43	8.2211	1.22677e-07
2	1	0	1	0	8.6097	0.158768	0.158393	0.000865846	1	3.72066e-06	43	8.5959	1.37144e-07
2	1	0	1	0	8.9845	0.166264	0.166098	0.000929093	1	4.05755e-06	43	8.9707	1.5432e-07
2	1	0	1	0	9.3593	0.173761	0.173615	0.000993977	1	4.41873e-06	43	9.3455	1.72569e-07
2	1	0	1	0	9.7342	0.181257	0.180946	0.0010666	1	4.80528e-06	43	9.7204	1.92998e-07
2	1	0	1	0	10.139	0.189353	0.189129	0.00113955	1	5.2521e-06	42	10.1252	2.15521e-07
2	1	0	1	0	10.5138	0.19685	0.196477	0.00122671	1	5.69574e-06	42	10.5	2.41021e-07
2	1	0	1	0	10.8886	0.204346	0.204106	0.00130625	1	6.16999e-06	42	10.8748	2.66613e-07
2	1	0	1	0	11.2634	0.211842	0.211483	0.00139816	1	6.67687e-06	42	11.2496	2.95688e-07
2	1	0	1	0	11.6382	0.219339	0.219012	0.00150099	1	7.21938e-06	42	11.6244	3.28735e-07
2	1	0	1	0	12.0131	0.226835	0.226507	0.00160693	1	7.80153e-06	42	11.9993	3.63982e-07
2	1	0	1	0	12.3879	0.234332	0.233936	0.00173342	1	8.42798e-06	42	12.3741	4.0551e-07
2	1	0	1	0	12.7627	0.241828	0.241518	0.00187838	1	9.10561e-06	42	12.7489	4.53662e-07
2	1	0	1	0	13.1375	0.249324	0.248847	0.00204797	1	9.84151e-06	42	13.1237	5.09629e-07
2	1	0	1	0	13.5124	0.256822	0.256782	0.00224338	1	1.06448e-05	42	13.4986	5.76059e-07
2	1	0	1	0	13.8872	0.264317	0.264081	0.0024618	1	1.15258e-05	42	13.8734	6.50114e-07
2	1	0	1	0	14.262	0.271814	0.271592	0.00271855	1	1.24968e-05	42	14.2482	7.38337e-07
2	1	0	1	0	14.6368	0.27931	0.27903	0.00301684	1	1.35709e-05	42	14.623	8.41788e-07
2	1	0	1	0	15.0116	0.286807	0.286425	0.00334332	1	1.47608e-05	42	14.9978	9.57608e-07
2	1	0	1	0	15.3864	0.294302	0.294028	0.00368422	1	1.60774e-05	42	15.3726	1.08326e-06
2	1	0	1	0	15.7613	0.301799	0.301652	0.00406067	1	1.75306e-05	42	15.7475	1.22491e-06
2	1	0	1	0	16.1361	0.309296	0.309036	0.00443902	1	1.91248e-05	42	16.1223	1.37182e-06
2	1	0	1	0	16.5109	0.316792	0.316594	0.00482167	1	2.08619e-05	42	16.4971	1.52651e-06
2	1	0	1	0	16.8857	0.324289	0.324166	0.00520889	1	2.27433e-05	42	16.8719	1.68855e-06
2	1	0	1	0	17.2606	0.331785	0.331666	0.0056052	1	2.47714e-05	42	17.2468	1.85906e-06
2	1	0	1	0	17.6354	0.339281	0.338921	0.00603547	1	2.69518e-05	42	17.6216	2.04555e-06
2	1	0	1	0	18.0102	0.346778	0.34645	0.0065167	1	2.93017e-05	42	17.9964	2.25771e-06
2	1	0	1	0	18.385	0.354274	0.354312	0.00711422	1	3.18528e-05	42	18.3712	2.52065e-06
2	1	0	1	0	18.7598	0.361771	0.361551	0.00785413	1	3.46515e-05	42	18.746	2.83967e-06
2	1	0	1	0	19.1347	0.369267	0.368953	0.00879115	1	3.77652e-05	42	19.1209	3.24352e-06
2	1	0	1	0	19.5095	0.376763	0.376374	0.0100083	1	4.12826e-05	42	19.4957	3.76688e-06
2	1	0	1	0	19.9143	0.38486	0.384596	0.0116364	1	4.56606e-05	41	19.9005	4.47533e-06
2	1	0	1	0	20.2891	0.392356	0.39198	0.0136624	1	5.04104e-05	41	20.2753	5.35537e-06
2	1	0	1	0	20.6639	0.399852	0.399667	0.0160832	1	5.59931e-05	41	20.6501	6.42793e-06
2	1	0	1	0	21.0387	0.407349	0.407198	0.0190606	1	6.25891e-05	41	21.0249	7.76145e-06
2	1	0	1	0	21.4136	0.414845	0.414549	0.0225348	1	7.03941e-05	41	21.3998	9.34177e-06
2	1	0	1	0	21.7884	0.422342	0.422084	0.0264056	1	7.95771e-05	41	21.7746	1.11454e-05
2	1	0	1	0	22.1632	0.429838	0.42944	0.0306497	1	9.02849e-05	41	22.1494	1.31622e-05
2	1	0	1	0	22.538	0.437334	0.436949	0.0349339	1	0.000102595	41	22.5242	1.52643e-05
2	1	0	1	0	22.9128	0.44483	0.444445	0.0391793	1	0.000116514	41	22.899	1.7413e-05
2	1	0	1	0	23.2877	0.452327	0.452184	0.0429933	1	0.000131953	41	23.2739	1.94409e-05
2	1	0	1	0	23.6625	0.459824	0.459546	0.0461214	1	0.0001487	41	23.6487	2.11949e-05
2	1	0	1	0	24.0373	0.46732	0.466846	0.0483507	1	0.000166447	41	24.0235	2.25723e-05
2	1	0	1	0	24.4121	0.474816	0.474592	0.0495261	1	0.000184829	41	24.3983	2.35047e-05
2	1	0	1	0	24.787	0.482314	0.482188	0.0498067	1	0.000203493	41	24.7732	2.40162e-05
2	1	0	1	0	25.1618	0.489809	0.4895	0.049421	1	0.00022213	41	25.148	2.41916e-05
2	1	0	1	0	25.5366	0.497306	0.497024	0.0484655	1	0.000240511	41	25.5228	2.40885e-05
2	1	0	1	0	25.9114	0.504802	0.504675	0.0472024	1	0.000258471	41	25.8976	2.38219e-05
2	1	0	1	0	26.2862	0.512298	0.511985	0.0457105	1	0.000275908	41	26.2724	2.34031e-05
2	1	0	1	0	26.661	0.519794	0.519418	0.0441222	1	0.000292768	41	26.6472	2.29179e-05
2	1	0	1	0	27.0359	0.527291	0.527156	0.0425345	1	0.000309037	41	27.0221	2.24223e-05
2	1	0	1	0	27.4107	0.534788	0.534598	0.0409913	1	0.000324719	41	27.3969	2.19139e-05
2	1	0	1	0	27.7855	0.542284	0.542009	0.0395511	1	0.00033984	41	27.7717	2.1437e-05
2	1	0	1	0	28.1603	0.549781	0.549555	0.0382119	1	0.000354437	41	28.1465	2.09995e-05
2	1	0	1	0	28.5352	0.557278	0.557184	0.0369111	1	0.000368549	41	28.5214	2.05662e-05
2	1	0	1	0	28.91	0.564773	0.564642	0.0357779	1	0.000382207	41	28.8962	2.02017e-05
2	1	0	1	0	29.2848	0.57227	0.571996	0.0347459	1	0.000395454	41	29.271	1.98745e-05
2	1	0	1	0	29.6596	0.579766	0.579514	0.033789	1	0.000408326	41	29.6458	1.95812e-05
2	1	0	1	0	30.0344	0.587263	0.587178	0.0329023	1	0.000420857	41	30.0206	1.93195e-05
2	1	0	1	0	30.4092	0.594757	0.594366	0.0321199	1	0.000433074	41	30.3954	1.9091e-05
2	1	0	1	0	30.7841	0.602255	0.60182	0.0313994	1	0.000445012	41	30.7703	1.88968e-05
2	1	0	1	0	31.1589	0.609752	0.609446	0.0307389	1	0.000456685	41	31.1451	1.87337e-05
2	1	0	1	0	31.5337	0.617248	0.616987	0.0301022	1	0.00046812	41	31.5199	1.85727e-05
2	1	0	1	0	31.9085	0.624745	0.624472	0.0295507	1	0.000479338	41	31.8947	1.84536e-05
2	1	0	1	0	32.2834	0.632241	0.632067	0.0290549	1	0.000490359	41	32.2696	1.83647e-05
2	1	0	1	0	32.6582	0.639737	0.639412	0.0285859	1	0.000501197	41	32.6444	1.82782e-05
2	1	0	1	0	33.033	0.647234	0.647067	0.0281418	1	0.00051187	41	33.0192	1.82096e-05
2	1	0	1	0	33.4078	0.65473	0.654461	0.0277788	1	0.000522393	41	33.394	1.81802e-05
2	1	0	1	0	33.7826	0.662227	0.662027	0.0274478	1	0.000532781	41	33.7688	1.81712e-05
2	1	0	1	0	34.1575	0.669723	0.669421	0.0271524	1	0.000543056	41	34.1437	1.81764e-05
2	1	0	1	0	34.5323	0.677219	0.676857	0.026882	1	0.000553225	41	34.5185	1.81953e-05
2	1	0	1	0	34.9071	0.684716	0.684314	0.0266805	1	0.000563306	41	34.8933	1.82578e-05
2	1	0	1	0	35.2819	0.692212	0.691937	0.026496	1	0.00057331	41	35.2681	1.83336e-05
2	1	0	1	0	35.6567	0.699709	0.699194	0.0263471	1	0.000583255	41	35.6429	1.84217e-05
2	1	0	1	0	36.0096	0.693212	0.693084	0.0248242	1	0.000592191	41	35.9958	1.72052e-05
2	1	0	1	0	36.3844	0.685715	0.685419	0.024005	1	0.000601284	41	36.3706	1.64535e-05
2	1	0	1	0	36.7592	0.678219	0.678038	0.0233106	1	0.000610099	41	36.7454	1.58055e-05
2	1	0	1	0	37.1341	0.670723	0.670438	0.0227741	1	0.000618691	41	37.1203	1.52686e-05
2	1	0	1	0	37.5089	0.663226	0.662878	0.0222972	1	0.000627088	41	37.4951	1.47803e-05
2	1	0	1	0	37.8837	0.65573	0.655415	0.0218663	1	0.000635315	41	37.8699	1.43315e-05
2	1	0	1	0	38.2585	0.648233	0.647952	0.0214374	1	0.000643389	41	38.2447	1.38904e-05
2	1	0	1	0	38.6334	0.640735	0.640474	0.0211042	1	0.000651324	41	38.6196	1.35167e-05
2	1	0	1	0	39.0082	0.633241	0.632936	0.020758	1	0.000659125	41	38.9944	1.31385e-05
2	1	0	1	0	39.383	0.625744	0.625409	0.0204232	1	0.0006668	41	39.3692	1.27729e-05
2	1	0	1	0	39.7578	0.618248	0.617997	0.0200998	1	0.000674352	41	39.744	1.24216e-05
2	1	0	1	0	40.1326	0.610751	0.610421	0.0197785	1	0.000681782	41	40.1188	1.20732e-05
2	1	0	1	0	40.5074	0.603256	0.602742	0.019423	1	0.000689086	41	40.4936	1.17071e-05
2	1	0	1	0	40.8823	0.595758	0.595567	0.0190688	1	0.000696262	41	40.8685	1.13568e-05
2	1	0	1	0	41.2571	0.588262	0.588089	0.0186797	1	0.000703302	41	41.2433	1.09853e-05
2	1	0	1	0	41.6319	0.580766	0.58043	0.0182749	1	0.000710199	41	41.6181	1.06073e-05
2	1	0	1	0	42.0067	0.573269	0.572907	0.0178492	1	0.000716938	41	41.9929	1.02259e-05
2	1	0	1	0	42.3816	0.565772	0.565522	0.0173444	1	0.000723505	41	42.3678	9.80863e-06
2	1	0	1	0	42.7564	0.558276	0.557873	0.0167667	1	0.000729869	41	42.7426	9.3537e-06
2	1	0	1	0	43.1312	0.55078	0.550498	0.0161052	1	0.000736003	41	43.1174	8.86589e-06
2	1	0	1	0	43.506	0.543284	0.543092	0.0152977	1	0.000741867	41	43.4922	8.30808e-06
2	1	0	1	0	43.8808	0.535787	0.535509	0.0143501	1	0.000747403	41	43.867	7.68461e-06
2	1	0	1	0	44.2556	0.528292	0.527907	0.0131848	1	0.000752546	41	44.2418	6.96036e-06
2	1	0	1	0	44.6305	0.520794	0.520719	0.0117777	1	0.000757207	41	44.6167	6.1329e-06
2	1	0	1	0	45.0053	0.513298	0.512998	0.0100248	1	0.000761277	41	44.9915	5.14268e-06
2	1	0	1	0	45.3801	0.505802	0.505443	0.00789517	1	0.000764625	41	45.3663	3.99056e-06
2	1	0	1	0	45.7549	0.498305	0.497908	0.00535668	1	0.0007671	41	45.7411	2.66714e-06
2	1	0	1	0	46.1597	0.490209	0.489738	0.00204123	1	0.000768613	42	46.1459	9.99666e-07
2	0	0	1	0	46.5346	0.482713	0.482478	-0.00144085	1	0.000768735	42	0.125	-6.95179e-07
2	0	0	1	0	46.9094	0.475216	0.474977	-0.00530474	1	0.000767477	42	0.4998	-2.51963e-06
2	0	0	1	0	47.2842	0.46772	0.46747	-0.00941146	1	0.00076472	42	0.8746	-4.39958e-06
2	0	0	1	0	47.689	0.459624	0.459269	-0.0137696	1	0.000760019	41	1.2794	-6.32397e-06
2	0	0	1	0	48.0638	0.452127	0.45184	-0.0177002	1	0.000754093	41	1.6542	-7.99766e-06
2	0	0	1	0	48.4386	0.444631	0.444552	-0.0209718	1	0.000746815	41	2.029	-9.32306e-06
2	0	0	1	0	48.8135	0.437134	0.436929	-0.023501	1	0.00073843	41	2.4039	-1.02683e-05
2	0	0	1	0	49.1883	0.429638	0.42933	-0.0252118	1	0.000729247	41	2.7787	-1.08242e-05
2	0	0	1	0	49.5631	0.422142	0.421719	-0.0260763	1	0.00071959	41	3.1535	-1.09968e-05
2	0	0	1	0	49.9379	0.414645	0.414262	-0.0261367	1	0.000709764	41	3.5283	-1.08274e-05
2	0	0	1	0	50.3128	0.407148	0.406855	-0.0256381	1	0.000700026	41	3.9032	-1.0431e-05
2	0	0	1	0	50.6876	0.399652	0.399175	-0.0246315	1	0.000690583	41	4.278	-9.8323e-06
2	0	0	1	0	51.0624	0.392156	0.391631	-0.0233726	1	0.000681558	41	4.6528	-9.15343e-06
2	0	0	1	0	51.4372	0.38466	0.384282	-0.0220074	1	0.00067303	41	5.0276	-8.45706e-06
2	0	0	1	0	51.812	0.377163	0.376839	-0.0206627	1	0.000665018	41	5.4024	-7.78652e-06
2	0	0	1	0	52.1868	0.369668	0.369537	-0.0193007	1	0.000657516	41	5.7772	-7.13231e-06
2	0	0	1	0	52.5617	0.36217	0.362143	-0.0181055	1	0.000650492	41	6.1521	-6.55679e-06
2	0	0	1	0	52.9365	0.354674	0.35441	-0.0169736	1	0.00064391	41	6.5269	-6.01561e-06
2	0	0	1	0	53.3113	0.347178	0.346777	-0.015996	1	0.000637716	41	6.9017	-5.54705e-06
2	0	0	1	0	53.6861	0.339681	0.3394	-0.0151416	1	0.000631864	41	7.2765	-5.13906e-06
2	0	0	1	0	54.061	0.332185	0.33198	-0.0144408	1	0.000626306	41	7.6514	-4.79407e-06
2	0	0	1	0	54.4358	0.324688	0.324371	-0.0137929	1	0.000621003	41	8.0262	-4.47402e-06
2	0	0	1	0	54.8106	0.317192	0.316853	-0.0132328	1	0.000615923	41	8.401	-4.19287e-06
2	0	0	1	0	55.1854	0.309696	0.309464	-0.0127128	1	0.000611042	41	8.7758	-3.93414e-06
2	0	0	1	0	55.5602	0.302199	0.301805	-0.0122407	1	0.000606348	41	9.1506	-3.69431e-06
2	0	0	1	0	55.9351	0.294703	0.294672	-0.0117749	1	0.000601833	41	9.5255	-3.46974e-06
2	0	0	1	0	56.3099	0.287206	0.286917	-0.011294	1	0.000597496	41	9.9003	-3.24043e-06
2	0	0	1	0	56.6847	0.27971	0.279629	-0.0108134	1	0.000593338	41	10.2751	-3.02374e-06
2	0	0	1	0	57.0595	0.272213	0.272069	-0.0103434	1	0.000589356	41	10.6499	-2.81411e-06
2	0	0	1	0	57.4343	0.264717	0.264558	-0.00988543	1	0.000585546	41	11.0247	-2.61527e-06
2	0	0	1	0	57.8092	0.257221	0.257012	-0.0094535	1	0.000581903	41	11.3996	-2.42967e-06
2	0	0	1	0	58.184	0.249724	0.249601	-0.00904043	1	0.000578422	41	11.7744	-2.25649e-06
2	0	0	1	0	58.5588	0.242228	0.242053	-0.0086264	1	0.000575095	41	12.1492	-2.08804e-06
2	0	0	1	0	58.9336	0.234731	0.234332	-0.0082525	1	0.000571911	41	12.524	-1.93382e-06
2	0	0	1	0	59.3084	0.227235	0.22715	-0.00791276	1	0.000568862	41	12.8988	-1.79738e-06
2	0	0	1	0	59.6833	0.219739	0.219353	-0.00759346	1	0.000565939	41	13.2737	-1.66565e-06
2	0	0	1	0	60.0581	0.212242	0.211988	-0.00725976	1	0.000563134	41	13.6485	-1.53898e-06
2	0	0	1	0	60.4329	0.204746	0.204649	-0.00698519	1	0.000560441	41	14.0233	-1.42951e-06
2	0	0	1	0	60.8077	0.197249	0.197011	-0.00672367	1	0.000557852	41	14.3981	-1.32464e-06
2	0	0	1	0	61.1826	0.189751	0.189537	-0.0064828	1	0.00055536	41	14.773	-1.22873e-06
2	0	0	1	0	61.5574	0.182257	0.182051	-0.00624278	1	0.000552959	41	15.1478	-1.1365e-06
2	0	0	1	0	61.9322	0.17476	0.174619	-0.00600638	1	0.000550645	41	15.5226	-1.04883e-06
2	0	0	1	0	62.307	0.167264	0.166958	-0.0057949	1	0.000548412	41	15.8974	-9.67503e-07
2	0	0	1	0	62.6818	0.159767	0.159457	-0.00560996	1	0.000546255	41	16.2722	-8.94551e-07
2	0	0	1	0	63.0566	0.152271	0.152054	-0.00541909	1	0.00054417	41	16.647	-8.23992e-07
2	0	0	1	0	63.4315	0.144775	0.144648	-0.00522951	1	0.000542151	41	17.0219	-7.56441e-07
2	0	0	1	0	63.8063	0.137278	0.136876	-0.0050903	1	0.000540196	41	17.3967	-6.9674e-07
2	0	0	1	0	64.1811	0.129782	0.129399	-0.00491531	1	0.000538303	41	17.7715	-6.36036e-07
2	0	0	1	0	64.5559	0.122285	0.122028	-0.00476633	1	0.000536466	41	18.1463	-5.81627e-07
2	0	0	1	0	64.9308	0.114788	0.114493	-0.00461133	1	0.000534681	41	18.5212	-5.27967e-07
2	0	0	1	0	65.3056	0.107293	0.107013	-0.00451114	1	0.000532945	41	18.896	-4.82749e-07
2	0	0	1	0	65.7104	0.0991964	0.0990649	-0.00444024	1	0.000531122	42	19.3008	-4.39872e-07
2	0	0	1	0	66.0852	0.0917	0.0913586	-0.00432311	1	0.000529479	42	19.6756	-3.94953e-07
2	0	0	1	0	66.46	0.0842036	0.0839777	-0.00421664	1	0.000527878	42	20.0504	-3.54103e-07
2	0	0	1	0	66.8348	0.0767072	0.0765091	-0.00410022	1	0.000526319	42	20.4252	-3.13705e-07
2	0	0	1	0	67.2097	0.0692108	0.0689502	-0.00400219	1	0.000524799	42	20.8001	-2.75952e-07
2	0	0	1	0	67.5845	0.0617144	0.0614998	-0.0038996	1	0.000523318	42	21.1749	-2.39825e-07
2	0	0	1	0	67.9593	0.054218	0.053991	-0.00380124	1	0.000521874	42	21.5497	-2.05233e-07
2	0	0	1	0	68.3341	0.0467216	0.0464406	-0.00370643	1	0.000520467	42	21.9245	-1.72129e-07
2	0	0	1	0	68.7089	0.0392251	0.0389646	-0.00361632	1	0.000519094	42	22.2993	-1.40908e-07
2	0	0	1	0	69.0838	0.0317287	0.0314048	-0.00352904	1	0.000517755	42	22.6742	-1.10829e-07
2	0	0	1	0	69.4586	0.0242323	0.0239294	-0.00344727	1	0.000516448	42	23.049	-8.24912e-08
2	0	0	1	0	69.8334	0.0167359	0.0164592	-0.00335918	1	0.000515172	42	23.4238	-5.52895e-08
2	0	0	1	0	70.2082	0.00923952	0.00886999	-0.00328127	1	0.000513926	42	23.7986	-2.91048e-08
2	0	0	1	0	70.583	0.00174311	0.00151955	-0.00321183	1	0.000512709	42	24.1734	-4.88052e-09
2	0	0	1	1	70.9335	0.00529141	0.00514827	-0.00247026	2	0.000511747	42	24.5239	-1.27176e-08
2	0	0	1	1	71.3083	0.0127878	0.0127585	-0.00227515	2	0.00051086	42	24.8987	-2.90275e-08
2	0	0	1	1	71.6831	0.0202842	0.0200847	-0.00213205	2	0.000510036	42	25.2735	-4.28214e-08
2	0	0	1	1	72.0579	0.0277806	0.0276633	-0.0020119	2	0.000509262	42	25.6483	-5.56558e-08
2	0	0	1	1	72.4328	0.0352775	0.0350968	-0.00190084	2	0.000508531	42	26.0232	-6.67134e-08
2	0	0	1	1	72.8076	0.0427734	0.0426572	-0.00180241	2	0.000507838	42	26.398	-7.68859e-08
2	0	0	1	1	73.1824	0.0502699	0.0498887	-0.00171297	2	0.000507181	42	26.7728	-8.54575e-08
2	0	0	1	1	73.5572	0.0577663	0.0576428	-0.00162189	2	0.000506556	42	27.1476	-9.34904e-08
2	0	0	1	1	73.932	0.0652627	0.0652051	-0.00154365	2	0.000505964	42	27.5224	-1.00654e-07
2	0	0	1	1	74.3068	0.0727573	0.0725119	-0.00146566	2	0.000505401	42	27.8972	-1.06278e-07
2	0	0	1	1	74.6817	0.0802555	0.0799183	-0.00138996	2	0.000504867	42	28.2721	-1.11083e-07
2	0	0	1	1	75.0565	0.0877519	0.0875547	-0.00131615	2	0.000504361	42	28.6469	-1.15235e-07
2	0	0	1	1	75.4313	0.0952483	0.0950691	-0.0012439	2	0.000503882	42	29.0217	-1.18256e-07
2	0	0	1	1	75.8061	0.102745	0.102587	-0.00117858	2	0.000503429	42	29.3965	-1.20907e-07
2	0	0	1	1	76.181	0.110241	0.110101	-0.0011119	2	0.000503001	42	29.7714	-1.2242e-07
2	0	0	1	1	76.5558	0.117738	0.117377	-0.00104208	2	0.000502598	42	30.1462	-1.22316e-07
2	0	0	1	1	76.9306	0.125234	0.124797	-0.000979476	2	0.00050222	42	30.521	-1.22236e-07
2	0	0	1	1	77.3054	0.13273	0.132634	-0.000907938	2	0.000501867	42	30.8958	-1.20423e-07
2	0	0	1	1	77.6802	0.140227	0.139853	-0.000848331	2	0.000501538	42	31.2706	-1.18642e-07
2	0	0	1	1	78.0551	0.147723	0.147534	-0.00077788	2	0.000501233	42	31.6455	-1.14763e-07
2	0	0	1	1	78.4299	0.15522	0.155009	-0.000722414	2	0.000500952	42	32.0203	-1.11981e-07
2	0	0	1	1	78.8047	0.162716	0.162576	-0.000651927	2	0.000500695	42	32.3951	-1.05988e-07
2	0	0	1	1	79.1795	0.170212	0.169961	-0.00058791	2	0.000500463	42	32.7699	-9.9922e-08
2	0	0	1	1	79.5543	0.177709	0.177451	-0.000526206	2	0.000500255	42	33.1447	-9.33761e-08
2	0	0	1	1	79.9292	0.185205	0.18477	-0.000460763	2	0.000500071	42	33.5196	-8.51351e-08
2	0	0	1	1	80.334	0.193301	0.192902	-0.000382526	2	0.0004999	43	33.9244	-7.379e-08
2	0	0	1	1	80.7088	0.200798	0.200568	-0.000296233	2	0.00049977	43	34.2992	-5.94147e-08
2	0	0	1	1	81.0836	0.208294	0.207976	-0.000229524	2	0.000499669	43	34.674	-4.77356e-08
2	0	0	1	1	81.4584	0.215791	0.215762	-0.000153976	2	0.000499597	43	35.0488	-3.32223e-08
2	0	0	1	1	81.8332	0.223286	0.22308	-6.01037e-05	2	0.000499557	43	35.4236	-1.34079e-08
2	1	0	1	1	82.2081	0.230783	0.230672	3.7272e-05	2	0.000499552	43	0.1	8.59759e-09
2	1	0	1	1	82.5829	0.23828	0.238081	0.000149357	2	0.000499587	43	0.4748	3.55589e-08
2	1	0	1	1	82.9577	0.245776	0.245674	0.000278371	2	0.000499667	43	0.8496	6.83885e-08
2	1	0	1	1	83.3325	0.253273	0.253174	0.000429336	2	0.000499799	43	1.2244	1.08697e-07
2	1	0	1	1	83.7074	0.260769	0.260445	0.000600033	2	0.000499992	43	1.5993	1.56276e-07
2	1	0	1	1	84.0822	0.268265	0.268085	0.00081022	2	0.000500258	43	1.9741	2.17208e-07
2	1	0	1	1	84.457	0.275762	0.275623	0.00104848	2	0.000500605	43	2.3489	2.88984e-07
2	1	0	1	1	84.8618	0.283858	0.283403	0.00133931	2	0.000501088	42	2.7537	3.79565e-07
2	1	0	1	1	85.2366	0.291354	0.291099	0.00163573	2	0.000501646	42	3.1285	4.76158e-07
2	1	0	1	1	85.6114	0.298851	0.298525	0.00196036	2	0.00050232	42	3.5033	5.85216e-07
2	1	0	1	1	85.9863	0.306347	0.306123	0.00229968	2	0.000503117	42	3.8782	7.03985e-07
2	1	0	1	1	86.3611	0.313844	0.313686	0.00262547	2	0.000504041	42	4.253	8.23575e-07
2	1	0	1	1	86.7359	0.32134	0.321076	0.00296137	2	0.000505089	42	4.6278	9.50824e-07
2	1	0	1	1	87.1107	0.328836	0.328713	0.00331399	2	0.000506266	42	5.0026	1.08935e-06
2	1	0	1	1	87.4855	0.336333	0.335939	0.00367109	2	0.000507575	42	5.3774	1.23326e-06
2	1	0	1	1	87.8604	0.343829	0.343611	0.00408422	2	0.000509028	42	5.7523	1.40338e-06
2	1	0	1	1	88.2352	0.351326	0.351197	0.0045791	2	0.000510649	42	6.1271	1.60817e-06
2	1	0	1	1	88.61	0.358822	0.358468	0.005188	2	0.000512472	42	6.5019	1.85973e-06
2	1	0	1	1	88.9848	0.366318	0.366055	0.00596358	2	0.000514557	42	6.8767	2.18299e-06
2	1	0	1	1	89.3596	0.373814	0.373519	0.00700241	2	0.000516978	42	7.2515	2.61554e-06
2	1	0	1	1	89.7345	0.381311	0.380889	0.00830007	2	0.000519833	42	7.6264	3.1614e-06
2	1	0	1	1	90.1093	0.388808	0.388482	0.00995534	2	0.000523244	42	8.0012	3.86747e-06
2	1	0	1	1	90.5141	0.396904	0.396609	0.0122218	2	0.000527719	41	8.406	4.84728e-06
2	1	0	1	1	90.8889	0.4044	0.404382	0.0147947	2	0.000532786	41	8.7808	5.98269e-06
2	1	0	1	1	91.2637	0.411897	0.411537	0.0179139	2	0.000538922	41	9.1556	7.37222e-06
2	1	0	1	1	91.6386	0.419393	0.41918	0.0214359	2	0.000546299	41	9.5305	8.98549e-06
2	1	0	1	1	92.0134	0.426889	0.426548	0.0253241	2	0.000555068	41	9.9053	1.0802e-05
2	1	0	1	1	92.3882	0.434386	0.433976	0.0293622	2	0.00056533	41	10.2801	1.27425e-05
2	1	0	1	1	92.763	0.441882	0.441573	0.0333464	2	0.000577109	41	10.6549	1.47249e-05
2	1	0	1	1	93.1378	0.449379	0.449169	0.0370504	2	0.000590335	41	11.0297	1.66419e-05
2	1	0	1	1	93.5127	0.456875	0.456711	0.0401992	2	0.000604857	41	11.4046	1.83594e-05
2	1	0	1	1	93.8875	0.464371	0.464142	0.0426321	2	0.000620417	41	11.7794	1.97874e-05
2	1	0	1	1	94.2623	0.471868	0.471516	0.0442065	2	0.000636726	41	12.1542	2.08441e-05
2	1	0	1	1	94.6371	0.479364	0.479215	0.0449398	2	0.000653469	41	12.529	2.15359e-05
2	1	0	1	1	95.0119	0.486861	0.486527	0.0449676	2	0.000670355	41	12.9038	2.18779e-05
2	1	0	1	1	95.3868	0.494357	0.494164	0.0443431	2	0.000687134	41	13.2787	2.19128e-05
2	1	0	1	1	95.7616	0.501853	0.501593	0.0433483	2	0.000703605	41	13.6535	2.17432e-05
2	1	0	1	1	96.1364	0.50935	0.509114	0.0420702	2	0.000719644	41	14.0283	2.14186e-05
2	1	0	1	1	96.5112	0.516846	0.516651	0.0406816	2	0.00073518	41	14.4031	2.10182e-05
2	1	0	1	1	96.886	0.524343	0.52415	0.0392282	2	0.000750175	41	14.7779	2.05615e-05
2	1	0	1	1	97.2609	0.531839	0.531621	0.0377867	2	0.000764636	41	15.1528	2.00882e-05
2	1	0	1	1	97.6357	0.539335	0.539043	0.0364389	2	0.000778573	41	15.5276	1.96421e-05
2	1	0	1	1	98.0105	0.546832	0.546536	0.0351779	2	0.000792016	41	15.9024	1.9226e-05
2	1	0	1	1	98.3853	0.554328	0.554026	0.0339777	2	0.000805001	41	16.2772	1.88245e-05
2	1	0	1	1	98.7601	0.561825	0.561426	0.0329009	2	0.000817562	41	16.652	1.84714e-05
2	1	0	1	1	99.135	0.569321	0.568973	0.0319135	2	0.000829735	41	17.0269	1.81579e-05
2	1	0	1	1	99.5098	0.576818	0.576512	0.0309947	2	0.000841549	41	17.4017	1.78688e-05
2	1	0	1	1	99.8846	0.584314	0.584097	0.0301604	2	0.000853038	41	17.7765	1.76166e-05
2	1	0	1	1	100.259	0.59181	0.591638	0.0294051	2	0.000864228	41	18.1513	1.73972e-05
2	1	0	1	1	100.634	0.599307	0.599053	0.0286906	2	0.000875146	41	18.5261	1.71872e-05
2	1	0	1	1	101.009	0.606803	0.606511	0.0280525	2	0.000885816	41	18.901	1.70142e-05
2	1	0	1	1	101.384	0.6143	0.613852	0.0274951	2	0.000896255	41	19.2758	1.68779e-05
2	1	0	1	1	101.759	0.621796	0.621772	0.0269483	2	0.000906485	41	19.6506	1.67557e-05
2	1	0	1	1	102.133	0.629292	0.62901	0.0264372	2	0.000916525	41	20.0254	1.66292e-05
2	1	0	1	1	102.508	0.63679	0.636504	0.0260183	2	0.000926397	41	20.4003	1.65608e-05
2	1	0	1	1	102.883	0.644285	0.644118	0.025638	2	0.000936113	41	20.7751	1.65139e-05
2	1	0	1	1	103.258	0.651782	0.651631	0.0253001	2	0.000945692	41	21.1499	1.64863e-05
2	1	0	1	1	103.633	0.659278	0.659125	0.0249725	2	0.00095515	41	21.5247	1.646e-05
2	1	0	1	1	104.008	0.666775	0.666492	0.0247273	2	0.000964499	41	21.8995	1.64806e-05
2	1	0	1	1	104.382	0.67427	0.674047	0.0244829	2	0.000973755	41	22.2743	1.65026e-05
2	1	0	1	1	104.757	0.681767	0.681556	0.0242804	2	0.000982934	41	22.6492	1.65484e-05
2	1	0	1	1	105.132	0.689264	0.688965	0.0241216	2	0.000992044	41	23.024	1.66189e-05
2	1	0	1	1	105.507	0.69676	0.696468	0.0239987	2	0.0010011	41	23.3988	1.67143e-05
2	1	0	1	1	105.857	0.69621	0.695999	0.0228747	2	0.00100936	41	23.7492	1.59208e-05
2	1	0	1	1	106.232	0.688714	0.68843	0.0220189	2	0.00101772	41	24.124	1.51584e-05
2	1	0	1	1	106.607	0.681218	0.680999	0.0213768	2	0.00102581	41	24.4988	1.45576e-05
2	1	0	1	1	106.982	0.673721	0.673491	0.0208799	2	0.00103368	41	24.8736	1.40624e-05
2	1	0	1	1	107.357	0.666225	0.665933	0.0204331	2	0.00104137	41	25.2485	1.36071e-05
2	1	0	1	1	107.731	0.658728	0.658467	0.0200193	2	0.00104891	41	25.6233	1.3182e-05
2	1	0	1	1	108.106	0.651232	0.650955	0.0196552	2	0.0010563	41	25.9981	1.27947e-05
2	1	0	1	1	108.481	0.643735	0.643595	0.0193307	2	0.00106357	41	26.3729	1.24412e-05
2	1	0	1	1	108.856	0.636239	0.636222	0.0189972	2	0.00107072	41	26.7477	1.20864e-05
2	1	0	1	1	109.231	0.628743	0.628491	0.0187411	2	0.00107775	41	27.1226	1.17786e-05
2	1	0	1	1	109.605	0.621246	0.620972	0.0184089	2	0.00108468	41	27.4974	1.14314e-05
2	1	0	1	1	109.98	0.61375	0.613565	0.0181463	2	0.00109149	41	27.8722	1.11339e-05
2	1	0	1	1	110.355	0.606254	0.606088	0.0178507	2	0.0010982	41	28.247	1.08191e-05
2	1	0	1	1	110.73	0.598757	0.598441	0.0175185	2	0.00110479	41	28.6218	1.04838e-05
2	1	0	1	1	111.105	0.591261	0.591066	0.0171713	2	0.00111126	41	28.9967	1.01494e-05
2	1	0	1	1	111.48	0.583764	0.583542	0.0168005	2	0.00111759	41	29.3715	9.80379e-06
2	1	0	1	1	111.854	0.576268	0.576003	0.0163998	2	0.00112378	41	29.7463	9.44634e-06
2	1	0	1	1	112.229	0.568771	0.568422	0.0159056	2	0.00112981	41	30.1211	9.04109e-06
2	1	0	1	1	112.604	0.561275	0.561039	0.0153749	2	0.00113564	41	30.4959	8.62592e-06
2	1	0	1	1	112.979	0.553779	0.55341	0.0147689	2	0.00114127	41	30.8708	8.17327e-06
2	1	0	1	1	113.354	0.546282	0.545833	0.0140235	2	0.00114664	41	31.2456	7.65446e-06
2	1	0	1	1	113.728	0.538786	0.538499	0.0131719	2	0.00115171	41	31.6204	7.09308e-06
2	1	0	1	1	114.103	0.531289	0.531101	0.0120831	2	0.00115642	41	31.9952	6.41733e-06
2	1	0	1	1	114.478	0.523793	0.523548	0.01081	2	0.00116069	41	32.37	5.65953e-06
2	1	0	1	1	114.853	0.516297	0.516191	0.00918913	2	0.00116442	41	32.7449	4.74335e-06
2	1	0	1	1	115.228	0.5088	0.508608	0.00727421	2	0.0011675	41	33.1197	3.69973e-06
2	1	0	1	1	115.603	0.501304	0.500793	0.00498727	2	0.00116979	41	33.4945	2.49759e-06
2	1	0	1	1	116.007	0.493208	0.492783	0.0019611	2	0.00117121	42	33.8993	9.66398e-07
2	0	0	1	1	116.382	0.485711	0.485424	-0.00122169	2	0.00117135	42	0.1249	-5.93037e-07
2	0	0	1	1	116.757	0.478216	0.477911	-0.00484968	2	0.00117022	42	0.4997	-2.31771e-06
2	0	0	1	1	117.132	0.470718	0.470742	-0.00867846	2	0.00116769	42	0.8746	-4.08532e-06
2	0	0	1	1	117.537	0.462622	0.462364	-0.0129352	2	0.00116332	41	1.2794	-5.98078e-06
2	0	0	1	1	117.911	0.455126	0.454706	-0.0167036	2	0.00115774	41	1.6542	-7.59523e-06
2	0	0	1	1	118.286	0.447629	0.447349	-0.0201092	2	0.0011508	41	2.029	-8.99583e-06
2	0	0	1	1	118.661	0.440133	0.439864	-0.0227647	2	0.00114272	41	2.4038	-1.00134e-05
2	0	0	1	1	119.036	0.432637	0.432338	-0.0247318	2	0.00113376	41	2.7787	-1.06925e-05
2	0	0	1	1	119.411	0.42514	0.425077	-0.0258215	2	0.00112424	41	3.1535	-1.09761e-05
2	0	0	1	1	119.786	0.417644	0.417278	-0.02612	2	0.00111447	41	3.5283	-1.08993e-05
2	0	0	1	1	120.16	0.410147	0.409883	-0.0257777	2	0.00110471	41	3.9031	-1.05658e-05
2	0	0	1	1	120.535	0.402651	0.402447	-0.0249348	2	0.00109519	41	4.2779	-1.0035e-05
2	0	0	1	1	120.91	0.395155	0.395091	-0.0237655	2	0.00108604	41	4.6528	-9.38955e-06
2	0	0	1	1	121.285	0.387658	0.387263	-0.0224535	2	0.00107736	41	5.0276	-8.69543e-06
2	0	0	1	1	121.66	0.380162	0.379841	-0.0210476	2	0.00106918	41	5.4024	-7.99474e-06
2	0	0	1	1	122.034	0.372665	0.372464	-0.0197702	2	0.00106152	41	5.7772	-7.36367e-06
2	0	0	1	1	122.409	0.365167	0.364874	-0.01848	2	0.00105434	41	6.1521	-6.74289e-06
2	0	0	1	1	122.784	0.357673	0.357568	-0.0173419	2	0.00104761	41	6.5269	-6.2009e-06
2	0	0	1	1	123.159	0.350176	0.350029	-0.0163428	2	0.00104128	41	6.9017	-5.72045e-06
2	0	0	1	1	123.534	0.34268	0.3424	-0.0154412	2	0.00103531	41	7.2765	-5.28708e-06
2	0	0	1	1	123.909	0.335183	0.334836	-0.0146829	2	0.00102965	41	7.6513	-4.91637e-06
2	0	0	1	1	124.283	0.327687	0.327571	-0.0140151	2	0.00102426	41	8.0261	-4.59093e-06
2	0	0	1	1	124.658	0.320191	0.31972	-0.0134152	2	0.0010191	41	8.401	-4.28911e-06
2	0	0	1	1	125.033	0.312694	0.312371	-0.0128998	2	0.00101415	41	8.7758	-4.02952e-06
2	0	0	1	1	125.408	0.305198	0.304898	-0.0124074	2	0.0010094	41	9.1506	-3.78298e-06
2	0	0	1	1	125.783	0.297701	0.297368	-0.0119123	2	0.00100482	41	9.5254	-3.54233e-06
2	0	0	1	1	126.158	0.290204	0.290006	-0.0114371	2	0.00100043	41	9.9003	-3.31684e-06
2	0	0	1	1	126.532	0.282708	0.282401	-0.0109756	2	0.000996211	41	10.2751	-3.09951e-06
2	0	0	1	1	126.907	0.275212	0.274827	-0.0104941	2	0.000992171	41	10.6499	-2.88405e-06
2	0	0	1	1	127.282	0.267716	0.267441	-0.0100277	2	0.000988305	41	11.0247	-2.68181e-06
2	0	0	1	1	127.657	0.260219	0.259669	-0.00956905	2	0.000984609	41	11.3995	-2.48479e-06
2	0	0	1	1	128.032	0.252725	0.252177	-0.00917261	2	0.000981078	41	11.7743	-2.31312e-06
2	0	0	1	1	128.406	0.245226	0.245011	-0.00876756	2	0.000977701	41	12.1492	-2.14815e-06
2	0	0	1	1	128.781	0.23773	0.237178	-0.00837896	2	0.00097447	41	12.524	-1.9873e-06
2	0	0	1	1	129.156	0.230234	0.229966	-0.00804317	2	0.000971379	41	12.8988	-1.84965e-06
2	0	0	1	1	129.531	0.222737	0.222511	-0.00768681	2	0.000968417	41	13.2736	-1.7104e-06
2	0	0	1	1	129.906	0.215241	0.215105	-0.00736934	2	0.000965575	41	13.6485	-1.58518e-06
2	0	0	1	1	130.281	0.207744	0.207419	-0.00709707	2	0.000962846	41	14.0233	-1.47207e-06
2	0	0	1	1	130.655	0.200248	0.2001	-0.00680382	2	0.000960222	41	14.3981	-1.36145e-06
2	0	0	1	1	131.03	0.192752	0.192497	-0.00657	2	0.000957696	41	14.7729	-1.2647e-06
2	0	0	1	1	131.405	0.185255	0.184894	-0.00633168	2	0.000955261	41	15.1477	-1.17069e-06
2	0	0	1	1	131.78	0.177759	0.177471	-0.00611825	2	0.000952912	41	15.5226	-1.08581e-06
2	0	0	1	1	132.155	0.170262	0.170115	-0.00589015	2	0.000950643	41	15.8974	-1.002e-06
2	0	0	1	1	132.529	0.162766	0.162516	-0.00568723	2	0.000948448	41	16.2722	-9.24264e-07
2	0	0	1	1	132.904	0.15527	0.155003	-0.00553547	2	0.000946324	41	16.647	-8.58015e-07
2	0	0	1	1	133.279	0.147773	0.147654	-0.00534828	2	0.000944268	41	17.0218	-7.89692e-07
2	0	0	1	1	133.654	0.140277	0.140075	-0.00519063	2	0.000942275	41	17.3967	-7.27076e-07
2	0	0	1	1	134.029	0.13278	0.132494	-0.0050282	2	0.00094034	41	17.7715	-6.66205e-07
2	0	0	1	1	134.404	0.125284	0.12491	-0.00487894	2	0.000938461	41	18.1463	-6.0943e-07
2	0	0	1	1	134.778	0.117788	0.117538	-0.00475823	2	0.000936635	41	18.5211	-5.59275e-07
2	0	0	1	1	135.153	0.110291	0.110242	-0.0046084	2	0.00093486	41	18.8959	-5.08038e-07
2	0	0	1	1	135.528	0.102795	0.102705	-0.00448542	2	0.000933131	41	19.2708	-4.60674e-07
2	0	0	1	1	135.933	0.0946986	0.0945678	-0.00442864	2	0.000931315	42	19.6756	-4.18807e-07
2	0	0	1	1	136.308	0.0872022	0.0872042	-0.00431747	2	0.000929677	42	20.0504	-3.76501e-07
2	0	0	1	1	136.682	0.0797058	0.0794675	-0.0042022	2	0.00092808	42	20.4252	-3.33939e-07
2	0	0	1	1	137.057	0.0722093	0.0719259	-0.00410669	2	0.000926522	42	20.8	-2.95377e-07
2	0	0	1	1	137.432	0.064712	0.0645978	-0.00401364	2	0.000925	42	21.1749	-2.59272e-07
2	0	0	1	1	137.807	0.0572165	0.0570702	-0.00391581	2	0.000923513	42	21.5497	-2.23476e-07
2	0	0	1	1	138.182	0.0497201	0.0495196	-0.00383359	2	0.000922061	42	21.9245	-1.89838e-07
2	0	0	1	1	138.557	0.0422237	0.0419247	-0.00374432	2	0.000920639	42	22.2993	-1.56979e-07
2	0	0	1	1	138.931	0.0347273	0.0346458	-0.00367514	2	0.000919247	42	22.6741	-1.27328e-07
2	0	0	1	1	139.306	0.0272327	0.0269083	-0.00360217	2	0.000917884	42	23.0489	-9.69281e-08
2	0	0	1	1	139.681	0.0197345	0.019503	-0.00352564	2	0.000916546	42	23.4238	-6.87606e-08
2	0	0	1	1	140.056	0.0122381	0.0120529	-0.00346051	2	0.000915235	42	23.7986	-4.17092e-08
2	0	0	1	1	140.431	0.00474167	0.0043977	-0.00340053	2	0.000913948	42	24.1734	-1.49545e-08
2	0	0	1	0	140.781	0.00229285	0.00199201	-0.0027541	3	0.000912825	42	24.5238	-5.4862e-09
2	0	0	1	0	141.156	0.00978925	0.00954409	-0.00249858	3	0.000911847	42	24.8987	-2.38467e-08
2	0	0	1	0	141.531	0.0172857	0.0172009	-0.00234316	3	0.000910942	42	25.2735	-4.03043e-08
2	0	0	1	0	141.906	0.0247821	0.0246398	-0.00221605	3	0.000910089	42	25.6483	-5.4603e-08
2	0	0	1	0	142.28	0.0322785	0.0319642	-0.00210127	3	0.00090928	42	26.0231	-6.71654e-08
2	0	0	1	0	142.655	0.0397749	0.0396104	-0.00201367	3	0.00090851	42	26.3979	-7.97622e-08
2	0	0	1	0	143.03	0.0472713	0.0472375	-0.00191861	3	0.000907776	42	26.7728	-9.06301e-08
2	0	0	1	0	143.405	0.0547677	0.0545042	-0.00182692	3	0.000907075	42	27.1476	-9.9575e-08
2	0	0	1	0	143.78	0.0622641	0.0622332	-0.00174719	3	0.000906404	42	27.5224	-1.08733e-07
2	0	0	1	0	144.154	0.0697605	0.0696454	-0.00167228	3	0.000905764	42	27.8972	-1.16467e-07
2	0	0	1	0	144.529	0.0772583	0.0770689	-0.00159966	3	0.000905152	42	28.2721	-1.23284e-07
2	0	0	1	0	144.904	0.0847533	0.0845107	-0.00151855	3	0.000904568	42	28.6469	-1.28334e-07
2	0	0	1	0	145.279	0.0922497	0.0918992	-0.00145149	3	0.000904011	42	29.0217	-1.33391e-07
2	0	0	1	0	145.654	0.0997461	0.0995538	-0.00138405	3	0.000903481	42	29.3965	-1.37788e-07
2	0	0	1	0	146.029	0.107243	0.106957	-0.00131025	3	0.000902977	42	29.7713	-1.40141e-07
2	0	0	1	0	146.403	0.114738	0.114567	-0.00124333	3	0.000902499	42	30.1461	-1.42444e-07
2	0	0	1	0	146.778	0.122235	0.122052	-0.00117936	3	0.000902045	42	30.521	-1.43944e-07
2	0	0	1	0	147.153	0.129732	0.129492	-0.00111663	3	0.000901616	42	30.8958	-1.44595e-07
2	0	0	1	0	147.528	0.137228	0.137149	-0.00104506	3	0.000901212	42	31.2706	-1.43329e-07
2	0	0	1	0	147.903	0.144725	0.144729	-0.000981072	3	0.000900833	42	31.6454	-1.4199e-07
2	0	0	1	0	148.278	0.152221	0.152113	-0.000914473	3	0.000900478	42	32.0203	-1.39104e-07
2	0	0	1	0	148.652	0.159717	0.159432	-0.00084706	3	0.000900148	42	32.3951	-1.35048e-07
2	0	0	1	0	149.027	0.167214	0.166909	-0.000778946	3	0.000899843	42	32.7699	-1.30013e-07
2	0	0	1	0	149.402	0.17471	0.174618	-0.000709948	3	0.000899564	42	33.1447	-1.2397e-07
2	0	0	1	0	149.777	0.182207	0.182085	-0.000651579	3	0.00089931	42	33.5195	-1.18643e-07
2	0	0	1	0	150.152	0.189701	0.189525	-0.00057156	3	0.000899082	42	33.8943	-1.08325e-07
2	0	0	1	0	150.526	0.197199	0.197024	-0.000497824	3	0.000898881	42	34.2692	-9.80831e-08
2	0	0	1	0	150.931	0.205296	0.204972	-0.000434125	3	0.000898693	43	34.674	-8.89835e-08
2	0	0	1	0	151.306	0.212792	0.212657	-0.0003323	3	0.000898552	43	35.0488	-7.06659e-08
2	0	0	1	0	151.681	0.220288	0.219935	-0.000246167	3	0.000898443	43	35.4236	-5.41408e-08
2	0	0	1	0	152.056	0.227785	0.227313	-0.000140994	3	0.000898368	43	35.7984	-3.20497e-08
2	0	0	1	0	152.431	0.235281	0.23519	-3.52121e-05	3	0.000898332	43	36.1733	-8.28155e-09
2	1	0	1	0	152.805	0.242778	0.24264	7.751e-05	3	0.000898339	43	0.1999	1.8807e-08
2	1	0	1	0	153.18	0.250274	0.250092	0.000227217	3	0.000898396	43	0.5747	5.68251e-08
2	1	0	1	0	153.555	0.25777	0.257527	0.000389971	3	0.00089851	43	0.9495	1.00428e-07
2	1	0	1	0	153.93	0.265266	0.264992	0.000583581	3	0.000898691	43	1.3243	1.54644e-07
2	1	0	1	0	154.305	0.272763	0.272704	0.000807496	3	0.00089895	43	1.6992	2.20207e-07
2	1	0	1	0	154.679	0.28026	0.2799	0.00105902	3	0.000899298	43	2.074	2.9642e-07
2	1	0	1	0	155.084	0.288356	0.2881	0.0013611	3	0.000899787	42	2.4788	3.92133e-07
2	1	0	1	0	155.459	0.295852	0.295761	0.00166178	3	0.000900355	42	2.8536	4.91491e-07
2	1	0	1	0	155.834	0.303349	0.303158	0.0019946	3	0.00090104	42	3.2284	6.04679e-07
2	1	0	1	0	156.209	0.310845	0.310506	0.00232654	3	0.000901848	42	3.6033	7.22402e-07
2	1	0	1	0	156.584	0.318341	0.318087	0.00264345	3	0.000902779	42	3.9781	8.40848e-07
2	1	0	1	0	156.958	0.325838	0.325632	0.00297887	3	0.000903834	42	4.3529	9.70016e-07
2	1	0	1	0	157.333	0.333334	0.333063	0.0033369	3	0.000905016	42	4.7277	1.1114e-06
2	1	0	1	0	157.708	0.340831	0.340601	0.00371791	3	0.000906332	42	5.1025	1.26632e-06
2	1	0	1	0	158.083	0.348327	0.347985	0.00413662	3	0.000907801	42	5.4774	1.43948e-06
2	1	0	1	0	158.458	0.355823	0.35547	0.00468041	3	0.000909452	42	5.8522	1.66375e-06
2	1	0	1	0	158.832	0.36332	0.363256	0.00537199	3	0.000911331	42	6.227	1.95141e-06
2	1	0	1	0	159.207	0.370816	0.370705	0.00626021	3	0.000913503	42	6.6018	2.32069e-06
2	1	0	1	0	159.582	0.378313	0.378092	0.00740604	3	0.000916054	42	6.9766	2.80016e-06
2	1	0	1	0	159.957	0.385809	0.385479	0.00888129	3	0.000919096	42	7.3515	3.42355e-06
2	1	0	1	0	160.332	0.393305	0.393116	0.0107396	3	0.000922759	42	7.7263	4.22191e-06
2	1	0	1	0	160.737	0.401402	0.401316	0.0131858	3	0.000927583	41	8.1311	5.29166e-06
2	1	0	1	0	161.111	0.408898	0.408696	0.0160054	3	0.000933057	41	8.5059	6.54134e-06
2	1	0	1	0	161.486	0.416394	0.416082	0.0192602	3	0.000939667	41	8.8807	8.01382e-06
2	1	0	1	0	161.861	0.42389	0.423766	0.0229118	3	0.000947573	41	9.2555	9.70924e-06
2	1	0	1	0	162.236	0.431387	0.431298	0.0268098	3	0.000956904	41	9.6304	1.1563e-05
2	1	0	1	0	162.611	0.438884	0.438745	0.0307261	3	0.000967708	41	10.0052	1.34809e-05
2	1	0	1	0	162.985	0.44638	0.446082	0.0345143	3	0.000979967	41	10.38	1.53962e-05
2	1	0	1	0	163.36	0.453877	0.453508	0.037805	3	0.000993555	41	10.7548	1.71448e-05
2	1	0	1	0	163.735	0.461374	0.46114	0.0404649	3	0.00100827	41	11.1297	1.866e-05
2	1	0	1	0	164.11	0.468869	0.468668	0.0424011	3	0.00102384	41	11.5045	1.98721e-05
2	1	0	1	0	164.485	0.476366	0.476318	0.0434368	3	0.00103997	41	11.8793	2.06897e-05
2	1	0	1	0	164.86	0.483862	0.483685	0.0438475	3	0.00105638	41	12.2541	2.12084e-05
2	1	0	1	0	165.234	0.491358	0.491109	0.0435603	3	0.00107279	41	12.6289	2.13928e-05
2	1	0	1	0	165.609	0.498854	0.498561	0.0427908	3	0.001089	41	13.0037	2.13338e-05
2	1	0	1	0	165.984	0.506351	0.506134	0.0416956	3	0.00110487	41	13.3786	2.11035e-05
2	1	0	1	0	166.359	0.513848	0.513569	0.0403994	3	0.00112028	41	13.7534	2.07479e-05
2	1	0	1	0	166.734	0.521344	0.521321	0.0390173	3	0.00113519	41	14.1282	2.03405e-05
2	1	0	1	0	167.108	0.528841	0.528534	0.0376134	3	0.00114957	41	14.503	1.988e-05
2	1	0	1	0	167.483	0.536337	0.536391	0.0362541	3	0.00116343	41	14.8779	1.94464e-05
2	1	0	1	0	167.858	0.543833	0.543591	0.0349599	3	0.0011768	41	15.2527	1.90039e-05
2	1	0	1	0	168.233	0.55133	0.550988	0.0337786	3	0.0011897	41	15.6275	1.86116e-05
2	1	0	1	0	168.608	0.558826	0.558541	0.0327007	3	0.00120218	41	16.0023	1.82647e-05
2	1	0	1	0	168.983	0.566323	0.566258	0.0316619	3	0.00121426	41	16.3771	1.79288e-05
2	1	0	1	0	169.357	0.573819	0.57355	0.0307192	3	0.00122598	41	16.752	1.7619e-05
2	1	0	1	0	169.732	0.581315	0.581026	0.0298732	3	0.00123736	41	17.1268	1.73571e-05
2	1	0	1	0	170.107	0.588812	0.588716	0.0291103	3	0.00124844	41	17.5016	1.71377e-05
2	1	0	1	0	170.482	0.596308	0.596038	0.0284159	3	0.00125925	41	17.8764	1.6937e-05
2	1	0	1	0	170.857	0.603805	0.603657	0.0277832	3	0.0012698	41	18.2512	1.67715e-05
2	1	0	1	0	171.232	0.611301	0.611159	0.0272147	3	0.00128014	41	18.6261	1.66325e-05
2	1	0	1	0	171.606	0.618797	0.618594	0.0266951	3	0.00129027	41	19.0009	1.65134e-05
2	1	0	1	0	171.981	0.626294	0.626192	0.0262229	3	0.00130021	41	19.3757	1.64206e-05
2	1	0	1	0	172.356	0.63379	0.633575	0.0257892	3	0.00130999	41	19.7505	1.63394e-05
2	1	0	1	0	172.731	0.641287	0.641001	0.0253786	3	0.00131962	41	20.1253	1.62677e-05
2	1	0	1	0	173.106	0.648783	0.648399	0.0250374	3	0.0013291	41	20.5002	1.62342e-05
2	1	0	1	0	173.48	0.656279	0.656058	0.0247069	3	0.00133845	41	20.875	1.62092e-05
2	1	0	1	0	173.855	0.663776	0.663562	0.0244093	3	0.00134769	41	21.2498	1.61971e-05
2	1	0	1	0	174.23	0.671272	0.67092	0.0241796	3	0.00135683	41	21.6246	1.62226e-05
2	1	0	1	0	174.605	0.678769	0.678464	0.0239367	3	0.00136588	41	21.9994	1.62402e-05
2	1	0	1	0	174.98	0.686265	0.685995	0.0237491	3	0.00137486	41	22.3743	1.62918e-05
2	1	0	1	0	175.355	0.693762	0.693562	0.023652	3	0.00138378	41	22.7491	1.64041e-05
2	1	0	1	0	175.705	0.699209	0.69915	0.0230838	3	0.00139206	41	23.0994	1.6139e-05
2	1	0	1	0	176.08	0.691712	0.691333	0.0219104	3	0.00140041	41	23.4743	1.51474e-05
2	1	0	1	0	176.455	0.684216	0.68403	0.0211838	3	0.00140844	41	23.8491	1.44904e-05
2	1	0	1	0	176.829	0.67672	0.676284	0.0206593	3	0.00141623	41	24.2239	1.39715e-05
2	1	0	1	0	177.204	0.669223	0.669003	0.0201743	3	0.00142384	41	24.5987	1.34966e-05
2	1	0	1	0	177.579	0.661727	0.661397	0.0197833	3	0.00143129	41	24.9735	1.30846e-05
2	1	0	1	0	177.954	0.654231	0.654079	0.019399	3	0.00143859	41	25.3484	1.26885e-05
2	1	0	1	0	178.329	0.646734	0.646359	0.0190704	3	0.00144576	41	25.7232	1.23263e-05
2	1	0	1	0	178.703	0.639238	0.638972	0.0187229	3	0.0014528	41	26.098	1.19634e-05
2	1	0	1	0	179.078	0.631741	0.631654	0.0183813	3	0.00145972	41	26.4728	1.16106e-05
2	1	0	1	0	179.453	0.624243	0.62381	0.0180959	3	0.00146652	41	26.8477	1.12884e-05
2	1	0	1	0	179.828	0.616748	0.616407	0.0177983	3	0.00147321	41	27.2225	1.0971e-05
2	1	0	1	0	180.203	0.609252	0.608988	0.017479	3	0.00147978	41	27.5973	1.06445e-05
2	1	0	1	0	180.578	0.601756	0.601454	0.0171497	3	0.00148624	41	27.9721	1.03148e-05
2	1	0	1	0	180.952	0.594259	0.593995	0.0168081	3	0.00149257	41	28.3469	9.98394e-06
2	1	0	1	0	181.327	0.586764	0.586477	0.0164657	3	0.00149877	41	28.7217	9.65674e-06
2	1	0	1	0	181.702	0.579266	0.579013	0.0160504	3	0.00150482	41	29.0966	9.2934e-06
2	1	0	1	0	182.077	0.57177	0.571517	0.0155733	3	0.00151072	41	29.4714	8.90039e-06
2	1	0	1	0	182.452	0.564274	0.564035	0.015075	3	0.00151644	41	29.8462	8.5028e-06
2	1	0	1	0	182.826	0.556777	0.556628	0.0145048	3	0.00152196	41	30.221	8.07381e-06
2	1	0	1	0	183.201	0.549281	0.54907	0.0138225	3	0.00152724	41	30.5959	7.58954e-06
2	1	0	1	0	183.576	0.541784	0.541304	0.0130278	3	0.00153225	41	30.9707	7.05199e-06
2	1	0	1	0	183.951	0.534288	0.534089	0.0120298	3	0.00153693	41	31.3455	6.425e-06
2	1	0	1	0	184.326	0.526792	0.52673	0.0108575	3	0.00154121	41	31.7203	5.71897e-06
2	1	0	1	0	184.701	0.519295	0.519008	0.00943133	3	0.001545	41	32.0951	4.89494e-06
2	1	0	1	0	185.075	0.511799	0.511568	0.00770733	3	0.00154819	41	32.47	3.94282e-06
2	1	0	1	0	185.45	0.504302	0.504048	0.00559732	3	0.00155067	41	32.8448	2.82132e-06
2	1	0	1	0	185.855	0.496206	0.495787	0.00282813	3	0.00155238	42	33.2496	1.40215e-06
2	0	0	1	0	186.23	0.48871	0.488506	-0.000150076	3	0.0015529	42	0.000000000000000E+000	-7.33127e-08
2	0	0	1	0	186.605	0.481213	0.480883	-0.00350844	3	0.00155222	42	0.3748	-1.68715e-06
2	0	0	1	0	186.98	0.473715	0.473435	-0.00719191	3	0.00155022	42	0.7497	-3.4049e-06
2	0	0	1	0	187.369	0.46592	0.465472	-0.011061	3	0.00154664	42	1.1395	-5.14859e-06
2	0	0	1	0	187.759	0.458124	0.457628	-0.0150653	3	0.00154152	41	1.5293	-6.8943e-06
2	0	0	1	0	188.134	0.450628	0.450251	-0.0185519	3	0.00153518	41	1.9041	-8.35301e-06
2	0	0	1	0	188.509	0.443132	0.442759	-0.0215019	3	0.00152764	41	2.2789	-9.52014e-06
2	0	0	1	0	188.884	0.435635	0.435544	-0.0236736	3	0.00151914	41	2.6537	-1.03109e-05
2	0	0	1	0	189.258	0.428141	0.427997	-0.0250394	3	0.00150997	41	3.0285	-1.07168e-05
2	0	0	1	0	189.633	0.420642	0.420543	-0.0256085	3	0.00150044	41	3.4034	-1.07695e-05
2	0	0	1	0	190.008	0.413146	0.412648	-0.0254662	3	0.00149083	41	3.7782	-1.05086e-05
2	0	0	1	0	190.383	0.40565	0.405615	-0.0248319	3	0.00148138	41	4.153	-1.00722e-05
2	0	0	1	0	190.758	0.398153	0.397918	-0.0237852	3	0.00147224	41	4.5278	-9.46454e-06
2	0	0	1	0	191.133	0.390657	0.390489	-0.0225428	3	0.00146353	41	4.9027	-8.80273e-06
2	0	0	1	0	191.507	0.38316	0.383034	-0.0212494	3	0.00145531	41	5.2775	-8.13924e-06
2	0	0	1	0	191.882	0.375664	0.375487	-0.0199248	3	0.00144759	41	5.6523	-7.4815e-06
2	0	0	1	0	192.257	0.368168	0.367869	-0.0186531	3	0.00144035	41	6.0271	-6.8619e-06
2	0	0	1	0	192.632	0.360671	0.360527	-0.0174936	3	0.00143357	41	6.4019	-6.30693e-06
2	0	0	1	0	193.007	0.353175	0.3529	-0.0164435	3	0.00142719	41	6.7768	-5.80292e-06
2	0	0	1	0	193.381	0.345678	0.345301	-0.0155444	3	0.00142118	41	7.1516	-5.36751e-06
2	0	0	1	0	193.756	0.338182	0.337875	-0.0147623	3	0.00141549	41	7.5264	-4.98782e-06
2	0	0	1	0	194.131	0.330686	0.330519	-0.0141096	3	0.00141007	41	7.9012	-4.6635e-06
2	0	0	1	0	194.506	0.323189	0.32283	-0.0135058	3	0.00140488	41	8.276	-4.36007e-06
2	0	0	1	0	194.881	0.315693	0.315276	-0.0129879	3	0.0013999	41	8.6509	-4.09477e-06
2	0	0	1	0	195.256	0.308196	0.308014	-0.0124846	3	0.00139511	41	9.0257	-3.84542e-06
2	0	0	1	0	195.63	0.3007	0.300491	-0.0119982	3	0.00139051	41	9.4005	-3.60536e-06
2	0	0	1	0	196.005	0.293203	0.292973	-0.0115405	3	0.00138608	41	9.7753	-3.38106e-06
2	0	0	1	0	196.38	0.285707	0.285404	-0.0110496	3	0.00138183	41	10.1501	-3.15361e-06
2	0	0	1	0	196.755	0.278211	0.277967	-0.0105851	3	0.00137776	41	10.525	-2.94231e-06
2	0	0	1	0	197.13	0.270714	0.270375	-0.0101198	3	0.00137386	41	10.8998	-2.73615e-06
2	0	0	1	0	197.504	0.263218	0.26317	-0.00965432	3	0.00137014	41	11.2746	-2.54072e-06
2	0	0	1	0	197.879	0.255721	0.255526	-0.00921028	3	0.00136658	41	11.6494	-2.35346e-06
2	0	0	1	0	198.254	0.248223	0.248107	-0.00878333	3	0.00136319	41	12.0243	-2.17921e-06
2	0	0	1	0	198.629	0.240729	0.240465	-0.00837583	3	0.00135996	41	12.3991	-2.0141e-06
2	0	0	1	0	199.004	0.233232	0.233025	-0.00800857	3	0.00135687	41	12.7739	-1.86619e-06
2	0	0	1	0	199.379	0.225736	0.225516	-0.00763038	3	0.00135392	41	13.1487	-1.72077e-06
2	0	0	1	0	199.753	0.218239	0.218185	-0.00731623	3	0.0013511	41	13.5235	-1.59629e-06
2	0	0	1	0	200.128	0.210743	0.210446	-0.00702135	3	0.0013484	41	13.8983	-1.47762e-06
2	0	0	1	0	200.503	0.203247	0.202847	-0.00671505	3	0.00134581	41	14.2732	-1.36213e-06
2	0	0	1	0	200.878	0.19575	0.195477	-0.00642906	3	0.00134333	41	14.648	-1.25673e-06
2	0	0	1	0	201.253	0.188254	0.18798	-0.00618339	3	0.00134095	41	15.0228	-1.16235e-06
2	0	0	1	0	201.627	0.180757	0.180499	-0.00594489	3	0.00133866	41	15.3976	-1.07305e-06
2	0	0	1	0	202.002	0.17326	0.172979	-0.00572568	3	0.00133645	41	15.7725	-9.90425e-07
2	0	0	1	0	202.377	0.165765	0.165694	-0.00550903	3	0.00133433	41	16.1473	-9.12815e-07
2	0	0	1	0	202.752	0.158268	0.157998	-0.00530919	3	0.00133228	41	16.5221	-8.38841e-07
2	0	0	1	0	203.127	0.150772	0.150356	-0.00511273	3	0.00133031	41	16.8969	-7.68727e-07
2	0	0	1	0	203.502	0.143275	0.143013	-0.00492829	3	0.00132841	41	17.2717	-7.04809e-07
2	0	0	1	0	203.876	0.13578	0.135408	-0.00477155	3	0.00132656	41	17.6465	-6.46106e-07
2	0	0	1	0	204.251	0.128282	0.128046	-0.00463441	3	0.00132478	41	18.0214	-5.93418e-07
2	0	0	1	0	204.626	0.120786	0.1206	-0.00447921	3	0.00132305	41	18.3962	-5.40195e-07
2	0	0	1	0	205.031	0.11269	0.112334	-0.00438712	3	0.00132125	42	18.801	-4.92821e-07
2	0	0	1	0	205.406	0.105194	0.10497	-0.0042631	3	0.00131963	42	19.1758	-4.47495e-07
2	0	0	1	0	205.78	0.0976971	0.0974487	-0.00414079	3	0.00131805	42	19.5506	-4.03514e-07
2	0	0	1	0	206.155	0.0902007	0.0897781	-0.0040276	3	0.00131652	42	19.9255	-3.6159e-07
2	0	0	1	0	206.53	0.0827043	0.0825709	-0.00391522	3	0.00131503	42	20.3003	-3.23283e-07
2	0	0	1	0	206.905	0.0752079	0.0748146	-0.00381349	3	0.00131358	42	20.6751	-2.85305e-07
2	0	0	1	0	207.28	0.0677115	0.067598	-0.0037094	3	0.00131217	42	21.0499	-2.50748e-07
2	0	0	1	0	207.655	0.0602151	0.060098	-0.00362007	3	0.0013108	42	21.4247	-2.17559e-07
2	0	0	1	0	208.029	0.0527187	0.0523754	-0.0035306	3	0.00130946	42	21.7996	-1.84917e-07
2	0	0	1	0	208.404	0.0452223	0.0450931	-0.00344305	3	0.00130815	42	22.1744	-1.55258e-07
2	0	0	1	0	208.779	0.0377259	0.0374667	-0.00336376	3	0.00130687	42	22.5492	-1.26029e-07
2	0	0	1	0	209.154	0.0302295	0.0299802	-0.00329434	3	0.00130562	42	22.924	-9.8765e-08
2	0	0	1	0	209.529	0.0227313	0.0224043	-0.00322194	3	0.0013044	42	23.2989	-7.21854e-08
2	0	0	1	0	209.904	0.0152366	0.0150888	-0.00315743	3	0.00130321	42	23.6737	-4.76418e-08
2	0	0	1	0	210.278	0.00774024	0.00734947	-0.00308865	3	0.00130204	42	24.0485	-2.27e-08
2	0	0	1	0	210.652	0.000267816	-4.08893e-05	-0.00303316	3	0.00130089	42	24.4221	1.24024e-10
2	0	0	1	1	211.004	-0.00675282	-0.00714152	-0.00298672	3	0.00129983	42	24.7737	2.13297e-08
2	0	0	1	1	211.378	-0.0142492	-0.01441	-0.00293492	3	0.00129872	42	25.1486	4.22923e-08
2	0	0	0	1	211.394	-0.0145741	-0.0148551	-0.0029625	3	0.00129867	42	25.1645	4.40083e-08