File: Python/Experiments/RDE/Dicarboxylferrocene/Data/240327-CVEIS-5mM_DiCaFerrocene-1M_NaCl-0000RPM-Ag_AgCl_BLF8-Au_RDE_02_PEIS_C15.mpt
EC-Lab ASCII FILE
Nb header lines : 65

Potentio Electrochemical Impedance Spectroscopy

Run on channel : 15 (SN 19485)
User :
Electrode connection : standard
Potential control : Ewe
Ewe ctrl range : min = -1.00 V, max = 1.00 V
Ewe,I filtering : <None>
Safety Limits :
	Do not start on E overload
Channel : Floating
Acquisition started on : 03/27/2024 12:38:41.023
Loaded Setting File :  C:\Data\mathias\GoldElectrode\240322-CVEIS-5mM_Fe2Fe3-1M_H2SO4-0000RPM-Ag_AgCl_BLF8-GC_RDE.mps
Saved on :
	File : 240327-CVEIS-5mM_DiCaFerrocene-1M_NaCl-0000RPM-Ag_AgCl_BLF8-Au_RDE_02_PEIS_C15.mpr
	Directory : C:\Data\mathias\GoldElectrode\
	Host : 192.168.0.1
Device : VMP-300 (SN 0826)
Address : USB
EC-Lab for windows v11.52 (software)
Internet server v11.52 (firmware)
Command interpretor v11.52 (firmware)
Electrode material :
Initial state :
Electrolyte :
Comments :
Cable : special
Electrode surface area : 0.001 cm²
Characteristic mass : 0.001 g
Equivalent Weight : 0.000 g/eq.
Density : 0.000 g/cm3
Volume (V) : 0.001 cm³
Cycle Definition : Charge/Discharge alternance
Mode                Single sine
E (V)               0.0000
vs.                 Eoc
tE (h:m:s)          0:00:0.0000
record              0
dI                  0.000
unit dI             mA
dt (s)              0.000
fi                  400.000
unit fi             kHz
ff                  100.000
unit ff             mHz
Nd                  10
Points              per decade
spacing             Logarithmic
Va (mV)             5.0
pw                  0.10
Na                  3
corr                0
E range min (V)     -1.000
E range max (V)     1.000
I Range             Auto
Bandwidth           8
nc cycles           2
goto Ns'            0
nr cycles           0
inc. cycle          1

freq/Hz	Re(Z)/Ohm	-Im(Z)/Ohm	|Z|/Ohm	Phase(Z)/deg	time/s	<Ewe>/V	<I>/mA	Cs/µF	Cp/µF	cycle number	I Range	|Ewe|/V	|I|/A	Ns	(Q-Qo)/mA.h	Re(Y)/Ohm-1	Im(Y)/Ohm-1	|Y|/Ohm-1	Phase(Y)/deg	Re(C)/nF	Im(C)/nF	|C|/nF	Phase(C)/deg	Re(M)	Im(M)	|M|	Phase(M)/deg	Re(Permittivity)	Im(Permittivity)	|Permittivity|	Phase(Permittivity)/deg	Re(Resistivity)/Ohm.cm	Im(Resistivity)/Ohm.cm	|Resistivity|/Ohm.cm	Phase(Resistivity)/deg	Re(Conductivity)/mS/cm	Im(Conductivity)/mS/cm	|Conductivity|/mS/cm	Phase(Conductivity)/deg	Tan(Delta)	Loss Angle(Delta)/deg	dq/mA.h
399996	10.9503	2.6703	11.2711	-13.7045	143.137	0.0237545	-0.00779255	0.149006	0.00836351	1	38	0.00492354	0.000436827	0	-2.68138e-06	0.0861963	0.0210196	0.0887222	13.7045	8.36351	34.2967	35.3018	-76.2955	0.0000000E+000	0.0000000E+000	0.0000000E+000	76.2955	0.0000000E+000	0.0000000E+000	0.0000000E+000	-76.2955	0.0000000E+000	0.0000000E+000	0.0000000E+000	-13.7045	0.0000000E+000	0.0000000E+000	0.0000000E+000	13.7045	4.10076	76.2955	-2.68138e-06
252347	10.9929	1.94688	11.164	-10.0431	144.24	0.0237592	0.000949292	0.323954	0.00985195	1	38	0.00514388	0.000460757	0	-3.35319e-06	0.0882013	0.0156207	0.0895739	10.0431	9.85195	55.6284	56.494	-79.9569	0.0000000E+000	0.0000000E+000	0.0000000E+000	79.9569	0.0000000E+000	0.0000000E+000	0.0000000E+000	-79.9569	0.0000000E+000	0.0000000E+000	0.0000000E+000	-10.0431	0.0000000E+000	0.0000000E+000	0.0000000E+000	10.0431	5.64643	79.9569	-5.96929e-07
159201	11.1281	1.59751	11.2421	-8.16939	145.342	0.02378	0.00135705	0.625795	0.0126363	1	38	0.00518483	0.000461196	0	-2.88665e-06	0.0880484	0.0126399	0.088951	8.16939	12.6363	88.0231	88.9255	-81.8306	0.0000000E+000	0.0000000E+000	0.0000000E+000	81.8306	0.0000000E+000	0.0000000E+000	0.0000000E+000	-81.8306	0.0000000E+000	0.0000000E+000	0.0000000E+000	-8.16939	0.0000000E+000	0.0000000E+000	0.0000000E+000	8.16939	6.96588	81.8306	1.91114e-07
100431	11.2369	1.56333	11.3451	-7.92043	146.444	0.0237799	0.000712826	1.01369	0.0192481	1	38	0.00513805	0.000452887	0	-2.05819e-06	0.0873029	0.012146	0.0881438	7.92043	19.2481	138.351	139.684	-82.0796	0.0000000E+000	0.0000000E+000	0.0000000E+000	82.0796	0.0000000E+000	0.0000000E+000	0.0000000E+000	-82.0796	0.0000000E+000	0.0000000E+000	0.0000000E+000	-7.92043	0.0000000E+000	0.0000000E+000	0.0000000E+000	7.92043	7.18778	82.0796	8.62069e-07
63362.9	11.4087	1.77313	11.5457	-8.83419	147.546	0.0237446	0.00122113	1.41659	0.0334108	1	38	0.00516475	0.000447332	0	-2.56663e-06	0.085585	0.0133016	0.0866125	8.83419	33.4108	214.972	217.553	-81.1658	0.0000000E+000	0.0000000E+000	0.0000000E+000	81.1658	0.0000000E+000	0.0000000E+000	0.0000000E+000	-81.1658	0.0000000E+000	0.0000000E+000	0.0000000E+000	-8.83419	0.0000000E+000	0.0000000E+000	0.0000000E+000	8.83419	6.43421	81.1658	1.37638e-07
39971.8	11.6566	2.12991	11.8496	-10.3549	148.648	0.0237508	0.00107776	1.86942	0.0603979	1	38	0.00515397	0.00043495	0	-1.49666e-06	0.0830168	0.015169	0.0843913	10.3549	60.398	330.546	336.019	-79.6451	0.0000000E+000	0.0000000E+000	0.0000000E+000	79.6451	0.0000000E+000	0.0000000E+000	0.0000000E+000	-79.6451	0.0000000E+000	0.0000000E+000	0.0000000E+000	-10.3549	0.0000000E+000	0.0000000E+000	0.0000000E+000	10.3549	5.47281	79.6451	1.08191e-06
25219	11.9364	2.91173	12.2864	-13.7088	149.75	0.0237543	0.000573179	2.16741	0.121729	1	38	0.00509992	0.000415085	0	-1.20603e-06	0.079072	0.0192886	0.0813906	13.7088	121.729	499.017	513.65	-76.2912	0.0000000E+000	0.0000000E+000	0.0000000E+000	76.2912	0.0000000E+000	0.0000000E+000	0.0000000E+000	-76.2912	0.0000000E+000	0.0000000E+000	0.0000000E+000	-13.7088	0.0000000E+000	0.0000000E+000	0.0000000E+000	13.7088	4.09942	76.2912	2.73654e-07
15912.6	12.402	4.01523	13.0358	-17.9397	150.852	0.0237602	-0.000354067	2.49097	0.236327	1	38	0.00512244	0.000392952	0	-5.4084e-07	0.0729823	0.0236285	0.0767119	17.9397	236.327	729.954	767.257	-72.0603	0.0000000E+000	0.0000000E+000	0.0000000E+000	72.0603	0.0000000E+000	0.0000000E+000	0.0000000E+000	-72.0603	0.0000000E+000	0.0000000E+000	0.0000000E+000	-17.9397	0.0000000E+000	0.0000000E+000	0.0000000E+000	17.9397	3.08874	72.0603	4.40389e-07
10039.3	12.9342	5.57898	14.0861	-23.3323	151.954	0.0237923	0.00107776	2.84158	0.445747	1	38	0.00503499	0.000357444	0	-4.43252e-07	0.0651865	0.0281173	0.070992	23.3323	445.747	1033.41	1125.44	-66.6677	0.0000000E+000	0.0000000E+000	0.0000000E+000	66.6677	0.0000000E+000	0.0000000E+000	0.0000000E+000	-66.6677	0.0000000E+000	0.0000000E+000	0.0000000E+000	-23.3323	0.0000000E+000	0.0000000E+000	0.0000000E+000	23.3323	2.31838	66.6677	-1.70564e-07
6332.63	13.773	7.9991	15.9274	-30.1471	153.157	0.0236367	0.000604827	3.14192	0.792478	1	38	0.005465	0.000343119	0	-4.9274e-07	0.0542925	0.031532	0.0627849	30.1471	792.478	1364.51	1577.94	-59.8529	0.0000000E+000	0.0000000E+000	0.0000000E+000	59.8529	0.0000000E+000	0.0000000E+000	0.0000000E+000	-59.8529	0.0000000E+000	0.0000000E+000	0.0000000E+000	-30.1471	0.0000000E+000	0.0000000E+000	0.0000000E+000	30.1471	1.72182	59.8529	1.1895e-07
3993.72	14.9093	11.5865	18.8821	-37.8518	154.743	0.0236454	0.000967902	3.43947	1.29507	1	38	0.00500297	0.000264958	0	-1.30375e-07	0.0418173	0.0324975	0.0529601	37.8518	1295.07	1666.48	2110.53	-52.1482	0.0000000E+000	0.0000000E+000	0.0000000E+000	52.1482	0.0000000E+000	0.0000000E+000	0.0000000E+000	-52.1482	0.0000000E+000	0.0000000E+000	0.0000000E+000	-37.8518	0.0000000E+000	0.0000000E+000	0.0000000E+000	37.8518	1.28679	52.1482	3.19102e-07
2519.19	16.2989	16.7505	23.3717	-45.7829	156.11	0.0236766	0.00115782	3.77164	1.93735	1	38	0.00490891	0.000210037	0	1.80213e-08	0.0298386	0.0306654	0.0427868	45.7829	1937.35	1885.12	2703.14	-44.2171	0.0000000E+000	0.0000000E+000	0.0000000E+000	44.2171	0.0000000E+000	0.0000000E+000	0.0000000E+000	-44.2171	0.0000000E+000	0.0000000E+000	0.0000000E+000	-45.7829	0.0000000E+000	0.0000000E+000	0.0000000E+000	45.7829	0.973039	44.2171	9.71945e-08
1589.49	18.6167	24.8048	31.0139	-53.1108	157.476	0.0236388	-0.000199534	4.03669	2.58218	1	38	0.00486341	0.000156814	0	1.76465e-07	0.0193549	0.0257884	0.0322436	53.1108	2582.18	1937.99	3228.54	-36.8892	0.0000000E+000	0.0000000E+000	0.0000000E+000	36.8892	0.0000000E+000	0.0000000E+000	0.0000000E+000	-36.8892	0.0000000E+000	0.0000000E+000	0.0000000E+000	-53.1108	0.0000000E+000	0.0000000E+000	0.0000000E+000	53.1108	0.750527	36.8892	-6.22671e-08
1002.75	21.7348	36.661	42.6196	-59.338	159.099	0.023615	-0.000206163	4.32935	3.20341	1	39	0.00515946	0.000121058	0	9.13251e-08	0.0119657	0.020183	0.0234634	59.338	3203.41	1899.17	3724.07	-30.662	0.0000000E+000	0.0000000E+000	0.0000000E+000	30.662	0.0000000E+000	0.0000000E+000	0.0000000E+000	-30.662	0.0000000E+000	0.0000000E+000	0.0000000E+000	-59.338	0.0000000E+000	0.0000000E+000	0.0000000E+000	59.338	0.592859	30.662	5.21192e-08
632.773	26.5712	54.1305	60.3005	-63.8549	160.467	0.0236497	4.73113e-05	4.64654	3.74433	1	39	0.00495053	8.20977e-05	0	-5.14867e-08	0.00730752	0.0148868	0.0165836	63.8549	3744.33	1837.99	4171.11	-26.1451	0.0000000E+000	0.0000000E+000	0.0000000E+000	26.1451	0.0000000E+000	0.0000000E+000	0.0000000E+000	-26.1451	0.0000000E+000	0.0000000E+000	0.0000000E+000	-63.8549	0.0000000E+000	0.0000000E+000	0.0000000E+000	63.8549	0.490872	26.1451	-4.29652e-08
399.106	34.1993	79.1716	86.2423	-66.6374	161.839	0.0236634	0.000349804	5.03689	4.24483	1	39	0.00483449	5.60571e-05	0	7.76044e-08	0.00459808	0.0106446	0.0115952	66.6374	4244.83	1833.61	4623.93	-23.3626	0.0000000E+000	0.0000000E+000	0.0000000E+000	23.3626	0.0000000E+000	0.0000000E+000	0.0000000E+000	-23.3626	0.0000000E+000	0.0000000E+000	0.0000000E+000	-66.6374	0.0000000E+000	0.0000000E+000	0.0000000E+000	66.6374	0.431964	23.3626	8.90916e-08
251.853	43.5841	116.165	124.072	-69.4343	163.198	0.0236558	0.000113102	5.43999	4.76871	1	39	0.00477612	3.84948e-05	0	1.5358e-07	0.00283128	0.0075462	0.00805986	69.4343	4768.71	1789.18	5093.3	-20.5657	0.0000000E+000	0.0000000E+000	0.0000000E+000	20.5657	0.0000000E+000	0.0000000E+000	0.0000000E+000	-20.5657	0.0000000E+000	0.0000000E+000	0.0000000E+000	-69.4343	0.0000000E+000	0.0000000E+000	0.0000000E+000	69.4343	0.375193	20.5657	9.84049e-09
158.831	60.9693	171.418	181.938	-70.4208	164.57	0.0236772	-4.01018e-05	5.84558	5.18913	1	39	0.00476532	2.6192e-05	0	2.19944e-07	0.00184189	0.00517856	0.00549637	70.4208	5189.13	1845.65	5507.59	-19.5792	0.0000000E+000	0.0000000E+000	0.0000000E+000	19.5792	0.0000000E+000	0.0000000E+000	0.0000000E+000	-19.5792	0.0000000E+000	0.0000000E+000	0.0000000E+000	-70.4208	0.0000000E+000	0.0000000E+000	0.0000000E+000	70.4208	0.355675	19.5792	1.50422e-08
100.224	82.8374	249.755	263.134	-71.6506	166.182	0.0236624	-2.9284e-05	6.35818	5.72805	1	40	0.00481431	1.82961e-05	0	2.53465e-07	0.00119639	0.00360712	0.00380035	71.6506	5728.05	1899.85	6034.9	-18.3494	0.0000000E+000	0.0000000E+000	0.0000000E+000	18.3494	0.0000000E+000	0.0000000E+000	0.0000000E+000	-18.3494	0.0000000E+000	0.0000000E+000	0.0000000E+000	-71.6506	0.0000000E+000	0.0000000E+000	0.0000000E+000	71.6506	0.331675	18.3494	1.01289e-08
63.2394	116.595	368.064	386.09	-72.4229	167.569	0.0236728	-3.55242e-05	6.83769	6.21411	1	40	0.00478926	1.24045e-05	0	2.27889e-07	0.000782174	0.00246915	0.00259007	72.4229	6214.11	1968.5	6518.45	-17.5771	0.0000000E+000	0.0000000E+000	0.0000000E+000	17.5771	0.0000000E+000	0.0000000E+000	0.0000000E+000	-17.5771	0.0000000E+000	0.0000000E+000	0.0000000E+000	-72.4229	0.0000000E+000	0.0000000E+000	0.0000000E+000	72.4229	0.316779	17.5771	-8.86356e-09
39.8851	164.211	541.734	566.075	-73.1368	168.935	0.0236085	1.6277e-05	7.36585	6.74601	1	40	0.00478108	8.446e-06	0	2.27407e-07	0.000512453	0.00169059	0.00176655	73.1368	6746.01	2044.86	7049.12	-16.8632	0.0000000E+000	0.0000000E+000	0.0000000E+000	16.8632	0.0000000E+000	0.0000000E+000	0.0000000E+000	-16.8632	0.0000000E+000	0.0000000E+000	0.0000000E+000	-73.1368	0.0000000E+000	0.0000000E+000	0.0000000E+000	73.1368	0.303121	16.8632	4.70057e-09
25.1691	239.527	788.422	824.004	-73.1009	170.268	0.0236596	-1.79965e-05	8.02035	7.34264	1	40	0.00474443	5.75777e-06	0	2.02425e-07	0.000352774	0.00116118	0.00121359	73.1009	7342.64	2230.74	7674.02	-16.8991	0.0000000E+000	0.0000000E+000	0.0000000E+000	16.8991	0.0000000E+000	0.0000000E+000	0.0000000E+000	-16.8991	0.0000000E+000	0.0000000E+000	0.0000000E+000	-73.1009	0.0000000E+000	0.0000000E+000	0.0000000E+000	73.1009	0.303806	16.8991	-6.19689e-09
15.879	324.987	1164.28	1208.79	-74.4039	171.601	0.0236554	-3.0402e-05	8.60871	7.98645	1	40	0.00475214	3.93133e-06	0	1.90125e-07	0.000222416	0.000796816	0.000827276	74.4039	7986.45	2229.27	8291.75	-15.5961	0.0000000E+000	0.0000000E+000	0.0000000E+000	15.5961	0.0000000E+000	0.0000000E+000	0.0000000E+000	-15.5961	0.0000000E+000	0.0000000E+000	0.0000000E+000	-74.4039	0.0000000E+000	0.0000000E+000	0.0000000E+000	74.4039	0.279131	15.5961	9.60964e-09
10.016	461.889	1718.76	1779.74	-74.958	173.372	0.0236397	-1.61256e-05	9.24507	8.62237	1	41	0.00476979	2.68006e-06	0	1.35145e-07	0.000145823	0.000542629	0.000561881	74.958	8622.37	2317.13	8928.29	-15.042	0.0000000E+000	0.0000000E+000	0.0000000E+000	15.042	0.0000000E+000	0.0000000E+000	0.0000000E+000	-15.042	0.0000000E+000	0.0000000E+000	0.0000000E+000	-74.958	0.0000000E+000	0.0000000E+000	0.0000000E+000	74.958	0.268735	15.042	-1.18655e-08
6.31569	646.671	2536.77	2617.9	-75.6988	174.77	0.0236636	-2.07645e-05	9.93387	9.32772	1	41	0.00475838	1.81764e-06	0	1.44577e-07	9.43579e-05	0.000370149	0.000381986	75.6988	9327.72	2377.82	9626.03	-14.3012	0.0000000E+000	0.0000000E+000	0.0000000E+000	14.3012	0.0000000E+000	0.0000000E+000	0.0000000E+000	-14.3012	0.0000000E+000	0.0000000E+000	0.0000000E+000	-75.6988	0.0000000E+000	0.0000000E+000	0.0000000E+000	75.6988	0.254919	14.3012	-1.64091e-10
3.98597	985.367	3748.29	3875.65	-75.2711	176.291	0.023659	-1.45353e-05	10.6525	9.96394	1	41	0.00474694	1.22481e-06	0	1.2308e-07	6.56009e-05	0.000249543	0.000258021	75.2711	9963.94	2619.36	10302.5	-14.7289	0.0000000E+000	0.0000000E+000	0.0000000E+000	14.7289	0.0000000E+000	0.0000000E+000	0.0000000E+000	-14.7289	0.0000000E+000	0.0000000E+000	0.0000000E+000	-75.2711	0.0000000E+000	0.0000000E+000	0.0000000E+000	75.2711	0.262884	14.7289	-1.56761e-08
2.51368	1396.07	5563.21	5735.7	-75.9127	179.068	0.0236527	-1.862e-05	11.3811	10.7069	1	42	0.00475184	8.28467e-07	0	1.20849e-07	4.2436e-05	0.000169103	0.000174347	75.9127	10706.9	2686.86	11038.9	-14.0873	0.0000000E+000	0.0000000E+000	0.0000000E+000	14.0873	0.0000000E+000	0.0000000E+000	0.0000000E+000	-14.0873	0.0000000E+000	0.0000000E+000	0.0000000E+000	-75.9127	0.0000000E+000	0.0000000E+000	0.0000000E+000	75.9127	0.250948	14.0873	-1.67587e-08
1.5863	2039.9	8327.19	8573.41	-76.2354	182.687	0.0236474	-1.38466e-05	12.0486	11.3665	1	42	0.00475956	5.55153e-07	0	1.0221e-07	2.77525e-05	0.00011329	0.00011664	76.2354	11366.5	2784.44	11702.6	-13.7646	0.0000000E+000	0.0000000E+000	0.0000000E+000	13.7646	0.0000000E+000	0.0000000E+000	0.0000000E+000	-13.7646	0.0000000E+000	0.0000000E+000	0.0000000E+000	-76.2354	0.0000000E+000	0.0000000E+000	0.0000000E+000	76.2354	0.244969	13.7646	2.40209e-10
1.00122	3064.14	12435.2	12807.1	-76.1576	188.355	0.0236547	-1.18826e-05	12.7832	12.0515	1	42	0.00474992	3.70882e-07	0	1.01863e-07	1.86812e-05	7.58139e-05	7.80816e-05	76.1576	12051.5	2969.6	12412	-13.8424	0.0000000E+000	0.0000000E+000	0.0000000E+000	13.8424	0.0000000E+000	0.0000000E+000	0.0000000E+000	-13.8424	0.0000000E+000	0.0000000E+000	0.0000000E+000	-76.1576	0.0000000E+000	0.0000000E+000	0.0000000E+000	76.1576	0.246409	13.8424	-5.6617e-09
0.631262	4643.37	18668.9	19237.7	-76.0327	198.911	0.023657	-8.61626e-06	13.5049	12.7181	1	43	0.00475206	2.47018e-07	0	5.13415e-08	1.25466e-05	5.04444e-05	5.19813e-05	76.0327	12718.1	3163.28	13105.6	-13.9673	0.0000000E+000	0.0000000E+000	0.0000000E+000	13.9673	0.0000000E+000	0.0000000E+000	0.0000000E+000	-13.9673	0.0000000E+000	0.0000000E+000	0.0000000E+000	-76.0327	0.0000000E+000	0.0000000E+000	0.0000000E+000	76.0327	0.248722	13.9673	-3.10806e-08
0.398211	6945	28370.7	29208.3	-76.2448	212.993	0.023668	-4.34999e-06	14.0876	13.2911	1	43	0.00474441	1.62433e-07	0	2.54968e-08	8.14063e-06	3.32549e-05	3.42368e-05	76.2448	13291.1	3253.6	13683.6	-13.7552	0.0000000E+000	0.0000000E+000	0.0000000E+000	13.7552	0.0000000E+000	0.0000000E+000	0.0000000E+000	-13.7552	0.0000000E+000	0.0000000E+000	0.0000000E+000	-76.2448	0.0000000E+000	0.0000000E+000	0.0000000E+000	76.2448	0.244795	13.7552	-7.08895e-09
0.251173	10814.5	43091.3	44427.6	-75.9117	235.253	0.0236696	-1.83044e-06	14.7047	13.8334	1	43	0.00474668	1.06841e-07	0	3.19386e-08	5.47897e-06	2.18315e-05	2.25085e-05	75.9117	13833.4	3471.73	14262.4	-14.0883	0.0000000E+000	0.0000000E+000	0.0000000E+000	14.0883	0.0000000E+000	0.0000000E+000	0.0000000E+000	-14.0883	0.0000000E+000	0.0000000E+000	0.0000000E+000	-75.9117	0.0000000E+000	0.0000000E+000	0.0000000E+000	75.9117	0.250966	14.0883	4.65261e-09
0.158469	17273.5	65813.2	68042.2	-75.2937	270.474	0.0236835	4.17315e-07	15.2603	14.2768	1	43	0.00474751	6.9773e-08	0	3.1766e-08	3.73099e-06	1.42153e-05	1.46968e-05	75.2937	14276.8	3747.14	14760.4	-14.7063	0.0000000E+000	0.0000000E+000	0.0000000E+000	14.7063	0.0000000E+000	0.0000000E+000	0.0000000E+000	-14.7063	0.0000000E+000	0.0000000E+000	0.0000000E+000	-75.2937	0.0000000E+000	0.0000000E+000	0.0000000E+000	75.2937	0.262463	14.7063	-2.11414e-09
0.100022	27950.5	100902	104701	-74.5169	326.232	0.0236836	2.43676e-06	15.7698	14.646	1	43	0.0047512	4.53786e-08	0	3.38754e-08	2.54968e-06	9.20437e-06	9.55098e-06	74.5169	14646	4057.05	15197.5	-15.4831	0.0000000E+000	0.0000000E+000	0.0000000E+000	15.4831	0.0000000E+000	0.0000000E+000	0.0000000E+000	-15.4831	0.0000000E+000	0.0000000E+000	0.0000000E+000	-74.5169	0.0000000E+000	0.0000000E+000	0.0000000E+000	74.5169	0.277008	15.4831	4.81105e-09
317705	11.0154	2.28142	11.2492	-11.7012	329.681	0.0237897	-0.00297194	0.219579	0.00903147	2	38	0.00514326	0.000457212	0	-3.69013e-06	0.0870479	0.0180286	0.0888953	11.7012	9.03147	43.6068	44.5322	-78.2988	0.0000000E+000	0.0000000E+000	0.0000000E+000	78.2988	0.0000000E+000	0.0000000E+000	0.0000000E+000	-78.2988	0.0000000E+000	0.0000000E+000	0.0000000E+000	-11.7012	0.0000000E+000	0.0000000E+000	0.0000000E+000	11.7012	4.82831	78.2988	-1.12172e-06
200434	11.1075	1.77107	11.2478	-9.05943	330.783	0.0237594	-0.00226627	0.448345	0.0111159	2	38	0.0051632	0.00045904	0	-4.73696e-06	0.0877969	0.013999	0.088906	9.05943	11.1159	69.7152	70.5958	-80.9406	0.0000000E+000	0.0000000E+000	0.0000000E+000	80.9406	0.0000000E+000	0.0000000E+000	0.0000000E+000	-80.9406	0.0000000E+000	0.0000000E+000	0.0000000E+000	-9.05943	0.0000000E+000	0.0000000E+000	0.0000000E+000	9.05943	6.27164	80.9406	1.03682e-07
126447	11.1804	1.65027	11.3016	-8.39642	331.885	0.0237549	-0.00256046	0.762702	0.0162625	2	38	0.00515672	0.000456283	0	-5.81271e-06	0.0875349	0.0129204	0.0884833	8.39642	16.2625	110.177	111.371	-81.6036	0.0000000E+000	0.0000000E+000	0.0000000E+000	81.6036	0.0000000E+000	0.0000000E+000	0.0000000E+000	-81.6036	0.0000000E+000	0.0000000E+000	0.0000000E+000	-8.39642	0.0000000E+000	0.0000000E+000	0.0000000E+000	8.39642	6.77491	81.6036	-5.2409e-07
79767.3	11.3716	1.70941	11.4994	-8.54881	332.988	0.0237479	-0.00252135	1.16721	0.0257923	2	38	0.00516799	0.000449413	0	-5.78757e-06	0.0859948	0.0129269	0.086961	8.54881	25.7923	171.58	173.508	-81.4512	0.0000000E+000	0.0000000E+000	0.0000000E+000	81.4512	0.0000000E+000	0.0000000E+000	0.0000000E+000	-81.4512	0.0000000E+000	0.0000000E+000	0.0000000E+000	-8.54881	0.0000000E+000	0.0000000E+000	0.0000000E+000	8.54881	6.65239	81.4512	-2.81315e-07
50326.6	11.5333	2.16015	11.7339	-10.6084	334.09	0.0237801	-0.00282485	1.46399	0.0496161	2	38	0.00516508	0.000440184	0	-6.95813e-06	0.0837666	0.0156892	0.0852232	10.6084	49.616	264.907	269.513	-79.3916	0.0000000E+000	0.0000000E+000	0.0000000E+000	79.3916	0.0000000E+000	0.0000000E+000	0.0000000E+000	-79.3916	0.0000000E+000	0.0000000E+000	0.0000000E+000	-10.6084	0.0000000E+000	0.0000000E+000	0.0000000E+000	10.6084	5.33914	79.3916	-1.19305e-06
31751	11.7994	2.86533	12.1423	-13.6494	335.192	0.0237818	-0.00164438	1.74939	0.0974169	2	38	0.0051569	0.000424705	0	-7.50928e-06	0.0800307	0.0194345	0.0823566	13.6494	97.417	401.161	412.82	-76.3506	0.0000000E+000	0.0000000E+000	0.0000000E+000	76.3506	0.0000000E+000	0.0000000E+000	0.0000000E+000	-76.3506	0.0000000E+000	0.0000000E+000	0.0000000E+000	-13.6494	0.0000000E+000	0.0000000E+000	0.0000000E+000	13.6494	4.11798	76.3506	-7.96613e-08
20032.3	12.1778	3.98527	12.8133	-18.121	336.295	0.0237488	-0.00144516	1.99357	0.192852	2	38	0.00516086	0.000402773	0	-8.82237e-06	0.0741729	0.0242736	0.0780437	18.121	192.852	589.298	620.051	-71.879	0.0000000E+000	0.0000000E+000	0.0000000E+000	71.879	0.0000000E+000	0.0000000E+000	0.0000000E+000	-71.879	0.0000000E+000	0.0000000E+000	0.0000000E+000	-18.121	0.0000000E+000	0.0000000E+000	0.0000000E+000	18.121	3.0557	71.879	-4.87284e-07
12637.3	12.6522	5.70353	13.8783	-24.2656	337.397	0.0237935	-0.00228862	2.20811	0.372937	2	38	0.0050399	0.000363149	0	-8.63704e-06	0.0656888	0.0296122	0.0720548	24.2656	372.937	827.287	907.462	-65.7344	0.0000000E+000	0.0000000E+000	0.0000000E+000	65.7344	0.0000000E+000	0.0000000E+000	0.0000000E+000	-65.7344	0.0000000E+000	0.0000000E+000	0.0000000E+000	-24.2656	0.0000000E+000	0.0000000E+000	0.0000000E+000	24.2656	2.2183	65.7344	-9.91961e-08
7967.67	13.3392	8.21101	15.6638	-31.6146	338.443	0.0236616	-0.00212105	2.43272	0.668486	2	38	0.00519589	0.000331714	0	-9.48481e-06	0.054367	0.033466	0.0638416	31.6146	668.486	1085.99	1275.24	-58.3854	0.0000000E+000	0.0000000E+000	0.0000000E+000	58.3854	0.0000000E+000	0.0000000E+000	0.0000000E+000	-58.3854	0.0000000E+000	0.0000000E+000	0.0000000E+000	-31.6146	0.0000000E+000	0.0000000E+000	0.0000000E+000	31.6146	1.62455	58.3854	-5.20246e-07
5028.39	14.347	12.0693	18.7484	-40.0718	339.92	0.0236613	-0.00119194	2.62247	1.08678	2	38	0.00503863	0.000268749	0	-1.03981e-05	0.0408161	0.0343361	0.0533378	40.0718	1086.78	1291.88	1688.21	-49.9282	0.0000000E+000	0.0000000E+000	0.0000000E+000	49.9282	0.0000000E+000	0.0000000E+000	0.0000000E+000	-49.9282	0.0000000E+000	0.0000000E+000	0.0000000E+000	-40.0718	0.0000000E+000	0.0000000E+000	0.0000000E+000	40.0718	1.18872	49.9282	-8.23577e-07
3171.96	15.8333	17.7282	23.7694	-48.2315	341.288	0.0236307	-0.00197209	2.83027	1.57443	2	38	0.00499204	0.00021002	0	-1.10972e-05	0.0280244	0.0313783	0.0420709	48.2315	1574.43	1406.14	2110.93	-41.7685	0.0000000E+000	0.0000000E+000	0.0000000E+000	41.7685	0.0000000E+000	0.0000000E+000	0.0000000E+000	-41.7685	0.0000000E+000	0.0000000E+000	0.0000000E+000	-48.2315	0.0000000E+000	0.0000000E+000	0.0000000E+000	48.2315	0.893114	41.7685	-4.39348e-07
2001.92	17.9262	26.0357	31.6102	-55.4516	342.652	0.0236624	-0.00155875	3.05355	2.07151	2	38	0.00487935	0.00015436	0	-1.18497e-05	0.0179405	0.0260564	0.0316354	55.4516	2071.51	1426.29	2515.05	-34.5484	0.0000000E+000	0.0000000E+000	0.0000000E+000	34.5484	0.0000000E+000	0.0000000E+000	0.0000000E+000	-34.5484	0.0000000E+000	0.0000000E+000	0.0000000E+000	-55.4516	0.0000000E+000	0.0000000E+000	0.0000000E+000	55.4516	0.688526	34.5484	-2.93352e-07
1262.98	21.4073	38.6714	44.2012	-61.0324	344.274	0.0236341	-0.000268041	3.25863	2.49428	2	39	0.00528572	0.000119583	0	-1.23224e-05	0.010957	0.0197934	0.0226238	61.0324	2494.28	1380.76	2850.95	-28.9676	0.0000000E+000	0.0000000E+000	0.0000000E+000	28.9676	0.0000000E+000	0.0000000E+000	0.0000000E+000	-28.9676	0.0000000E+000	0.0000000E+000	0.0000000E+000	-61.0324	0.0000000E+000	0.0000000E+000	0.0000000E+000	61.0324	0.55357	28.9676	-7.349e-08
796.787	25.8972	56.6052	62.248	-65.4157	345.64	0.0236481	-0.000286494	3.52875	2.91799	2	39	0.00497999	8.00023e-05	0	-1.24428e-05	0.00668346	0.0146085	0.0160648	65.4157	2917.99	1334.99	3208.87	-24.5843	0.0000000E+000	0.0000000E+000	0.0000000E+000	24.5843	0.0000000E+000	0.0000000E+000	0.0000000E+000	-24.5843	0.0000000E+000	0.0000000E+000	0.0000000E+000	-65.4157	0.0000000E+000	0.0000000E+000	0.0000000E+000	65.4157	0.457505	24.5843	-5.18936e-09
502.588	33.5374	83.3369	89.832	-68.0786	347.012	0.0236643	0.000212629	3.79989	3.27027	2	39	0.00485946	5.40949e-05	0	-1.24457e-05	0.00415592	0.010327	0.0111319	68.0786	3270.27	1316.06	3525.15	-21.9214	0.0000000E+000	0.0000000E+000	0.0000000E+000	21.9214	0.0000000E+000	0.0000000E+000	0.0000000E+000	-21.9214	0.0000000E+000	0.0000000E+000	0.0000000E+000	-68.0786	0.0000000E+000	0.0000000E+000	0.0000000E+000	68.0786	0.402431	21.9214	2.65488e-08
316.927	44.5936	121.981	129.877	-69.9187	348.376	0.0236696	-2.64959e-05	4.11689	3.63154	2	39	0.00479708	3.69357e-05	0	-1.24412e-05	0.00264369	0.00723153	0.00769961	69.9187	3631.54	1327.61	3866.61	-20.0813	0.0000000E+000	0.0000000E+000	0.0000000E+000	20.0813	0.0000000E+000	0.0000000E+000	0.0000000E+000	-20.0813	0.0000000E+000	0.0000000E+000	0.0000000E+000	-69.9187	0.0000000E+000	0.0000000E+000	0.0000000E+000	69.9187	0.365578	20.0813	9.50148e-09
199.936	60.129	176.752	186.7	-71.2123	349.739	0.0237023	-6.80587e-05	4.50365	4.03651	2	39	0.00474898	2.54365e-05	0	-1.24549e-05	0.00172503	0.00507081	0.0053562	71.2123	4036.51	1373.17	4263.69	-18.7877	0.0000000E+000	0.0000000E+000	0.0000000E+000	18.7877	0.0000000E+000	0.0000000E+000	0.0000000E+000	-18.7877	0.0000000E+000	0.0000000E+000	0.0000000E+000	-71.2123	0.0000000E+000	0.0000000E+000	0.0000000E+000	71.2123	0.340189	18.7877	1.745e-08
126.171	86.5073	262.063	275.972	-71.7319	351.357	0.0236896	-3.56033e-06	4.81343	4.34047	2	40	0.00487903	1.76794e-05	0	-1.25203e-05	0.00113586	0.00344093	0.00362356	71.7319	4340.47	1432.79	4570.84	-18.2681	0.0000000E+000	0.0000000E+000	0.0000000E+000	18.2681	0.0000000E+000	0.0000000E+000	0.0000000E+000	-18.2681	0.0000000E+000	0.0000000E+000	0.0000000E+000	-71.7319	0.0000000E+000	0.0000000E+000	0.0000000E+000	71.7319	0.330102	18.2681	-1.13557e-08
79.6177	121.28	380.232	399.106	-72.3092	352.726	0.0236958	-5.97204e-05	5.25729	4.77182	2	40	0.00479757	1.20208e-05	0	-1.25069e-05	0.000761403	0.00238711	0.0025056	72.3092	4771.82	1522.04	5008.68	-17.6908	0.0000000E+000	0.0000000E+000	0.0000000E+000	17.6908	0.0000000E+000	0.0000000E+000	0.0000000E+000	-17.6908	0.0000000E+000	0.0000000E+000	0.0000000E+000	-72.3092	0.0000000E+000	0.0000000E+000	0.0000000E+000	72.3092	0.318964	17.6908	7.84709e-09
50.2089	170.637	556.1	581.691	-72.9416	354.107	0.0236736	1.35686e-06	5.70016	5.20965	2	40	0.00478512	8.22623e-06	0	-1.25108e-05	0.000504299	0.0016435	0.00171913	72.9416	5209.65	1598.56	5449.39	-17.0584	0.0000000E+000	0.0000000E+000	0.0000000E+000	17.0584	0.0000000E+000	0.0000000E+000	0.0000000E+000	-17.0584	0.0000000E+000	0.0000000E+000	0.0000000E+000	-72.9416	0.0000000E+000	0.0000000E+000	0.0000000E+000	72.9416	0.306845	17.0584	-7.2994e-09
31.6723	249.315	807.769	845.368	-72.8474	355.444	0.0236971	-2.40688e-05	6.22091	5.67984	2	40	0.00475639	5.62641e-06	0	-1.25075e-05	0.000348864	0.0011303	0.00118292	72.8474	5679.84	1753.06	5944.22	-17.1526	0.0000000E+000	0.0000000E+000	0.0000000E+000	17.1526	0.0000000E+000	0.0000000E+000	0.0000000E+000	-17.1526	0.0000000E+000	0.0000000E+000	0.0000000E+000	-72.8474	0.0000000E+000	0.0000000E+000	0.0000000E+000	72.8474	0.308646	17.1526	1.18671e-08
19.9808	346.54	1175.39	1225.41	-73.5729	356.808	0.0236578	-1.96916e-05	6.77678	6.23483	2	40	0.00473817	3.86658e-06	0	-1.24879e-05	0.000230775	0.00078274	0.000816051	73.5729	6234.83	1838.21	6500.16	-16.4271	0.0000000E+000	0.0000000E+000	0.0000000E+000	16.4271	0.0000000E+000	0.0000000E+000	0.0000000E+000	-16.4271	0.0000000E+000	0.0000000E+000	0.0000000E+000	-73.5729	0.0000000E+000	0.0000000E+000	0.0000000E+000	73.5729	0.294829	16.4271	1.38828e-08
12.6144	501.376	1722.28	1793.77	-73.7691	358.498	0.023679	3.63949e-06	7.32576	6.75343	2	41	0.00475902	2.65308e-06	0	-1.24961e-05	0.000155822	0.000535265	0.000557485	73.7691	6753.42	1966.01	7033.77	-16.2309	0.0000000E+000	0.0000000E+000	0.0000000E+000	16.2309	0.0000000E+000	0.0000000E+000	0.0000000E+000	-16.2309	0.0000000E+000	0.0000000E+000	0.0000000E+000	-73.7691	0.0000000E+000	0.0000000E+000	0.0000000E+000	73.7691	0.291113	16.231	9.69931e-10
7.95573	711.001	2528.63	2626.69	-74.2951	360.022	0.0236855	3.22047e-06	7.91142	7.33176	2	41	0.00475235	1.80925e-06	0	-1.24866e-05	0.000103051	0.000366495	0.000380707	74.2951	7331.76	2061.55	7616.08	-15.7049	0.0000000E+000	0.0000000E+000	0.0000000E+000	15.7049	0.0000000E+000	0.0000000E+000	0.0000000E+000	-15.7049	0.0000000E+000	0.0000000E+000	0.0000000E+000	-74.2951	0.0000000E+000	0.0000000E+000	0.0000000E+000	74.2951	0.28118	15.7049	-1.42495e-09
5.01766	1018.63	3761.74	3897.21	-74.8484	361.261	0.0236847	1.77254e-06	8.432	7.85595	2	41	0.00478237	1.22713e-06	0	-1.24863e-05	6.70671e-05	0.000247674	0.000256594	74.8484	7855.95	2127.3	8138.88	-15.1516	0.0000000E+000	0.0000000E+000	0.0000000E+000	15.1516	0.0000000E+000	0.0000000E+000	0.0000000E+000	-15.1516	0.0000000E+000	0.0000000E+000	0.0000000E+000	-74.8484	0.0000000E+000	0.0000000E+000	0.0000000E+000	74.8484	0.270788	15.1516	1.25497e-08
3.16552	1392.43	5481.22	5655.32	-75.7463	363.137	0.0236982	2.13753e-06	9.17271	8.61665	2	41	0.00476014	8.41711e-07	0	-1.24998e-05	4.3537e-05	0.000171381	0.000176825	75.7463	8616.65	2188.94	8890.33	-14.2537	0.0000000E+000	0.0000000E+000	0.0000000E+000	14.2537	0.0000000E+000	0.0000000E+000	0.0000000E+000	-14.2537	0.0000000E+000	0.0000000E+000	0.0000000E+000	-75.7463	0.0000000E+000	0.0000000E+000	0.0000000E+000	75.7463	0.254036	14.2537	-1.41252e-08
1.99706	2026.3	8113.78	8362.97	-75.978	366.484	0.0236835	2.71824e-06	9.82213	9.24551	2	42	0.00474146	5.66958e-07	0	-1.24811e-05	2.89723e-05	0.000116012	0.000119575	75.978	9245.51	2308.94	9529.46	-14.022	0.0000000E+000	0.0000000E+000	0.0000000E+000	14.022	0.0000000E+000	0.0000000E+000	0.0000000E+000	-14.022	0.0000000E+000	0.0000000E+000	0.0000000E+000	-75.978	0.0000000E+000	0.0000000E+000	0.0000000E+000	75.978	0.249736	14.022	3.98899e-09
1.25968	2951.78	12058.8	12414.9	-76.2455	371.009	0.023679	3.23147e-06	10.4774	9.88515	2	42	0.00475163	3.82738e-07	0	-1.24987e-05	1.91514e-05	7.82388e-05	8.05487e-05	76.2455	9885.15	2419.7	10177	-13.7545	0.0000000E+000	0.0000000E+000	0.0000000E+000	13.7545	0.0000000E+000	0.0000000E+000	0.0000000E+000	-13.7545	0.0000000E+000	0.0000000E+000	0.0000000E+000	-76.2455	0.0000000E+000	0.0000000E+000	0.0000000E+000	76.2455	0.244781	13.7545	-7.25138e-09
0.794441	4319.53	17951	18463.4	-76.4702	379.425	0.0236757	3.14898e-06	11.1602	10.5493	2	43	0.00475275	2.57415e-07	0	-1.24774e-05	1.26711e-05	5.26582e-05	5.41613e-05	76.4702	10549.3	2538.48	10850.4	-13.5298	0.0000000E+000	0.0000000E+000	0.0000000E+000	13.5298	0.0000000E+000	0.0000000E+000	0.0000000E+000	-13.5298	0.0000000E+000	0.0000000E+000	0.0000000E+000	-76.4702	0.0000000E+000	0.0000000E+000	0.0000000E+000	76.4702	0.240629	13.5298	1.64321e-08
0.501187	6442.21	26801.8	27565.2	-76.4845	390.631	0.0236803	2.86664e-06	11.8483	11.2011	2	43	0.00475263	1.72414e-07	0	-1.24593e-05	8.47837e-06	3.5273e-05	3.62776e-05	76.4845	11201.1	2692.36	11520.2	-13.5155	0.0000000E+000	0.0000000E+000	0.0000000E+000	13.5155	0.0000000E+000	0.0000000E+000	0.0000000E+000	-13.5155	0.0000000E+000	0.0000000E+000	0.0000000E+000	-76.4845	0.0000000E+000	0.0000000E+000	0.0000000E+000	76.4845	0.240365	13.5155	4.8844e-09
0.316193	9797.64	39949.5	41133.4	-76.2202	408.331	0.0236885	2.50842e-06	12.5996	11.8848	2	43	0.00475	1.15478e-07	0	-1.24655e-05	5.79072e-06	2.36114e-05	2.43111e-05	76.2202	11884.8	2914.74	12237	-13.7798	0.0000000E+000	0.0000000E+000	0.0000000E+000	13.7798	0.0000000E+000	0.0000000E+000	0.0000000E+000	-13.7798	0.0000000E+000	0.0000000E+000	0.0000000E+000	-76.2202	0.0000000E+000	0.0000000E+000	0.0000000E+000	76.2202	0.245251	13.7798	-3.65008e-09
0.199573	14937.9	60031.1	61861.8	-76.0265	436.324	0.0236996	3.0103e-06	13.2844	12.5098	2	43	0.00475031	7.67891e-08	0	-1.24517e-05	3.90342e-06	1.56867e-05	1.61651e-05	76.0265	12509.8	3112.88	12891.2	-13.9735	0.0000000E+000	0.0000000E+000	0.0000000E+000	13.9735	0.0000000E+000	0.0000000E+000	0.0000000E+000	-13.9735	0.0000000E+000	0.0000000E+000	0.0000000E+000	-76.0265	0.0000000E+000	0.0000000E+000	0.0000000E+000	76.0265	0.248836	13.9735	1.27786e-08
0.125907	23506.3	90032.3	93050.3	-75.3674	480.641	0.0236879	3.45066e-06	14.0402	13.1442	2	43	0.00475514	5.11029e-08	0	-1.23899e-05	2.71487e-06	1.03983e-05	1.07469e-05	75.3674	13144.2	3431.78	13584.8	-14.6326	0.0000000E+000	0.0000000E+000	0.0000000E+000	14.6326	0.0000000E+000	0.0000000E+000	0.0000000E+000	-14.6326	0.0000000E+000	0.0000000E+000	0.0000000E+000	-75.3674	0.0000000E+000	0.0000000E+000	0.0000000E+000	75.3674	0.261087	14.6326	3.56115e-08
399996	10.9737	2.73304	11.3089	-13.9853	514.606	0.0237737	-0.0125032	0.145585	0.00850299	3	38	0.0049532	0.000437992	0	-1.59808e-05	0.0858049	0.0213701	0.0884261	13.9853	8.50299	34.141	35.1839	-76.0147	0.0000000E+000	0.0000000E+000	0.0000000E+000	76.0147	0.0000000E+000	0.0000000E+000	0.0000000E+000	-76.0147	0.0000000E+000	0.0000000E+000	0.0000000E+000	-13.9853	0.0000000E+000	0.0000000E+000	0.0000000E+000	13.9853	4.01518	76.0147	-3.62922e-06
252347	11.1047	2.03565	11.2898	-10.3877	515.708	0.0237776	-0.00361617	0.309827	0.0100728	3	38	0.00520113	0.000460694	0	-1.80497e-05	0.0871239	0.015971	0.0885757	10.3877	10.0728	54.9488	55.8644	-79.6123	0.0000000E+000	0.0000000E+000	0.0000000E+000	79.6123	0.0000000E+000	0.0000000E+000	0.0000000E+000	-79.6123	0.0000000E+000	0.0000000E+000	0.0000000E+000	-10.3877	0.0000000E+000	0.0000000E+000	0.0000000E+000	10.3877	5.45515	79.6123	-9.9178e-07
159201	11.1888	1.69008	11.3157	-8.58967	516.811	0.0237819	-0.00315069	0.591517	0.0131953	3	38	0.00518073	0.000457835	0	-1.83887e-05	0.0873814	0.0131991	0.0883727	8.58967	13.1953	87.3564	88.3473	-81.4103	0.0000000E+000	0.0000000E+000	0.0000000E+000	81.4103	0.0000000E+000	0.0000000E+000	0.0000000E+000	-81.4103	0.0000000E+000	0.0000000E+000	0.0000000E+000	-8.58967	0.0000000E+000	0.0000000E+000	0.0000000E+000	8.58967	6.62026	81.4103	-1.27888e-07
100431	11.2749	1.73209	11.4071	-8.73373	517.913	0.0237823	-0.00278389	0.914922	0.0210946	3	38	0.00514956	0.000451433	0	-1.83353e-05	0.086648	0.0133112	0.0876645	8.73373	21.0946	137.313	138.924	-81.2663	0.0000000E+000	0.0000000E+000	0.0000000E+000	81.2663	0.0000000E+000	0.0000000E+000	0.0000000E+000	-81.2663	0.0000000E+000	0.0000000E+000	0.0000000E+000	-8.73373	0.0000000E+000	0.0000000E+000	0.0000000E+000	8.73373	6.5094	81.2663	2.97356e-07
63362.9	11.4408	1.9833	11.6114	-9.8347	519.015	0.0237722	-0.00278389	1.26648	0.0369492	3	38	0.00518936	0.00044692	0	-1.97343e-05	0.0848568	0.0147102	0.0861224	9.8347	36.9492	213.143	216.322	-80.1653	0.0000000E+000	0.0000000E+000	0.0000000E+000	80.1653	0.0000000E+000	0.0000000E+000	0.0000000E+000	-80.1653	0.0000000E+000	0.0000000E+000	0.0000000E+000	-9.8347	0.0000000E+000	0.0000000E+000	0.0000000E+000	9.8347	5.76855	80.1653	-8.66371e-07
39971.8	11.7014	2.59601	11.9859	-12.5087	520.118	0.0237811	-0.00281182	1.53377	0.0719499	3	38	0.00520054	0.000433888	0	-1.95324e-05	0.0814509	0.0180702	0.0834313	12.5087	71.9499	324.311	332.197	-77.4913	0.0000000E+000	0.0000000E+000	0.0000000E+000	77.4913	0.0000000E+000	0.0000000E+000	0.0000000E+000	-77.4913	0.0000000E+000	0.0000000E+000	0.0000000E+000	-12.5087	0.0000000E+000	0.0000000E+000	0.0000000E+000	12.5087	4.50746	77.4913	-1.30861e-07
25219	12.0332	3.56271	12.5495	-16.4927	521.221	0.0237751	-0.00247853	1.77138	0.142765	3	38	0.00519599	0.000414039	0	-2.06806e-05	0.0764059	0.0226218	0.0796844	16.4927	142.765	482.192	502.882	-73.5073	0.0000000E+000	0.0000000E+000	0.0000000E+000	73.5073	0.0000000E+000	0.0000000E+000	0.0000000E+000	-73.5073	0.0000000E+000	0.0000000E+000	0.0000000E+000	-16.4927	0.0000000E+000	0.0000000E+000	0.0000000E+000	16.4927	3.37753	73.5073	-1.61225e-07
15912.6	12.4423	5.01022	13.4131	-21.9336	522.323	0.0237696	-0.00323634	1.99628	0.278532	3	38	0.00514584	0.000383642	0	-2.12915e-05	0.0691574	0.0278482	0.0745538	21.9336	278.532	691.698	745.672	-68.0664	0.0000000E+000	0.0000000E+000	0.0000000E+000	68.0664	0.0000000E+000	0.0000000E+000	0.0000000E+000	-68.0664	0.0000000E+000	0.0000000E+000	0.0000000E+000	-21.9336	0.0000000E+000	0.0000000E+000	0.0000000E+000	21.9336	2.48337	68.0664	8.8422e-08
10039.3	13.0473	7.20866	14.9062	-28.9208	523.426	0.0237542	-0.00256232	2.19918	0.51432	3	38	0.00504928	0.000338736	0	-2.17732e-05	0.0587196	0.0324428	0.067086	28.9208	514.32	930.89	1063.52	-61.0792	0.0000000E+000	0.0000000E+000	0.0000000E+000	61.0792	0.0000000E+000	0.0000000E+000	0.0000000E+000	-61.0792	0.0000000E+000	0.0000000E+000	0.0000000E+000	-28.9208	0.0000000E+000	0.0000000E+000	0.0000000E+000	28.9208	1.80994	61.0792	-6.67254e-07
6332.63	13.8255	10.594	17.4177	-37.4617	524.629	0.0236568	-0.00279879	2.37234	0.877635	3	38	0.00530375	0.000304504	0	-2.28241e-05	0.0455721	0.0349203	0.0574129	37.4617	877.635	1145.34	1442.93	-52.5383	0.0000000E+000	0.0000000E+000	0.0000000E+000	52.5383	0.0000000E+000	0.0000000E+000	0.0000000E+000	-52.5383	0.0000000E+000	0.0000000E+000	0.0000000E+000	-37.4617	0.0000000E+000	0.0000000E+000	0.0000000E+000	37.4617	1.30503	52.5383	-2.56105e-07
3993.72	15.0614	15.6971	21.7541	-46.184	525.994	0.0236596	-0.00308553	2.53877	1.32183	3	38	0.00536607	0.000246669	0	-2.4051e-05	0.0318259	0.0331692	0.0459682	46.184	1321.83	1268.3	1831.89	-43.816	0.0000000E+000	0.0000000E+000	0.0000000E+000	43.816	0.0000000E+000	0.0000000E+000	0.0000000E+000	-43.816	0.0000000E+000	0.0000000E+000	0.0000000E+000	-46.184	0.0000000E+000	0.0000000E+000	0.0000000E+000	46.184	0.959502	43.816	-7.39981e-07
2519.19	16.9457	23.3549	28.855	-54.0363	527.362	0.0236443	-0.00381727	2.70508	1.77213	3	38	0.00526933	0.000182614	0	-2.53245e-05	0.0203525	0.0280502	0.034656	54.0363	1772.13	1285.81	2189.46	-35.9637	0.0000000E+000	0.0000000E+000	0.0000000E+000	35.9637	0.0000000E+000	0.0000000E+000	0.0000000E+000	-35.9637	0.0000000E+000	0.0000000E+000	0.0000000E+000	-54.0363	0.0000000E+000	0.0000000E+000	0.0000000E+000	54.0363	0.725574	35.9637	-6.30796e-07
1589.49	19.6133	34.2997	39.5114	-60.2381	529.203	0.0236195	-0.000283324	2.91925	2.19992	3	39	0.00511972	0.000129576	0	-2.64651e-05	0.0125634	0.0219708	0.0253092	60.2381	2199.92	1257.97	2534.19	-29.7619	0.0000000E+000	0.0000000E+000	0.0000000E+000	29.7619	0.0000000E+000	0.0000000E+000	0.0000000E+000	-29.7619	0.0000000E+000	0.0000000E+000	0.0000000E+000	-60.2381	0.0000000E+000	0.0000000E+000	0.0000000E+000	60.2381	0.571823	29.7619	-5.2578e-07
1002.75	24.3391	51.0841	56.586	-64.5245	530.573	0.0236268	-0.000408199	3.107	2.53218	3	39	0.00477915	8.44582e-05	0	-2.67147e-05	0.00760127	0.0159539	0.0176722	64.5245	2532.18	1206.46	2804.9	-25.4755	0.0000000E+000	0.0000000E+000	0.0000000E+000	25.4755	0.0000000E+000	0.0000000E+000	0.0000000E+000	-25.4755	0.0000000E+000	0.0000000E+000	0.0000000E+000	-64.5245	0.0000000E+000	0.0000000E+000	0.0000000E+000	64.5245	0.476451	25.4755	-1.0779e-07
632.773	30.379	75.2125	81.116	-68.0057	531.941	0.0236564	6.87444e-05	3.34413	2.87508	3	39	0.00460747	5.6801e-05	0	-2.67136e-05	0.00461701	0.0114308	0.012328	68.0057	2875.08	1161.27	3100.75	-21.9943	0.0000000E+000	0.0000000E+000	0.0000000E+000	21.9943	0.0000000E+000	0.0000000E+000	0.0000000E+000	-21.9943	0.0000000E+000	0.0000000E+000	0.0000000E+000	-68.0057	0.0000000E+000	0.0000000E+000	0.0000000E+000	68.0057	0.40391	21.9943	2.39694e-08
399.106	41.0422	110.029	117.434	-69.5438	533.536	0.0236809	-0.00016218	3.62432	3.18163	3	39	0.0049705	4.23258e-05	0	-2.67892e-05	0.00297606	0.00797843	0.00851541	69.5438	3181.63	1186.79	3395.77	-20.4562	0.0000000E+000	0.0000000E+000	0.0000000E+000	20.4562	0.0000000E+000	0.0000000E+000	0.0000000E+000	-20.4562	0.0000000E+000	0.0000000E+000	0.0000000E+000	-69.5438	0.0000000E+000	0.0000000E+000	0.0000000E+000	69.5438	0.373014	20.4562	-2.12309e-08
251.853	54.9049	160.883	169.994	-71.1567	534.894	0.0236731	3.72456e-05	3.92791	3.51816	3	39	0.00492676	2.8982e-05	0	-2.6867e-05	0.00189996	0.00556729	0.00588256	71.1567	3518.16	1200.65	3717.4	-18.8433	0.0000000E+000	0.0000000E+000	0.0000000E+000	18.8433	0.0000000E+000	0.0000000E+000	0.0000000E+000	-18.8433	0.0000000E+000	0.0000000E+000	0.0000000E+000	-71.1567	0.0000000E+000	0.0000000E+000	0.0000000E+000	71.1567	0.341272	18.8433	-3.87528e-08
158.831	76.7608	236.341	248.494	-72.0068	536.52	0.0236661	1.62587e-05	4.23982	3.83525	3	40	0.00507235	2.04124e-05	0	-2.68427e-05	0.00124311	0.00382743	0.00402425	72.0068	3835.25	1245.65	4032.46	-17.9932	0.0000000E+000	0.0000000E+000	0.0000000E+000	17.9932	0.0000000E+000	0.0000000E+000	0.0000000E+000	-17.9932	0.0000000E+000	0.0000000E+000	0.0000000E+000	-72.0068	0.0000000E+000	0.0000000E+000	0.0000000E+000	72.0068	0.324789	17.9932	-6.88154e-09
100.224	109.802	343.623	360.74	-72.2792	537.879	0.0236708	2.4268e-05	4.6213	4.19315	3	40	0.00496364	1.37596e-05	0	-2.68394e-05	0.000843764	0.00264055	0.00277208	72.2792	4193.15	1339.88	4402.02	-17.7208	0.0000000E+000	0.0000000E+000	0.0000000E+000	17.7208	0.0000000E+000	0.0000000E+000	0.0000000E+000	-17.7208	0.0000000E+000	0.0000000E+000	0.0000000E+000	-72.2792	0.0000000E+000	0.0000000E+000	0.0000000E+000	72.2792	0.319542	17.7208	6.3983e-09
63.2394	155.986	499.716	523.496	-72.6642	539.267	0.0236764	1.27193e-05	5.03627	4.58912	3	40	0.00493177	9.42084e-06	0	-2.68424e-05	0.000569194	0.00182346	0.00191023	72.6642	4589.12	1432.49	4807.5	-17.3358	0.0000000E+000	0.0000000E+000	0.0000000E+000	17.3358	0.0000000E+000	0.0000000E+000	0.0000000E+000	-17.3358	0.0000000E+000	0.0000000E+000	0.0000000E+000	-72.6642	0.0000000E+000	0.0000000E+000	0.0000000E+000	72.6642	0.31215	17.3358	4.87355e-10
39.8851	218.238	731.295	763.165	-73.3835	540.632	0.023676	2.19022e-05	5.45653	5.01032	3	40	0.00493859	6.4712e-06	0	-2.68395e-05	0.000374709	0.00125561	0.00131033	73.3835	5010.32	1495.22	5228.67	-16.6165	0.0000000E+000	0.0000000E+000	0.0000000E+000	16.6165	0.0000000E+000	0.0000000E+000	0.0000000E+000	-16.6165	0.0000000E+000	0.0000000E+000	0.0000000E+000	-73.3835	0.0000000E+000	0.0000000E+000	0.0000000E+000	73.3835	0.298427	16.6165	-6.13006e-09
25.1691	320.17	1065.02	1112.1	-73.268	541.965	0.0236671	3.22028e-05	5.93738	5.44527	3	40	0.00491993	4.42398e-06	0	-2.68382e-05	0.000258875	0.000861127	0.000899197	73.268	5445.27	1636.98	5686.01	-16.732	0.0000000E+000	0.0000000E+000	0.0000000E+000	16.732	0.0000000E+000	0.0000000E+000	0.0000000E+000	-16.732	0.0000000E+000	0.0000000E+000	0.0000000E+000	-73.268	0.0000000E+000	0.0000000E+000	0.0000000E+000	73.268	0.300624	16.732	5.66948e-10
15.879	448.416	1554.53	1617.92	-73.9094	543.542	0.02368	1.46893e-05	6.44756	5.95229	3	41	0.00493066	3.04754e-06	0	-2.68114e-05	0.000171305	0.000593866	0.000618079	73.9094	5952.29	1716.98	6194.98	-16.0906	0.0000000E+000	0.0000000E+000	0.0000000E+000	16.0906	0.0000000E+000	0.0000000E+000	0.0000000E+000	-16.0906	0.0000000E+000	0.0000000E+000	0.0000000E+000	-73.9094	0.0000000E+000	0.0000000E+000	0.0000000E+000	73.9094	0.288457	16.0906	1.71529e-08
10.016	661.527	2267.26	2361.8	-73.7341	545.023	0.0236971	5.06691e-06	7.00847	6.45863	3	41	0.0049134	2.08037e-06	0	-2.68076e-05	0.000118594	0.000406459	0.000423407	73.7341	6458.63	1884.46	6727.94	-16.2659	0.0000000E+000	0.0000000E+000	0.0000000E+000	16.2659	0.0000000E+000	0.0000000E+000	0.0000000E+000	-16.2659	0.0000000E+000	0.0000000E+000	0.0000000E+000	-73.7341	0.0000000E+000	0.0000000E+000	0.0000000E+000	73.7341	0.291774	16.2659	1.99336e-09
6.31569	935.668	3328.58	3457.59	-74.2993	546.421	0.0236679	7.82489e-06	7.57077	7.01635	3	41	0.00490551	1.41876e-06	0	-2.68006e-05	7.82662e-05	0.000278427	0.000289219	74.2993	7016.36	1972.3	7288.29	-15.7007	0.0000000E+000	0.0000000E+000	0.0000000E+000	15.7007	0.0000000E+000	0.0000000E+000	0.0000000E+000	-15.7007	0.0000000E+000	0.0000000E+000	0.0000000E+000	-74.2993	0.0000000E+000	0.0000000E+000	0.0000000E+000	74.2993	0.281101	15.7007	-1.05636e-08
3.98597	1310.25	4889.05	5061.58	-74.9975	547.941	0.023673	8.51485e-06	8.16698	7.61972	3	41	0.00489846	9.67774e-07	0	-2.68022e-05	5.11424e-05	0.000190833	0.000197567	74.9975	7619.72	2042.06	7888.6	-15.0025	0.0000000E+000	0.0000000E+000	0.0000000E+000	15.0025	0.0000000E+000	0.0000000E+000	0.0000000E+000	-15.0025	0.0000000E+000	0.0000000E+000	0.0000000E+000	-74.9975	0.0000000E+000	0.0000000E+000	0.0000000E+000	74.9975	0.267996	15.0025	-1.54342e-08
2.51368	1865.23	7194.28	7432.14	-75.4652	550.718	0.0236748	3.73467e-06	8.80083	8.24651	3	42	0.00489735	6.58943e-07	0	-2.67837e-05	3.37679e-05	0.000130245	0.000134551	75.4652	8246.51	2138.04	8519.16	-14.5348	0.0000000E+000	0.0000000E+000	0.0000000E+000	14.5348	0.0000000E+000	0.0000000E+000	0.0000000E+000	-14.5348	0.0000000E+000	0.0000000E+000	0.0000000E+000	-75.4652	0.0000000E+000	0.0000000E+000	0.0000000E+000	75.4652	0.259266	14.5348	6.96479e-09
1.5863	2724.89	10655.2	10998.1	-75.655	554.336	0.0236814	4.26326e-06	9.41617	8.83815	3	42	0.00489965	4.45499e-07	0	-2.67965e-05	2.25275e-05	8.80898e-05	9.09247e-05	75.655	8838.15	2260.21	9122.58	-14.345	0.0000000E+000	0.0000000E+000	0.0000000E+000	14.345	0.0000000E+000	0.0000000E+000	0.0000000E+000	-14.345	0.0000000E+000	0.0000000E+000	0.0000000E+000	-75.655	0.0000000E+000	0.0000000E+000	0.0000000E+000	75.655	0.255733	14.345	-1.00868e-09
1.00122	3906.15	15806.2	16281.7	-76.1187	561.051	0.0236948	3.85113e-06	10.0569	9.47807	3	43	0.00490844	3.0147e-07	0	-2.67686e-05	1.4735e-05	5.96249e-05	6.14187e-05	76.1187	9478.07	2342.3	9763.21	-13.8813	0.0000000E+000	0.0000000E+000	0.0000000E+000	13.8813	0.0000000E+000	0.0000000E+000	0.0000000E+000	-13.8813	0.0000000E+000	0.0000000E+000	0.0000000E+000	-76.1187	0.0000000E+000	0.0000000E+000	0.0000000E+000	76.1187	0.247128	13.8813	1.56847e-08
0.631262	5694.23	23413.1	24095.6	-76.3307	569.972	0.023671	2.91165e-06	10.7684	10.167	3	43	0.00490329	2.03493e-07	0	-2.67698e-05	9.8075e-06	4.03258e-05	4.15013e-05	76.3307	10167	2472.68	10463.4	-13.6693	0.0000000E+000	0.0000000E+000	0.0000000E+000	13.6693	0.0000000E+000	0.0000000E+000	0.0000000E+000	-13.6693	0.0000000E+000	0.0000000E+000	0.0000000E+000	-76.3307	0.0000000E+000	0.0000000E+000	0.0000000E+000	76.3307	0.243206	13.6693	-4.50805e-09
0.398211	8557.28	34983.4	36014.8	-76.2548	584.051	0.0236715	3.70218e-06	11.4247	10.7797	3	43	0.00489836	1.36009e-07	0	-2.67714e-05	6.5974e-06	2.69712e-05	2.77663e-05	76.2548	10779.7	2636.82	11097.5	-13.7452	0.0000000E+000	0.0000000E+000	0.0000000E+000	13.7452	0.0000000E+000	0.0000000E+000	0.0000000E+000	-13.7452	0.0000000E+000	0.0000000E+000	0.0000000E+000	-76.2548	0.0000000E+000	0.0000000E+000	0.0000000E+000	76.2548	0.24461	13.7452	3.12223e-09
0.251173	12923.9	52102.4	53681.3	-76.069	606.313	0.0236786	3.82887e-06	12.1616	11.4567	3	43	0.00490456	9.13643e-08	0	-2.67343e-05	4.48486e-06	1.80805e-05	1.86285e-05	76.069	11456.7	2841.81	11803.8	-13.931	0.0000000E+000	0.0000000E+000	0.0000000E+000	13.931	0.0000000E+000	0.0000000E+000	0.0000000E+000	-13.931	0.0000000E+000	0.0000000E+000	0.0000000E+000	-76.069	0.0000000E+000	0.0000000E+000	0.0000000E+000	76.069	0.248049	13.931	2.30216e-08
0.158469	19964.7	77708.5	80232.2	-75.5913	641.534	0.0236579	4.09747e-06	12.9243	12.1241	3	43	0.0048983	6.10515e-08	0	-2.66785e-05	3.10145e-06	1.20718e-05	1.24638e-05	75.5913	12124.1	3114.88	12517.8	-14.4087	0.0000000E+000	0.0000000E+000	0.0000000E+000	14.4087	0.0000000E+000	0.0000000E+000	0.0000000E+000	-14.4087	0.0000000E+000	0.0000000E+000	0.0000000E+000	-75.5913	0.0000000E+000	0.0000000E+000	0.0000000E+000	75.5913	0.256917	14.4087	2.81369e-08
0.100022	31237.2	116004	120136	-74.9291	697.293	0.0236752	4.03424e-06	13.7168	12.7894	3	43	0.00490207	4.08043e-08	0	-2.66236e-05	2.16433e-06	8.03759e-06	8.32389e-06	74.9291	12789.4	3443.89	13245	-15.0709	0.0000000E+000	0.0000000E+000	0.0000000E+000	15.0709	0.0000000E+000	0.0000000E+000	0.0000000E+000	-15.0709	0.0000000E+000	0.0000000E+000	0.0000000E+000	-74.9291	0.0000000E+000	0.0000000E+000	0.0000000E+000	74.9291	0.269277	15.0709	2.72966e-08