File: Python/Experiments/RDE/Dicarboxylferrocene/Data/240327-CVEIS-5mM_DiCaFerrocene-1M_NaCl-2000RPM-Ag_AgCl_BLF8-Au_RDE_01_CV_C15.mpt
EC-Lab ASCII FILE
Nb header lines : 60

Cyclic Voltammetry

Run on channel : 15 (SN 19485)
User :
Electrode connection : standard
Potential control : Ewe
Ewe ctrl range : min = -1.00 V, max = 1.00 V
Ewe,I filtering : <None>
Safety Limits :
	Do not start on E overload
Channel : Floating
Acquisition started on : 03/27/2024 12:54:48.643
Loaded Setting File :  C:\Data\mathias\GoldElectrode\240322-CVEIS-PostActivation-5mM_Fe2Fe3-1M_H2SO4-2000RPM-Ag_AgCl_BLF8-Au_RDE.mps
Saved on :
	File : 240327-CVEIS-5mM_DiCaFerrocene-1M_NaCl-2000RPM-Ag_AgCl_BLF8-Au_RDE_01_CV_C15.mpr
	Directory : C:\Data\mathias\GoldElectrode\
	Host : 192.168.0.1
Device : VMP-300 (SN 0826)
Address : USB
EC-Lab for windows v11.52 (software)
Internet server v11.52 (firmware)
Command interpretor v11.52 (firmware)
Electrode material :
Initial state :
Electrolyte :
Comments :
Cable : special
Electrode surface area : 0.001 cm²
Characteristic mass : 0.001 g
Equivalent Weight : 0.000 g/eq.
Density : 0.000 g/cm3
Volume (V) : 0.001 cm³
Record EIS quality indicators
Cycle Definition : Charge/Discharge alternance
Ei (V)              0.000
vs.                 Eoc
dE/dt               20.000
dE/dt unit          mV/s
E1 (V)              0.700
vs.                 Ref
Step percent        50
N                   10
E range min (V)     -1.000
E range max (V)     1.000
I Range             Auto
I Range min         Unset
I Range max         Unset
I Range init        Unset
Bandwidth           8
E2 (V)              0.000
vs.                 Ref
nc cycles           1
Reverse Scan        1
Ef (V)              0.000
vs.                 Eoc

mode	ox/red	error	control changes	counter inc.	time/s	control/V	Ewe/V	<I>/mA	cycle number	(Q-Qo)/C	I Range	step time/s	P/W
2	1	0	1	0	0.000000000000000E+000	0.0346523	0.0344418	0.000213073	1	0.0000000E+000	43	0.000000000000000E+000	7.33862e-09
2	1	0	1	0	0.2387	0.0394251	0.0390994	0.000224835	1	4.68045e-08	43	0.2249	8.79093e-09
2	1	0	1	0	0.4886	0.0444227	0.0441596	0.000246808	1	1.05454e-07	43	0.4748	1.0899e-08
2	1	0	1	0	0.7385	0.0494203	0.0491361	0.000270246	1	1.70687e-07	43	0.7247	1.32788e-08
2	1	0	1	0	0.9884	0.0544197	0.0542921	0.000292888	1	2.40739e-07	43	0.9746	1.59015e-08
2	1	0	1	0	1.2382	0.0594155	0.0593289	0.00030773	1	3.15426e-07	43	1.2244	1.82573e-08
2	1	0	1	0	1.4881	0.0644131	0.0642871	0.000329035	1	3.94709e-07	43	1.4743	2.11527e-08
2	1	0	1	0	1.738	0.0694107	0.0693083	0.000351105	1	4.79156e-07	43	1.7242	2.43345e-08
2	1	0	1	0	1.9879	0.0744083	0.0741189	0.000365547	1	5.68217e-07	43	1.9741	2.70939e-08
2	1	0	1	0	2.2378	0.0794072	0.0791908	0.000384245	1	6.61764e-07	43	2.224	3.04286e-08
2	1	0	1	0	2.4876	0.0844035	0.0841483	0.000408208	1	7.60847e-07	43	2.4738	3.435e-08
2	1	0	1	0	2.7375	0.0894011	0.0891514	0.00043409	1	8.65744e-07	43	2.7237	3.86997e-08
2	1	0	1	0	2.9874	0.0943987	0.0941932	0.000459845	1	9.77058e-07	43	2.9736	4.33143e-08
2	1	0	1	0	3.2373	0.0993963	0.099248	0.000483243	1	1.09497e-06	43	3.2235	4.79609e-08
2	1	0	1	0	3.4872	0.104395	0.104199	0.000517536	1	1.21977e-06	43	3.4734	5.39268e-08
2	1	0	1	0	3.737	0.109392	0.109143	0.000534369	1	1.35104e-06	43	3.7232	5.83227e-08
2	1	0	1	0	3.9869	0.114389	0.11419	0.000578479	1	1.4906e-06	43	3.9731	6.60568e-08
2	1	0	1	0	4.2368	0.119387	0.119302	0.000618555	1	1.63988e-06	43	4.223	7.37947e-08
2	1	0	1	0	4.4867	0.124384	0.124054	0.000656295	1	1.79927e-06	43	4.4729	8.1416e-08
2	1	0	1	0	4.7366	0.129383	0.129118	0.000708108	1	1.96931e-06	43	4.7228	9.14291e-08
2	1	0	1	0	4.9864	0.13438	0.13426	0.000752491	1	2.15151e-06	43	4.9726	1.01029e-07
2	1	0	1	0	5.2363	0.139377	0.139225	0.000800011	1	2.34461e-06	43	5.2225	1.11381e-07
2	1	0	1	0	5.4862	0.144375	0.144164	0.000856362	1	2.55085e-06	43	5.4724	1.23457e-07
2	1	0	1	0	5.7361	0.149372	0.149044	0.000906339	1	2.77211e-06	43	5.7223	1.35084e-07
2	1	0	1	0	5.986	0.15437	0.154185	0.000977018	1	3.00778e-06	43	5.9722	1.50642e-07
2	1	0	1	0	6.2358	0.159368	0.159024	0.00104526	1	3.26118e-06	43	6.222	1.66222e-07
2	1	0	1	0	6.5157	0.164965	0.16493	0.00113657	1	3.56641e-06	42	6.5019	1.87455e-07
2	1	0	1	0	6.7656	0.169963	0.169747	0.00122013	1	3.86107e-06	42	6.7518	2.07113e-07
2	1	0	1	0	7.0155	0.17496	0.174801	0.00131043	1	4.17653e-06	42	7.0017	2.29064e-07
2	1	0	1	0	7.2653	0.179958	0.179705	0.00139874	1	4.51489e-06	42	7.2515	2.5136e-07
2	1	0	1	0	7.5152	0.184955	0.184755	0.00151137	1	4.87769e-06	42	7.5014	2.79233e-07
2	1	0	1	0	7.7651	0.189953	0.189698	0.00161566	1	5.26757e-06	42	7.7513	3.06489e-07
2	1	0	1	0	8.015	0.194951	0.194743	0.00174001	1	5.68642e-06	42	8.0012	3.38854e-07
2	1	0	1	0	8.2649	0.199948	0.199531	0.00188238	1	6.13794e-06	42	8.2511	3.75593e-07
2	1	0	1	0	8.5147	0.204946	0.204743	0.00202098	1	6.62465e-06	42	8.5009	4.13782e-07
2	1	0	1	0	8.7646	0.209943	0.209713	0.00218843	1	7.15065e-06	42	8.7508	4.58943e-07
2	1	0	1	0	9.0145	0.214941	0.214634	0.00236883	1	7.71771e-06	42	9.0007	5.08433e-07
2	1	0	1	0	9.2644	0.219939	0.219875	0.00255559	1	8.33318e-06	42	9.2506	5.61912e-07
2	1	0	1	0	9.5143	0.224936	0.224669	0.0027912	1	8.99994e-06	42	9.5005	6.27094e-07
2	1	0	1	0	9.7641	0.229934	0.229879	0.00302868	1	9.72557e-06	42	9.7503	6.96231e-07
2	1	0	1	0	10.014	0.234931	0.234777	0.00331295	1	1.05158e-05	42	10.0002	7.77803e-07
2	1	0	1	0	10.2639	0.239929	0.239644	0.00361029	1	1.13807e-05	42	10.2501	8.65182e-07
2	1	0	1	0	10.5138	0.244927	0.244495	0.00396852	1	1.2326e-05	42	10.5	9.70281e-07
2	1	0	1	0	10.7637	0.249924	0.249586	0.00435902	1	1.33649e-05	42	10.7499	1.08795e-06
2	1	0	1	0	11.0136	0.254924	0.254571	0.0047592	1	1.45046e-05	42	10.9998	1.21155e-06
2	1	0	1	0	11.2634	0.259919	0.259443	0.00528501	1	1.57585e-05	42	11.2496	1.37116e-06
2	1	0	1	0	11.5133	0.264917	0.264508	0.00582377	1	1.71447e-05	42	11.4995	1.54044e-06
2	1	0	1	0	11.7632	0.269915	0.269487	0.00643728	1	1.86745e-05	42	11.7494	1.73477e-06
2	1	0	1	0	12.0131	0.274912	0.274669	0.00712071	1	2.03681e-05	42	11.9993	1.95584e-06
2	1	0	1	0	12.263	0.279912	0.27961	0.00787315	1	2.22393e-05	42	12.2492	2.20142e-06
2	1	0	1	0	12.5128	0.284907	0.284804	0.00869324	1	2.43076e-05	42	12.499	2.47587e-06
2	1	0	1	0	12.7627	0.289905	0.289587	0.00955867	1	2.65869e-05	42	12.7489	2.76806e-06
2	1	0	1	0	13.0126	0.294903	0.294472	0.0105339	1	2.90946e-05	42	12.9988	3.10195e-06
2	1	0	1	0	13.2924	0.300498	0.300171	0.0116023	1	3.21993e-05	41	13.2786	3.48269e-06
2	1	0	1	0	13.5423	0.305498	0.305188	0.0126963	1	3.52552e-05	41	13.5285	3.87476e-06
2	1	0	1	0	13.7922	0.310495	0.310177	0.0138674	1	3.85958e-05	41	13.7784	4.30133e-06
2	1	0	1	0	14.0421	0.315493	0.315435	0.0150733	1	4.22334e-05	41	14.0283	4.75463e-06
2	1	0	1	0	14.292	0.32049	0.320189	0.0163626	1	4.61798e-05	41	14.2782	5.23913e-06
2	1	0	1	0	14.5418	0.325486	0.325233	0.0176315	1	5.04498e-05	41	14.528	5.73435e-06
2	1	0	1	0	14.7917	0.330486	0.330006	0.0189851	1	5.504e-05	41	14.7779	6.2652e-06
2	1	0	1	0	15.0416	0.335483	0.335161	0.0202825	1	5.99625e-05	41	15.0278	6.79792e-06
2	1	0	1	0	15.2915	0.340481	0.340264	0.0217233	1	6.52393e-05	41	15.2777	7.39167e-06
2	1	0	1	0	15.5414	0.345478	0.345011	0.0232437	1	7.08766e-05	41	15.5276	8.01933e-06
2	1	0	1	0	15.7913	0.350476	0.350264	0.0248324	1	7.68961e-05	41	15.7775	8.69789e-06
2	1	0	1	0	16.0411	0.355474	0.35521	0.0264638	1	8.33262e-05	41	16.0273	9.40021e-06
2	1	0	1	0	16.291	0.360471	0.360306	0.0284705	1	9.02067e-05	41	16.2772	1.02581e-05
2	1	0	1	0	16.5409	0.365469	0.36516	0.0306328	1	9.75986e-05	41	16.5271	1.11859e-05
2	1	0	1	0	16.7908	0.370466	0.370255	0.0329411	1	0.000105561	41	16.777	1.21966e-05
2	1	0	1	0	17.0407	0.375464	0.375155	0.0356843	1	0.000114145	41	17.0269	1.33872e-05
2	1	0	1	0	17.2905	0.380462	0.380138	0.0388542	1	0.000123461	41	17.2767	1.47699e-05
2	1	0	1	0	17.5404	0.385459	0.385185	0.0424317	1	0.00013362	41	17.5266	1.63441e-05
2	1	0	1	0	17.7903	0.390457	0.39014	0.0466602	1	0.000144752	41	17.7765	1.8204e-05
2	1	0	1	0	18.0402	0.395454	0.395173	0.051496	1	0.000157016	41	18.0264	2.03498e-05
2	1	0	1	0	18.2901	0.400452	0.400025	0.0569774	1	0.000170573	41	18.2763	2.27924e-05
2	1	0	1	0	18.5399	0.40545	0.405262	0.0630646	1	0.000185578	41	18.5261	2.55577e-05
2	1	0	1	0	18.7898	0.410447	0.410002	0.0706566	1	0.000202287	41	18.776	2.89693e-05
2	1	0	1	0	19.0397	0.415445	0.415131	0.0789703	1	0.00022098	41	19.0259	3.2783e-05
2	1	0	1	0	19.2896	0.420442	0.420175	0.0879598	1	0.00024184	41	19.2758	3.69585e-05
2	1	0	1	0	19.5395	0.42544	0.425286	0.0983781	1	0.000265112	41	19.5257	4.18388e-05
2	1	0	1	0	19.8043	0.430737	0.430443	0.110206	1	0.00029273	41	19.7905	4.74373e-05
2	1	0	1	0	20.0692	0.436035	0.435936	0.122778	1	0.000323607	40	20.0554	5.35232e-05
2	1	0	1	0	20.3191	0.441033	0.440635	0.136065	1	0.000356037	40	20.3053	5.9955e-05
2	1	0	1	0	20.569	0.44603	0.445765	0.149459	1	0.000391788	40	20.5552	6.66235e-05
2	1	0	1	0	20.8188	0.451027	0.450879	0.164034	1	0.000431038	40	20.805	7.39594e-05
2	1	0	1	0	21.0687	0.456025	0.455805	0.178171	1	0.000473884	40	21.0549	8.12113e-05
2	1	0	1	0	21.3186	0.461023	0.460679	0.19289	1	0.000520321	40	21.3048	8.88605e-05
2	1	0	1	0	21.5685	0.466021	0.465898	0.207868	1	0.000570533	40	21.5547	9.68454e-05
2	1	0	1	0	21.8184	0.471018	0.470682	0.221649	1	0.000624296	40	21.8046	0.000104326
2	1	0	1	0	22.0682	0.476014	0.475572	0.235516	1	0.000681492	40	22.0544	0.000112005
2	1	0	1	0	22.3181	0.481013	0.480804	0.247858	1	0.000741977	40	22.3043	0.000119171
2	1	0	1	0	22.568	0.486011	0.485799	0.260203	1	0.000805577	40	22.5542	0.000126406
2	1	0	1	0	22.8179	0.491009	0.490762	0.271066	1	0.000872086	40	22.8041	0.000133029
2	1	0	1	0	23.0678	0.496006	0.495851	0.281253	1	0.000941288	40	23.054	0.00013946
2	1	0	1	0	23.3176	0.501003	0.500866	0.290661	1	0.00101284	40	23.3038	0.000145582
2	1	0	1	0	23.5675	0.506001	0.505637	0.298836	1	0.00108658	40	23.5537	0.000151102
2	1	0	1	0	23.8174	0.510999	0.510698	0.305742	1	0.0011622	40	23.8036	0.000156142
2	1	0	1	0	24.0673	0.515997	0.51568	0.311791	1	0.0012394	40	24.0535	0.000160785
2	1	0	1	0	24.3172	0.520994	0.520745	0.316972	1	0.00131805	40	24.3034	0.000165062
2	1	0	1	0	24.567	0.525991	0.525862	0.321215	1	0.00139797	40	24.5532	0.000168915
2	1	0	1	0	24.8169	0.53099	0.530797	0.326122	1	0.00147891	40	24.8031	0.000173105
2	1	0	1	0	25.0668	0.535987	0.535471	0.329822	1	0.00156096	40	25.053	0.00017661
2	1	0	1	0	25.3167	0.540985	0.5407	0.332686	1	0.00164388	40	25.3029	0.000179883
2	1	0	1	0	25.5666	0.545982	0.545567	0.334767	1	0.00172734	40	25.5528	0.000182638
2	1	0	1	0	25.8165	0.55098	0.550782	0.337344	1	0.00181141	40	25.8027	0.000185803
2	1	0	1	0	26.0663	0.555978	0.555652	0.338272	1	0.00189596	40	26.0525	0.000187962
2	1	0	1	0	26.3162	0.560975	0.560695	0.340985	1	0.00198095	40	26.3024	0.000191189
2	1	0	1	0	26.5661	0.565973	0.565549	0.342042	1	0.00206648	40	26.5523	0.000193442
2	1	0	1	0	26.816	0.57097	0.570778	0.342172	1	0.00215204	40	26.8022	0.000195305
2	1	0	1	0	27.0659	0.575968	0.57582	0.343934	1	0.00223791	40	27.0521	0.000198044
2	1	0	1	0	27.3157	0.580966	0.580609	0.34544	1	0.00232408	40	27.3019	0.000200566
2	1	0	1	0	27.5656	0.585963	0.585412	0.345492	1	0.00241055	40	27.5518	0.000202255
2	1	0	1	0	27.8155	0.590961	0.590521	0.344778	1	0.0024969	40	27.8017	0.000203598
2	1	0	1	0	28.0654	0.595958	0.595746	0.34577	1	0.00258339	40	28.0516	0.000205991
2	1	0	1	0	28.3153	0.600956	0.600571	0.34592	1	0.0026699	40	28.3015	0.000207749
2	1	0	1	0	28.5651	0.605954	0.605726	0.346611	1	0.00275659	40	28.5513	0.000209951
2	1	0	1	0	28.815	0.610951	0.610514	0.347256	1	0.00284338	40	28.8012	0.000212005
2	1	0	1	0	29.0649	0.615949	0.615783	0.347449	1	0.00293036	40	29.0511	0.000213953
2	1	0	1	0	29.3148	0.620946	0.620662	0.348033	1	0.00301742	40	29.301	0.000216011
2	1	0	1	0	29.5647	0.625944	0.62578	0.348399	1	0.00310455	40	29.5509	0.000218021
2	1	0	1	0	29.8145	0.630942	0.630553	0.348953	1	0.00319179	40	29.8007	0.000220033
2	1	0	1	0	30.0644	0.635939	0.635654	0.348408	1	0.00327903	40	30.0506	0.000221467
2	1	0	1	0	30.3143	0.640937	0.640645	0.348877	1	0.00336632	40	30.3005	0.000223506
2	1	0	1	0	30.5642	0.645934	0.645583	0.348583	1	0.00345348	40	30.5504	0.000225039
2	1	0	1	0	30.8141	0.650932	0.65062	0.348067	1	0.00354069	40	30.8003	0.000226459
2	1	0	1	0	31.0639	0.65593	0.655522	0.348898	1	0.00362779	40	31.0501	0.00022871
2	1	0	1	0	31.3138	0.660927	0.660714	0.348345	1	0.00371489	40	31.3	0.000230157
2	1	0	1	0	31.5637	0.665925	0.665669	0.348223	1	0.00380201	40	31.5499	0.000231801
2	1	0	1	0	31.8136	0.670922	0.670577	0.349294	1	0.00388921	40	31.7998	0.000234229
2	1	0	1	0	32.0635	0.67592	0.675581	0.348853	1	0.0039765	40	32.0497	0.000235678
2	1	0	1	0	32.3133	0.680918	0.680625	0.347805	1	0.00406366	40	32.2995	0.000236725
2	1	0	1	0	32.5632	0.685915	0.685527	0.348487	1	0.00415086	40	32.5494	0.000238897
2	1	0	1	0	32.8131	0.690913	0.690651	0.348639	1	0.0042382	40	32.7993	0.000240788
2	1	0	1	0	33.063	0.695911	0.695646	0.349673	1	0.00432553	40	33.0492	0.000243249
2	1	0	1	0	33.281	0.699709	0.699464	0.348716	1	0.00440175	40	33.2672	0.000243914
2	1	0	1	0	33.5309	0.694711	0.694366	0.348265	1	0.00448875	40	33.5171	0.000241824
2	1	0	1	0	33.7808	0.689713	0.689431	0.348196	1	0.00457572	40	33.767	0.000240057
2	1	0	1	0	34.0306	0.684716	0.6844	0.347339	1	0.00466246	40	34.0168	0.000237719
2	1	0	1	0	34.2805	0.679718	0.679344	0.346007	1	0.00474878	40	34.2667	0.000235058
2	1	0	1	0	34.5304	0.674721	0.674476	0.346109	1	0.00483511	40	34.5166	0.000233442
2	1	0	1	0	34.7803	0.669723	0.66948	0.344337	1	0.00492125	40	34.7665	0.000230527
2	1	0	1	0	35.0302	0.664725	0.664381	0.34549	1	0.00500758	40	35.0164	0.000229537
2	1	0	1	0	35.28	0.659729	0.659386	0.344784	1	0.00509367	40	35.2662	0.000227346
2	1	0	1	0	35.5299	0.65473	0.654467	0.344818	1	0.0051797	40	35.5161	0.000225672
2	1	0	1	0	35.7798	0.649733	0.649477	0.343419	1	0.00526572	40	35.766	0.000223042
2	1	0	1	0	36.0297	0.644735	0.644466	0.343303	1	0.00535145	40	36.0159	0.000221247
2	1	0	1	0	36.2796	0.639737	0.639416	0.343131	1	0.0054371	40	36.2658	0.000219404
2	1	0	1	0	36.5294	0.634741	0.634444	0.342535	1	0.0055225	40	36.5156	0.000217319
2	1	0	1	0	36.7793	0.629742	0.629515	0.342441	1	0.00560806	40	36.7655	0.000215572
2	1	0	1	0	37.0292	0.624745	0.62444	0.341862	1	0.00569344	40	37.0154	0.000213472
2	1	0	1	0	37.2791	0.619747	0.619494	0.340146	1	0.00577869	40	37.2653	0.000210719
2	1	0	1	0	37.529	0.614749	0.614415	0.339357	1	0.00586356	40	37.5152	0.000208506
2	1	0	1	0	37.7788	0.609753	0.60951	0.337605	1	0.00594802	40	37.765	0.000205773
2	1	0	1	0	38.0287	0.604754	0.604463	0.336547	1	0.00603229	40	38.0149	0.00020343
2	1	0	1	0	38.2786	0.599757	0.599541	0.33659	1	0.00611635	40	38.2648	0.000201799
2	1	0	1	0	38.5285	0.594759	0.594577	0.335578	1	0.0062002	40	38.5147	0.000199527
2	1	0	1	0	38.7784	0.589761	0.589564	0.334148	1	0.0062839	40	38.7646	0.000197002
2	1	0	1	0	39.0282	0.584765	0.584379	0.331661	1	0.00636703	40	39.0144	0.000193816
2	1	0	1	0	39.2781	0.579766	0.579468	0.330911	1	0.00644975	40	39.2643	0.000191752
2	1	0	1	0	39.528	0.574769	0.574379	0.328255	1	0.00653204	40	39.5142	0.000188543
2	1	0	1	0	39.7779	0.569771	0.569404	0.326375	1	0.00661374	40	39.7641	0.000185839
2	1	0	1	0	40.0278	0.564773	0.564536	0.323287	1	0.00669482	40	40.014	0.000182507
2	1	0	1	0	40.2776	0.559778	0.559499	0.319914	1	0.00677519	40	40.2638	0.000178991
2	1	0	1	0	40.5275	0.554778	0.554287	0.317562	1	0.0068549	40	40.5137	0.00017602
2	1	0	1	0	40.7774	0.54978	0.549567	0.313144	1	0.00693357	40	40.7636	0.000172094
2	1	0	1	0	41.0273	0.544783	0.544671	0.308693	1	0.00701118	40	41.0135	0.000168136
2	1	0	1	0	41.2772	0.539785	0.539531	0.302712	1	0.00708757	40	41.2634	0.000163322
2	1	0	1	0	41.527	0.534789	0.5346	0.297865	1	0.00716242	40	41.5132	0.000159239
2	1	0	1	0	41.7769	0.52979	0.529619	0.291058	1	0.00723589	40	41.7631	0.00015415
2	1	0	1	0	42.0268	0.524792	0.524685	0.2838	1	0.00730775	40	42.013	0.000148906
2	1	0	1	0	42.2767	0.519795	0.519486	0.274867	1	0.00737746	40	42.2629	0.00014279
2	1	0	1	0	42.5266	0.514797	0.514567	0.265959	1	0.00744503	40	42.5128	0.000136854
2	1	0	1	0	42.7765	0.5098	0.509556	0.255342	1	0.00751002	40	42.7627	0.000130111
2	1	0	1	0	43.0263	0.504802	0.504554	0.245152	1	0.00757254	40	43.0125	0.000123693
2	1	0	1	0	43.2762	0.499804	0.499535	0.233909	1	0.00763232	40	43.2624	0.000116846
2	1	0	1	0	43.5261	0.494807	0.494497	0.221969	1	0.0076892	40	43.5123	0.000109763
2	1	0	1	0	43.776	0.489809	0.489614	0.209216	1	0.00774304	40	43.7622	0.000102435
2	1	0	1	0	44.0259	0.484812	0.484605	0.196178	1	0.00779365	40	44.0121	9.5069e-05
2	1	0	1	0	44.2757	0.479814	0.479582	0.182901	1	0.00784091	40	44.2619	8.77163e-05
2	1	0	1	0	44.5256	0.474816	0.474515	0.169239	1	0.00788484	40	44.5118	8.03063e-05
2	1	0	1	0	44.7755	0.469819	0.469523	0.156192	1	0.00792544	40	44.7617	7.33356e-05
2	1	0	1	0	45.0254	0.464821	0.464486	0.142617	1	0.00796266	40	45.0116	6.62437e-05
2	1	0	1	0	45.2753	0.459824	0.459303	0.13039	1	0.0079967	40	45.2615	5.98884e-05
2	1	0	1	0	45.5251	0.454826	0.454426	0.118141	1	0.00802764	40	45.5113	5.36863e-05
2	1	0	1	0	45.775	0.449828	0.449472	0.1067	1	0.00805564	40	45.7612	4.79585e-05
2	1	0	1	0	46.0249	0.444831	0.44444	0.0958929	1	0.00808084	40	46.0111	4.26187e-05
2	1	0	1	0	46.2748	0.439833	0.439476	0.0858286	1	0.00810344	40	46.261	3.77196e-05
2	1	0	1	0	46.5247	0.434836	0.434603	0.0765838	1	0.00812363	40	46.5109	3.32835e-05
2	1	0	1	0	46.7745	0.429838	0.429474	0.0682977	1	0.00814161	40	46.7607	2.93321e-05
2	1	0	1	0	47.0244	0.42484	0.424596	0.0608327	1	0.00815763	40	47.0106	2.58293e-05
2	1	0	1	0	47.2743	0.419843	0.419692	0.0539684	1	0.00817187	40	47.2605	2.26501e-05
2	1	0	1	0	47.5242	0.414845	0.414271	0.0481913	1	0.00818454	40	47.5104	1.99643e-05
2	1	0	1	0	47.804	0.409249	0.409054	0.0420315	1	0.00819711	41	47.7902	1.71931e-05
2	1	0	1	0	48.0539	0.40425	0.403894	0.0375604	1	0.00820703	41	48.0401	1.51704e-05
2	1	0	1	0	48.3038	0.399253	0.398805	0.0336868	1	0.00821591	41	48.29	1.34345e-05
2	1	0	1	0	48.5537	0.394255	0.393854	0.0302582	1	0.00822387	41	48.5399	1.19173e-05
2	1	0	1	0	48.8036	0.389257	0.388691	0.0272544	1	0.00823103	41	48.7898	1.05935e-05
2	1	0	1	0	49.0534	0.384261	0.384043	0.0246472	1	0.00823749	41	49.0396	9.46557e-06
2	1	0	1	0	49.3033	0.379262	0.378949	0.0223148	1	0.00824333	41	49.2895	8.45616e-06
2	1	0	1	0	49.5532	0.374265	0.373789	0.0202169	1	0.00824863	41	49.5394	7.55685e-06
2	1	0	1	0	49.8031	0.369267	0.369127	0.0182212	1	0.00825341	41	49.7893	6.72594e-06
2	1	0	1	0	50.053	0.364269	0.36386	0.0164404	1	0.00825773	41	50.0392	5.98198e-06
2	1	0	1	0	50.3028	0.359273	0.358825	0.0148244	1	0.00826162	41	50.289	5.31937e-06
2	1	0	1	0	50.5527	0.354274	0.354056	0.0132999	1	0.00826512	41	50.5389	4.70892e-06
2	1	0	1	0	50.8026	0.349277	0.3489	0.0118869	1	0.00826826	41	50.7888	4.14733e-06
2	1	0	1	0	51.0525	0.344279	0.344087	0.0105883	1	0.00827105	41	51.0387	3.6433e-06
2	1	0	1	0	51.3024	0.339281	0.338983	0.00940803	1	0.00827354	41	51.2886	3.18916e-06
2	1	0	1	0	51.5522	0.334286	0.333911	0.00829369	1	0.00827573	41	51.5384	2.76935e-06
2	1	0	1	0	51.8021	0.329286	0.328863	0.00728531	1	0.00827767	41	51.7883	2.39587e-06
2	1	0	1	0	52.052	0.324289	0.323979	0.00637152	1	0.00827936	41	52.0382	2.06424e-06
2	1	0	1	0	52.3019	0.319291	0.318842	0.00553766	1	0.00828084	41	52.2881	1.76564e-06
2	1	0	1	0	52.5518	0.314293	0.313918	0.00481993	1	0.00828212	41	52.538	1.51306e-06
2	1	0	1	0	52.8316	0.308696	0.308541	0.00399019	1	0.00828334	42	52.8178	1.23114e-06
2	1	0	1	0	53.0815	0.303698	0.303387	0.00340609	1	0.00828426	42	53.0677	1.03337e-06
2	1	0	1	0	53.3314	0.298701	0.298362	0.00286509	1	0.00828505	42	53.3176	8.54834e-07
2	1	0	1	0	53.5813	0.293703	0.293413	0.00238985	1	0.0082857	42	53.5675	7.01213e-07
2	1	0	1	0	53.8312	0.288706	0.288358	0.00198018	1	0.00828625	42	53.8174	5.71002e-07
2	1	0	1	0	54.081	0.283708	0.283456	0.00160342	1	0.00828669	42	54.0672	4.54499e-07
2	1	0	1	0	54.3309	0.27871	0.278278	0.00126372	1	0.00828705	42	54.3171	3.51665e-07
2	1	0	1	0	54.5808	0.273713	0.273375	0.00098414	1	0.00828733	42	54.567	2.6904e-07
2	1	0	1	0	54.8307	0.268715	0.268416	0.000721521	1	0.00828754	42	54.8169	1.93668e-07
2	1	0	1	0	55.0806	0.263718	0.263522	0.000507889	1	0.00828769	42	55.0668	1.3384e-07
2	1	0	1	0	55.3604	0.25812	0.257915	0.000283	1	0.00828781	43	55.3466	7.29898e-08
2	1	0	1	0	55.6103	0.253123	0.253051	0.000124028	1	0.00828786	43	55.5965	3.13854e-08
2	0	0	1	0	55.8602	0.248125	0.247802	-2.02008e-05	1	0.00828787	43	0.000000000000000E+000	-5.0058e-09
2	0	0	1	0	56.1101	0.243127	0.242786	-0.000144896	1	0.00828785	43	0.2499	-3.51788e-08
2	0	0	1	0	56.36	0.238129	0.237908	-0.000262239	1	0.0082878	43	0.4998	-6.23889e-08
2	0	0	1	0	56.6098	0.233132	0.232813	-0.00033993	1	0.00828772	43	0.7496	-7.91402e-08
2	0	0	1	0	56.8597	0.228135	0.22799	-0.000429056	1	0.00828762	43	0.9995	-9.78205e-08
2	0	0	1	0	57.1096	0.223137	0.222914	-0.000496726	1	0.00828751	43	1.2494	-1.10727e-07
2	0	0	1	0	57.3595	0.218139	0.217772	-0.000561234	1	0.00828737	43	1.4993	-1.22221e-07
2	0	0	1	0	57.6094	0.213141	0.212754	-0.000608283	1	0.00828723	43	1.7492	-1.29415e-07
2	0	0	1	0	57.8592	0.208144	0.208003	-0.000659121	1	0.00828707	43	1.999	-1.37099e-07
2	0	0	1	0	58.1091	0.203147	0.202834	-0.000691093	1	0.0082869	43	2.2489	-1.40177e-07
2	0	0	1	0	58.359	0.198149	0.197858	-0.000721867	1	0.00828672	43	2.4988	-1.42827e-07
2	0	0	1	0	58.6089	0.193151	0.19275	-0.000749942	1	0.00828654	43	2.7487	-1.44551e-07
2	0	0	1	0	58.8588	0.188154	0.187921	-0.000772689	1	0.00828635	43	2.9986	-1.45204e-07
2	0	0	1	0	59.1086	0.183156	0.182733	-0.000795442	1	0.00828615	43	3.2484	-1.45353e-07
2	0	0	1	0	59.3585	0.178159	0.177859	-0.000804384	1	0.00828595	43	3.4983	-1.43067e-07
2	0	0	1	0	59.6084	0.173161	0.172799	-0.000832199	1	0.00828574	43	3.7482	-1.43803e-07
2	0	0	1	0	59.8583	0.168163	0.168021	-0.000847314	1	0.00828553	43	3.9981	-1.42366e-07
2	0	0	1	0	60.1082	0.163166	0.162867	-0.000863883	1	0.00828532	43	4.248	-1.40698e-07
2	0	0	1	0	60.358	0.158168	0.157931	-0.000866026	1	0.0082851	43	4.4978	-1.36772e-07
2	0	0	1	0	60.6079	0.153171	0.152644	-0.000869395	1	0.00828488	43	4.7477	-1.32708e-07
2	0	0	1	0	60.8578	0.148173	0.147808	-0.000894441	1	0.00828466	43	4.9976	-1.32206e-07
2	0	0	1	0	61.1077	0.143175	0.142809	-0.000883068	1	0.00828444	43	5.2475	-1.2611e-07
2	0	0	1	0	61.3576	0.138178	0.137808	-0.000891555	1	0.00828422	43	5.4974	-1.22864e-07
2	0	0	1	0	61.6074	0.13318	0.13276	-0.000900471	1	0.00828399	43	5.7472	-1.19547e-07
2	0	0	1	0	61.8573	0.128183	0.127865	-0.000900101	1	0.00828377	43	5.9971	-1.15092e-07
2	0	0	1	0	62.1072	0.123185	0.122879	-0.00090251	1	0.00828354	43	6.247	-1.10899e-07
2	0	0	1	0	62.3571	0.118187	0.11775	-0.000900398	1	0.00828332	43	6.4969	-1.06022e-07
2	0	0	1	0	62.607	0.11319	0.112914	-0.000903348	1	0.00828309	43	6.7468	-1.02e-07
2	0	0	1	0	62.8568	0.108192	0.107924	-0.00090885	1	0.00828286	43	6.9966	-9.80867e-08
2	0	0	1	0	63.1067	0.103194	0.102902	-0.000914837	1	0.00828264	43	7.2465	-9.41387e-08
2	0	0	1	0	63.3566	0.0981969	0.0978444	-0.000911916	1	0.00828241	43	7.4964	-8.92259e-08
2	0	0	1	0	63.6065	0.0931993	0.0928555	-0.00092331	1	0.00828218	43	7.7463	-8.57344e-08
2	0	0	1	0	63.8564	0.0882017	0.087848	-0.0009127	1	0.00828195	43	7.9962	-8.01789e-08
2	0	0	1	0	64.1062	0.0832041	0.0828421	-0.000911342	1	0.00828173	43	8.246	-7.54975e-08
2	0	0	1	0	64.3561	0.0782065	0.0778675	-0.000911567	1	0.0082815	43	8.4959	-7.09815e-08
2	0	0	1	0	64.606	0.0732089	0.0730537	-0.000910722	1	0.00828127	43	8.7458	-6.65316e-08
2	0	0	1	0	64.8559	0.0682113	0.0678976	-0.000915818	1	0.00828104	43	8.9957	-6.21819e-08
2	0	0	1	0	65.1058	0.0632137	0.0628957	-0.000915806	1	0.00828081	43	9.2456	-5.76003e-08
2	0	0	1	0	65.3556	0.058216	0.0579312	-0.000914663	1	0.00828058	43	9.4954	-5.29876e-08
2	0	0	1	0	65.6055	0.0532184	0.0528318	-0.000908695	1	0.00828036	43	9.7453	-4.8008e-08
2	0	0	1	0	65.8554	0.0482208	0.0479899	-0.000910842	1	0.00828013	43	9.9952	-4.37112e-08
2	0	0	1	0	66.1053	0.0432232	0.0429487	-0.000917977	1	0.0082799	43	10.2451	-3.94259e-08
2	0	0	1	0	66.3552	0.0382256	0.0378091	-0.000926577	1	0.00827967	43	10.495	-3.50331e-08
2	0	0	1	0	66.605	0.033228	0.0330154	-0.000932315	1	0.00827944	43	10.7448	-3.07807e-08
2	0	0	1	0	66.8549	0.0282304	0.0278545	-0.000935794	1	0.0082792	43	10.9947	-2.60661e-08
2	0	0	1	0	67.1048	0.0232328	0.0230306	-0.000939453	1	0.00827897	43	11.2446	-2.16362e-08
2	0	0	1	0	67.3547	0.0182352	0.0178299	-0.000950788	1	0.00827873	43	11.4945	-1.69525e-08
2	0	0	1	0	67.6046	0.0132376	0.0130118	-0.000962223	1	0.00827849	43	11.7444	-1.25202e-08
2	0	0	1	0	67.8544	0.00824044	0.00795177	-0.000978913	1	0.00827825	43	11.9942	-7.7841e-09
2	0	0	1	0	68.1043	0.00324239	0.00288748	-0.000977495	1	0.008278	43	12.2441	-2.82249e-09
2	0	0	1	1	68.3597	0.00189304	0.00164185	-0.000308984	1	0.00827781	42	12.4995	-5.07307e-10
2	0	0	1	1	68.6396	0.00749035	0.0072048	-9.39984e-05	1	0.00827775	43	12.7794	-6.77239e-10
2	1	0	1	1	68.8894	0.0124871	0.0119046	1.8567e-05	1	0.00827774	43	0.000000000000000E+000	2.21034e-10
2	1	0	1	1	69.1393	0.0174856	0.0173175	8.29666e-05	1	0.00827776	43	0.2249	1.43678e-09
2	1	0	1	1	69.3892	0.0224832	0.0221791	0.000143578	1	0.00827779	43	0.4748	3.18444e-09
2	1	0	1	1	69.6391	0.0274808	0.0274329	0.000197037	1	0.00827783	43	0.7247	5.4053e-09
2	1	0	1	1	69.889	0.0324784	0.0322299	0.000239852	1	0.00827788	43	0.9746	7.73041e-09
2	1	0	1	1	70.1064	0.0368263	0.0364592	0.000265912	2	0.00827794	43	1.192	9.69492e-09
2	1	0	1	1	70.3562	0.0418235	0.0417083	0.000300707	2	0.00827801	43	1.4418	1.2542e-08
2	1	0	1	1	70.6061	0.0468215	0.04656	0.000329144	2	0.00827809	43	1.6917	1.53249e-08
2	1	0	1	1	70.856	0.0518191	0.0515049	0.000359598	2	0.00827818	43	1.9416	1.85211e-08
2	1	0	1	1	71.1059	0.0568167	0.0564093	0.000380369	2	0.00827827	43	2.1915	2.14564e-08
2	1	0	1	1	71.3558	0.0618143	0.0614333	0.000402067	2	0.00827837	43	2.4414	2.47003e-08
2	1	0	1	1	71.6056	0.066811	0.0666737	0.000426083	2	0.00827847	43	2.6912	2.84085e-08
2	1	0	1	1	71.8555	0.0718095	0.0714243	0.000443527	2	0.00827858	43	2.9411	3.16786e-08
2	1	0	1	1	72.1054	0.0768071	0.076514	0.000462994	2	0.00827869	43	3.191	3.54255e-08
2	1	0	1	1	72.3553	0.0818048	0.0815961	0.000480817	2	0.00827881	43	3.4409	3.92328e-08
2	1	0	1	1	72.6052	0.0868024	0.0866155	0.000497455	2	0.00827893	43	3.6908	4.30873e-08
2	1	0	1	1	72.855	0.0917991	0.0914502	0.000513561	2	0.00827906	43	3.9406	4.69653e-08
2	1	0	1	1	73.1049	0.0967976	0.0963596	0.000536481	2	0.00827919	43	4.1905	5.1695e-08
2	1	0	1	1	73.3548	0.101795	0.101458	0.000550537	2	0.00827933	43	4.4404	5.58562e-08
2	1	0	1	1	73.6047	0.106793	0.106468	0.000567976	2	0.00827947	43	4.6903	6.04714e-08
2	1	0	1	1	73.8546	0.11179	0.111321	0.000587148	2	0.00827961	43	4.9402	6.5362e-08
2	1	0	1	1	74.1044	0.116787	0.116231	0.000598194	2	0.00827976	43	5.19	6.95286e-08
2	1	0	1	1	74.3543	0.121786	0.121409	0.000621688	2	0.00827991	43	5.4399	7.54786e-08
2	1	0	1	1	74.6042	0.126783	0.126314	0.000646665	2	0.00828007	43	5.6898	8.16829e-08
2	1	0	1	1	74.8541	0.131781	0.131383	0.000665804	2	0.00828023	43	5.9397	8.74751e-08
2	1	0	1	1	75.104	0.136778	0.136573	0.000679152	2	0.0082804	43	6.1896	9.27537e-08
2	1	0	1	1	75.3538	0.141774	0.14153	0.000706561	2	0.00828058	43	6.4394	9.99998e-08
2	1	0	1	1	75.6037	0.146774	0.146442	0.000733515	2	0.00828075	43	6.6893	1.07418e-07
2	1	0	1	1	75.8536	0.151771	0.151745	0.000754539	2	0.00828094	43	6.9392	1.14497e-07
2	1	0	1	1	76.1035	0.156769	0.156464	0.000769933	2	0.00828113	43	7.1891	1.20467e-07
2	1	0	1	1	76.3534	0.161766	0.161631	0.000805545	2	0.00828133	43	7.439	1.30201e-07
2	1	0	1	1	76.6033	0.166764	0.166257	0.000829082	2	0.00828153	43	7.6889	1.37841e-07
2	1	0	1	1	76.8531	0.171762	0.171542	0.000857813	2	0.00828174	43	7.9387	1.47151e-07
2	1	0	1	1	77.103	0.176759	0.176622	0.000895075	2	0.00828196	43	8.1886	1.5809e-07
2	1	0	1	1	77.3529	0.181757	0.181363	0.000924741	2	0.00828219	43	8.4385	1.67714e-07
2	1	0	1	1	77.6028	0.186754	0.186283	0.000959501	2	0.00828242	43	8.6884	1.78738e-07
2	1	0	1	1	77.8527	0.191752	0.191425	0.00100119	2	0.00828267	43	8.9383	1.91654e-07
2	1	0	1	1	78.1025	0.19675	0.196445	0.00105162	2	0.00828293	43	9.1881	2.06584e-07
2	1	0	1	1	78.3674	0.202047	0.201773	0.00125749	2	0.00828321	43	9.453	2.53727e-07
2	1	0	1	1	78.6323	0.207345	0.207145	0.0011589	2	0.00828351	42	9.7179	2.40061e-07
2	1	0	1	1	78.8822	0.212342	0.21215	0.00119968	2	0.0082838	42	9.9678	2.54513e-07
2	1	0	1	1	79.132	0.21734	0.21705	0.00127467	2	0.00828411	42	10.2176	2.76667e-07
2	1	0	1	1	79.3819	0.222337	0.222029	0.00134953	2	0.00828444	42	10.4675	2.99635e-07
2	1	0	1	1	79.6318	0.227335	0.227112	0.00141307	2	0.00828478	42	10.7174	3.20926e-07
2	1	0	1	1	79.8817	0.232333	0.23202	0.00152213	2	0.00828515	42	10.9673	3.53164e-07
2	1	0	1	1	80.1316	0.23733	0.237007	0.00161002	2	0.00828554	42	11.2172	3.81586e-07
2	1	0	1	1	80.3814	0.242327	0.241924	0.00172761	2	0.00828596	42	11.467	4.17949e-07
2	1	0	1	1	80.6313	0.247325	0.247109	0.00185263	2	0.00828641	42	11.7169	4.57802e-07
2	1	0	1	1	80.8812	0.252323	0.252005	0.00199764	2	0.00828689	42	11.9668	5.03415e-07
2	1	0	1	1	81.1311	0.257321	0.257141	0.0021624	2	0.00828741	42	12.2167	5.56042e-07
2	1	0	1	1	81.381	0.262318	0.261943	0.00233281	2	0.00828797	42	12.4666	6.11064e-07
2	1	0	1	1	81.6308	0.267315	0.266889	0.00254521	2	0.00828858	42	12.7164	6.79287e-07
2	1	0	1	1	81.8807	0.272313	0.272126	0.00276741	2	0.00828924	42	12.9663	7.53082e-07
2	1	0	1	1	82.1306	0.277311	0.277081	0.00301225	2	0.00828997	42	13.2162	8.34637e-07
2	1	0	1	1	82.3805	0.282309	0.282031	0.00330574	2	0.00829076	42	13.4661	9.32319e-07
2	1	0	1	1	82.6304	0.287306	0.287309	0.00362174	2	0.00829162	42	13.716	1.04056e-06
2	1	0	1	1	82.8802	0.292303	0.291995	0.00394501	2	0.00829257	42	13.9658	1.15192e-06
2	1	0	1	1	83.1301	0.297301	0.297092	0.00434165	2	0.0082936	42	14.2157	1.28987e-06
2	1	0	1	1	83.38	0.302299	0.302046	0.00476164	2	0.00829474	42	14.4656	1.43823e-06
2	1	0	1	1	83.6299	0.307297	0.307074	0.00523747	2	0.00829598	42	14.7155	1.60829e-06
2	1	0	1	1	83.8798	0.312294	0.311877	0.00575099	2	0.00829736	42	14.9654	1.7936e-06
2	1	0	1	1	84.1296	0.317291	0.317159	0.00633153	2	0.00829887	42	15.2152	2.0081e-06
2	1	0	1	1	84.3795	0.32229	0.321707	0.0069599	2	0.00830053	42	15.4651	2.23905e-06
2	1	0	1	1	84.6294	0.327287	0.327121	0.00764817	2	0.00830235	42	15.715	2.50188e-06
2	1	0	1	1	84.8793	0.332285	0.332192	0.00842365	2	0.00830436	42	15.9649	2.79827e-06
2	1	0	1	1	85.1292	0.337282	0.336892	0.00927593	2	0.00830657	42	16.2148	3.12499e-06
2	1	0	1	1	85.379	0.342278	0.341929	0.0101682	2	0.008309	42	16.4646	3.4768e-06
2	1	0	1	1	85.6589	0.347877	0.347341	0.0112795	2	0.00831201	41	16.7445	3.91782e-06
2	1	0	1	1	85.9088	0.352875	0.352417	0.0124304	2	0.00831498	41	16.9944	4.38068e-06
2	1	0	1	1	86.1587	0.357872	0.357554	0.0136359	2	0.00831825	41	17.2443	4.87557e-06
2	1	0	1	1	86.4086	0.36287	0.362516	0.0150402	2	0.00832185	41	17.4942	5.45233e-06
2	1	0	1	1	86.6584	0.367868	0.36748	0.0165376	2	0.0083258	41	17.744	6.07723e-06
2	1	0	1	1	86.9083	0.372865	0.372694	0.0181403	2	0.00833014	41	17.9939	6.76078e-06
2	1	0	1	1	87.1582	0.377863	0.377561	0.0198896	2	0.0083349	41	18.2438	7.50953e-06
2	1	0	1	1	87.4081	0.38286	0.382576	0.0218075	2	0.00834012	41	18.4937	8.34303e-06
2	1	0	1	1	87.658	0.387858	0.387589	0.0239522	2	0.00834585	41	18.7436	9.28362e-06
2	1	0	1	1	87.9078	0.392856	0.392621	0.0262826	2	0.00835213	41	18.9934	1.03191e-05
2	1	0	1	1	88.1577	0.397853	0.397646	0.0289598	2	0.00835905	41	19.2433	1.15158e-05
2	1	0	1	1	88.4076	0.402851	0.402591	0.0319268	2	0.00836667	41	19.4932	1.28534e-05
2	1	0	1	1	88.6575	0.407849	0.407682	0.0353227	2	0.00837508	41	19.7431	1.44004e-05
2	1	0	1	1	88.9074	0.412846	0.412485	0.039148	2	0.0083844	41	19.993	1.61479e-05
2	1	0	1	1	89.1572	0.417844	0.417669	0.0435637	2	0.00839473	41	20.2428	1.81952e-05
2	1	0	1	1	89.4071	0.422841	0.422568	0.0485207	2	0.00840624	41	20.4927	2.05033e-05
2	1	0	1	1	89.657	0.427839	0.42749	0.0542368	2	0.00841908	41	20.7426	2.31857e-05
2	1	0	1	1	89.9069	0.432837	0.432488	0.0606376	2	0.00843343	41	20.9925	2.62251e-05
2	1	0	1	1	90.1568	0.437834	0.437674	0.0677292	2	0.00844947	41	21.2424	2.96433e-05
2	1	0	1	1	90.4066	0.442832	0.442514	0.0756229	2	0.00846738	41	21.4922	3.34642e-05
2	1	0	1	1	90.6565	0.447829	0.447425	0.0844941	2	0.00848738	41	21.7421	3.78048e-05
2	1	0	1	1	90.9064	0.452827	0.452441	0.0940646	2	0.00850969	41	21.992	4.25587e-05
2	1	0	1	1	91.1563	0.457825	0.45741	0.104577	2	0.00853451	41	22.2419	4.78345e-05
2	1	0	1	1	91.4362	0.463422	0.46333	0.116954	2	0.00856554	40	22.5218	5.41882e-05
2	1	0	1	1	91.686	0.468419	0.468068	0.12928	2	0.00859635	40	22.7716	6.05119e-05
2	1	0	1	1	91.9359	0.473417	0.473143	0.1419	2	0.00863031	40	23.0215	6.71389e-05
2	1	0	1	1	92.1858	0.478415	0.478014	0.155678	2	0.00866754	40	23.2714	7.44164e-05
2	1	0	1	1	92.4357	0.483412	0.483186	0.169436	2	0.00870821	40	23.5213	8.18689e-05
2	1	0	1	1	92.6856	0.48841	0.488237	0.183054	2	0.00875231	40	23.7712	8.93739e-05
2	1	0	1	1	92.9354	0.493407	0.493157	0.197589	2	0.00879994	40	24.021	9.74424e-05
2	1	0	1	1	93.1853	0.498405	0.498148	0.211787	2	0.00885117	40	24.2709	0.000105501
2	1	0	1	1	93.4352	0.503403	0.503089	0.225736	2	0.00890594	40	24.5208	0.000113565
2	1	0	1	1	93.6851	0.5084	0.507958	0.23914	2	0.00896411	40	24.7707	0.000121473
2	1	0	1	1	93.935	0.513398	0.513158	0.251628	2	0.00902548	40	25.0206	0.000129125
2	1	0	1	1	94.1848	0.518396	0.517983	0.263559	2	0.00908997	40	25.2704	0.000136519
2	1	0	1	1	94.4347	0.523393	0.523127	0.274897	2	0.00915734	40	25.5203	0.000143806
2	1	0	1	1	94.6846	0.528391	0.528032	0.284704	2	0.00922738	40	25.7702	0.000150333
2	1	0	1	1	94.9345	0.533388	0.533086	0.293407	2	0.0092997	40	26.0201	0.000156411
2	1	0	1	1	95.1844	0.538386	0.53807	0.300065	2	0.00937396	40	26.27	0.000161456
2	1	0	1	1	95.4342	0.543384	0.543011	0.307196	2	0.00944993	40	26.5198	0.000166811
2	1	0	1	1	95.6841	0.548381	0.548008	0.312575	2	0.00952742	40	26.7697	0.000171293
2	1	0	1	1	95.934	0.553379	0.553151	0.31836	2	0.00960638	40	27.0196	0.000176101
2	1	0	1	1	96.1839	0.558376	0.557784	0.322837	2	0.00968664	40	27.2695	0.000180073
2	1	0	1	1	96.4338	0.563374	0.5631	0.326143	2	0.00976771	40	27.5194	0.000183651
2	1	0	1	1	96.6836	0.568372	0.567989	0.329244	2	0.00984973	40	27.7692	0.000187007
2	1	0	1	1	96.9335	0.573369	0.573135	0.330524	2	0.00993233	40	28.0191	0.000189435
2	1	0	1	1	97.1834	0.578367	0.577958	0.332819	2	0.0100154	40	28.269	0.000192355
2	1	0	1	1	97.4333	0.583364	0.583086	0.334739	2	0.0100989	40	28.5189	0.000195182
2	1	0	1	1	97.6832	0.588362	0.588033	0.335413	2	0.0101828	40	28.7688	0.000197234
2	1	0	1	1	97.933	0.59336	0.592944	0.336948	2	0.0102669	40	29.0186	0.000199791
2	1	0	1	1	98.1829	0.598357	0.59799	0.338598	2	0.0103514	40	29.2685	0.000202478
2	1	0	1	1	98.4328	0.603355	0.602927	0.337867	2	0.0104361	40	29.5184	0.000203709
2	1	0	1	1	98.6827	0.608352	0.608243	0.339868	2	0.010521	40	29.7683	0.000206723
2	1	0	1	1	98.9326	0.61335	0.613058	0.340961	2	0.0106062	40	30.0182	0.000209029
2	1	0	1	1	99.1824	0.618348	0.618044	0.340707	2	0.0106915	40	30.268	0.000210572
2	1	0	1	1	99.4323	0.623345	0.622971	0.341865	2	0.0107769	40	30.5179	0.000212972
2	1	0	1	1	99.6822	0.628343	0.628129	0.340842	2	0.0108623	40	30.7678	0.000214093
2	1	0	1	1	99.9321	0.63334	0.633027	0.340757	2	0.0109477	40	31.0177	0.000215708
2	1	0	1	1	100.182	0.638338	0.637901	0.341537	2	0.011033	40	31.2676	0.000217867
2	1	0	1	1	100.432	0.643336	0.643145	0.341517	2	0.0111186	40	31.5174	0.000219645
2	1	0	1	1	100.682	0.648333	0.64795	0.341725	2	0.0112042	40	31.7673	0.000221421
2	1	0	1	1	100.932	0.653331	0.653007	0.342372	2	0.0112898	40	32.0172	0.000223571
2	1	0	1	1	101.181	0.658328	0.658075	0.343194	2	0.0113755	40	32.2671	0.000225847
2	1	0	1	1	101.431	0.663326	0.662822	0.342675	2	0.0114614	40	32.517	0.000227133
2	1	0	1	1	101.681	0.668323	0.667997	0.343121	2	0.0115471	40	32.7668	0.000229204
2	1	0	1	1	101.931	0.673321	0.673094	0.343314	2	0.0116329	40	33.0167	0.000231082
2	1	0	1	1	102.181	0.678319	0.67792	0.342242	2	0.0117185	40	33.2666	0.000232013
2	1	0	1	1	102.431	0.683317	0.683102	0.342688	2	0.0118042	40	33.5165	0.000234091
2	1	0	1	1	102.681	0.688314	0.687963	0.342712	2	0.01189	40	33.7664	0.000235773
2	1	0	1	1	102.931	0.693311	0.693054	0.342973	2	0.0119758	40	34.0162	0.000237699
2	1	0	1	1	103.18	0.698309	0.697904	0.343398	2	0.0120616	40	34.2661	0.000239659
2	1	0	1	1	103.404	0.697208	0.696863	0.342505	2	0.0121381	40	34.4892	0.000238679
2	1	0	1	1	103.653	0.692212	0.691751	0.340791	2	0.0122232	40	34.739	0.000235742
2	1	0	1	1	103.903	0.687215	0.686809	0.340324	2	0.0123082	40	34.9889	0.000233737
2	1	0	1	1	104.153	0.682217	0.681814	0.338731	2	0.012393	40	35.2388	0.000230951
2	1	0	1	1	104.403	0.677219	0.676929	0.339563	2	0.0124777	40	35.4887	0.00022986
2	1	0	1	1	104.653	0.67222	0.671891	0.337697	2	0.0125622	40	35.7386	0.000226896
2	1	0	1	1	104.903	0.667224	0.666893	0.336125	2	0.0126463	40	35.9884	0.000224159
2	1	0	1	1	105.153	0.662227	0.661977	0.336347	2	0.0127303	40	36.2383	0.000222654
2	1	0	1	1	105.403	0.657229	0.656964	0.33645	2	0.0128143	40	36.4882	0.000221035
2	1	0	1	1	105.652	0.652231	0.651894	0.335117	2	0.0128981	40	36.7381	0.000218461
2	1	0	1	1	105.902	0.647232	0.646842	0.334249	2	0.0129816	40	36.988	0.000216206
2	1	0	1	1	106.152	0.642236	0.641937	0.333434	2	0.0130649	40	37.2378	0.000214044
2	1	0	1	1	106.402	0.637239	0.636935	0.333089	2	0.0131481	40	37.4877	0.000212156
2	1	0	1	1	106.652	0.632241	0.631847	0.331495	2	0.0132311	40	37.7376	0.000209454
2	1	0	1	1	106.902	0.627243	0.626946	0.331205	2	0.0133138	40	37.9875	0.000207648
2	1	0	1	1	107.152	0.622244	0.62187	0.329768	2	0.0133961	40	38.2374	0.000205073
2	1	0	1	1	107.402	0.617248	0.616983	0.327017	2	0.0134782	40	38.4872	0.000201764
2	1	0	1	1	107.651	0.612251	0.611838	0.324424	2	0.0135596	40	38.7371	0.000198495
2	1	0	1	1	107.901	0.607253	0.60696	0.3237	2	0.0136405	40	38.987	0.000196473
2	1	0	1	1	108.151	0.602255	0.601841	0.321136	2	0.013721	40	39.2369	0.000193273
2	1	0	1	1	108.401	0.597257	0.597004	0.319202	2	0.0138008	40	39.4868	0.000190565
2	1	0	1	1	108.651	0.59226	0.592049	0.315228	2	0.01388	40	39.7366	0.00018663
2	1	0	1	1	108.901	0.587263	0.587054	0.311228	2	0.0139581	40	39.9865	0.000182708
2	1	0	1	1	109.151	0.582265	0.581963	0.306985	2	0.0140353	40	40.2364	0.000178654
2	1	0	1	1	109.401	0.577267	0.576897	0.301347	2	0.0141112	40	40.4863	0.000173846
2	1	0	1	1	109.651	0.57227	0.571863	0.296364	2	0.0141858	40	40.7362	0.000169479
2	1	0	1	1	109.9	0.567272	0.567173	0.289292	2	0.0142589	40	40.986	0.000164078
2	1	0	1	1	110.15	0.562275	0.561936	0.282373	2	0.0143303	40	41.2359	0.000158676
2	1	0	1	1	110.4	0.557277	0.557042	0.274572	2	0.0143998	40	41.4858	0.000152948
2	1	0	1	1	110.65	0.552279	0.551944	0.265876	2	0.0144672	40	41.7357	0.000146749
2	1	0	1	1	110.9	0.547282	0.546906	0.256698	2	0.0145324	40	41.9856	0.00014039
2	1	0	1	1	111.15	0.542284	0.541976	0.245886	2	0.0145951	40	42.2354	0.000133264
2	1	0	1	1	111.4	0.537286	0.537104	0.23465	2	0.014655	40	42.4853	0.000126032
2	1	0	1	1	111.65	0.532289	0.532173	0.223445	2	0.0147122	40	42.7352	0.000118912
2	1	0	1	1	111.899	0.527291	0.526933	0.211495	2	0.0147664	40	42.9851	0.000111444
2	1	0	1	1	112.149	0.522294	0.522303	0.199349	2	0.0148177	40	43.235	0.000104121
2	1	0	1	1	112.399	0.517296	0.516906	0.186935	2	0.0148658	40	43.4848	9.66278e-05
2	1	0	1	1	112.649	0.512299	0.512129	0.174491	2	0.0149109	40	43.7347	8.9362e-05
2	1	0	1	1	112.899	0.507301	0.506945	0.162148	2	0.0149529	40	43.9846	8.22001e-05
2	1	0	1	1	113.149	0.502303	0.501974	0.149797	2	0.0149917	40	44.2345	7.51944e-05
2	1	0	1	1	113.399	0.497306	0.49697	0.137798	2	0.0150276	40	44.4844	6.84812e-05
2	1	0	1	1	113.649	0.492308	0.492177	0.126503	2	0.0150605	40	44.7342	6.22619e-05
2	1	0	1	1	113.898	0.48731	0.487201	0.115599	2	0.0150906	40	44.9841	5.63199e-05
2	1	0	1	1	114.148	0.482313	0.482031	0.104872	2	0.0151181	40	45.234	5.05518e-05
2	1	0	1	1	114.398	0.477315	0.477041	0.0951019	2	0.015143	40	45.4839	4.53675e-05
2	1	0	1	1	114.648	0.472318	0.472079	0.0858294	2	0.0151655	40	45.7338	4.05182e-05
2	1	0	1	1	114.898	0.46732	0.467042	0.0771063	2	0.0151857	40	45.9836	3.60119e-05
2	1	0	1	1	115.148	0.462322	0.462086	0.0691809	2	0.0152039	40	46.2335	3.19675e-05
2	1	0	1	1	115.398	0.457325	0.456939	0.0619852	2	0.0152202	40	46.4834	2.83234e-05
2	1	0	1	1	115.648	0.452327	0.451984	0.0552238	2	0.0152348	40	46.7333	2.49602e-05
2	1	0	1	1	115.898	0.44733	0.447137	0.0492207	2	0.0152477	40	46.9832	2.20084e-05
2	1	0	1	1	116.162	0.442032	0.441759	0.0434329	2	0.0152599	40	47.248	1.91869e-05
2	1	0	1	1	116.427	0.436735	0.436466	0.0380692	2	0.0152707	41	47.5129	1.66159e-05
2	1	0	1	1	116.677	0.431737	0.431392	0.0338426	2	0.0152796	41	47.7628	1.45994e-05
2	1	0	1	1	116.927	0.426739	0.426522	0.0300232	2	0.0152876	41	48.0127	1.28056e-05
2	1	0	1	1	117.177	0.421741	0.421361	0.0266513	2	0.0152947	41	48.2626	1.12298e-05
2	1	0	1	1	117.427	0.416744	0.416607	0.0236566	2	0.0153009	41	48.5124	9.85553e-06
2	1	0	1	1	117.677	0.411747	0.41147	0.0210356	2	0.0153065	41	48.7623	8.65552e-06
2	1	0	1	1	117.927	0.406749	0.406469	0.0186213	2	0.0153114	41	49.0122	7.569e-06
2	1	0	1	1	118.176	0.401751	0.401577	0.016489	2	0.0153158	41	49.2621	6.62158e-06
2	1	0	1	1	118.426	0.396753	0.396537	0.0145447	2	0.0153197	41	49.512	5.76752e-06
2	1	0	1	1	118.676	0.391756	0.391488	0.0127352	2	0.0153231	41	49.7618	4.9857e-06
2	1	0	1	1	118.926	0.386759	0.386643	0.011177	2	0.015326	41	50.0117	4.3215e-06
2	1	0	1	1	119.176	0.381761	0.381596	0.00978545	2	0.0153286	41	50.2616	3.73409e-06
2	1	0	1	1	119.426	0.376763	0.376505	0.0085065	2	0.0153309	41	50.5115	3.20274e-06
2	1	0	1	1	119.676	0.371765	0.371348	0.00737222	2	0.0153329	41	50.7614	2.73766e-06
2	1	0	1	1	119.926	0.366768	0.366553	0.00637323	2	0.0153346	41	51.0112	2.33613e-06
2	1	0	1	1	120.175	0.361771	0.361504	0.00548956	2	0.015336	41	51.2611	1.9845e-06
2	1	0	1	1	120.425	0.356773	0.356484	0.00469623	2	0.0153373	41	51.511	1.67413e-06
2	1	0	1	1	120.705	0.351176	0.350873	0.00387356	2	0.0153385	42	51.7909	1.35913e-06
2	1	0	1	1	120.955	0.346178	0.345855	0.00326072	2	0.0153394	42	52.0407	1.12774e-06
2	1	0	1	1	121.205	0.34118	0.340884	0.0027449	2	0.0153401	42	52.2906	9.35695e-07
2	1	0	1	1	121.455	0.336183	0.335922	0.00227522	2	0.0153407	42	52.5405	7.64295e-07
2	1	0	1	1	121.705	0.331185	0.330849	0.00187482	2	0.0153413	42	52.7904	6.20282e-07
2	1	0	1	1	121.955	0.326188	0.325768	0.0015194	2	0.0153417	42	53.0403	4.9497e-07
2	1	0	1	1	122.204	0.32119	0.320866	0.00118093	2	0.015342	42	53.2901	3.78922e-07
2	1	0	1	1	122.454	0.316192	0.316072	0.000930365	2	0.0153423	42	53.54	2.94062e-07
2	1	0	1	1	122.704	0.311195	0.311058	0.000693126	2	0.0153425	42	53.7899	2.15602e-07
2	1	0	1	1	122.954	0.306197	0.305991	0.000459059	2	0.0153426	42	54.0398	1.40468e-07
2	1	0	1	1	123.234	0.3006	0.300413	0.000245026	2	0.0153427	43	54.3196	7.3609e-08
2	1	0	1	1	123.484	0.295602	0.295405	0.000100385	2	0.0153428	43	54.5695	2.96542e-08
2	0	0	1	1	123.734	0.290605	0.290424	-3.59033e-05	2	0.0153428	43	0.000000000000000E+000	-1.04272e-08
2	0	0	1	1	123.984	0.285607	0.285303	-0.000162169	2	0.0153428	43	0.2499	-4.62672e-08
2	0	0	1	1	124.234	0.280609	0.280554	-0.000263208	2	0.0153427	43	0.4998	-7.3844e-08
2	0	0	1	1	124.483	0.275613	0.275304	-0.00035483	2	0.0153426	43	0.7496	-9.7686e-08
2	0	0	1	1	124.733	0.270614	0.270341	-0.000442949	2	0.0153425	43	0.9995	-1.19747e-07
2	0	0	1	1	124.983	0.265617	0.265458	-0.000511935	2	0.0153424	43	1.2494	-1.35897e-07
2	0	0	1	1	125.233	0.260619	0.260243	-0.000565229	2	0.0153423	43	1.4993	-1.47097e-07
2	0	0	1	1	125.483	0.255621	0.255319	-0.000615766	2	0.0153421	43	1.7492	-1.57217e-07
2	0	0	1	1	125.733	0.250625	0.25037	-0.000666668	2	0.015342	43	1.999	-1.66914e-07
2	0	0	1	1	125.983	0.245626	0.245154	-0.000701872	2	0.0153418	43	2.2489	-1.72067e-07
2	0	0	1	1	126.233	0.240629	0.240351	-0.000730143	2	0.0153416	43	2.4988	-1.7549e-07
2	0	0	1	1	126.482	0.235631	0.235468	-0.000766734	2	0.0153414	43	2.7487	-1.80541e-07
2	0	0	1	1	126.732	0.230633	0.230415	-0.000789486	2	0.0153412	43	2.9986	-1.8191e-07
2	0	0	1	1	126.982	0.225637	0.225421	-0.000806713	2	0.015341	43	3.2484	-1.8185e-07
2	0	0	1	1	127.232	0.220638	0.220336	-0.000847868	2	0.0153408	43	3.4983	-1.86816e-07
2	0	0	1	1	127.482	0.215641	0.215281	-0.000851035	2	0.0153406	43	3.7482	-1.83212e-07
2	0	0	1	1	127.732	0.210643	0.210151	-0.00086397	2	0.0153404	43	3.9981	-1.81564e-07
2	0	0	1	1	127.982	0.205645	0.205576	-0.000874379	2	0.0153402	43	4.248	-1.79751e-07
2	0	0	1	1	128.232	0.20065	0.200534	-0.00088617	2	0.01534	43	4.4978	-1.77707e-07
2	0	0	1	1	128.481	0.19565	0.195408	-0.000888609	2	0.0153397	43	4.7477	-1.73642e-07
2	0	0	1	1	128.731	0.190653	0.190424	-0.000911516	2	0.0153395	43	4.9976	-1.73574e-07
2	0	0	1	1	128.981	0.185655	0.185346	-0.000903339	2	0.0153393	43	5.2475	-1.6743e-07
2	0	0	1	1	129.231	0.180657	0.180227	-0.00091252	2	0.0153391	43	5.4974	-1.64461e-07
2	0	0	1	1	129.481	0.17566	0.175482	-0.000920527	2	0.0153388	43	5.7473	-1.61536e-07
2	0	0	1	1	129.731	0.170662	0.170438	-0.000930026	2	0.0153386	43	5.9971	-1.58512e-07
2	0	0	1	1	129.981	0.165665	0.165336	-0.000928656	2	0.0153384	43	6.247	-1.53541e-07
2	0	0	1	1	130.231	0.160667	0.160659	-0.000915338	2	0.0153381	43	6.4969	-1.47057e-07
2	0	0	1	1	130.481	0.155669	0.155396	-0.000914654	2	0.0153379	43	6.7468	-1.42134e-07
2	0	0	1	1	130.73	0.150672	0.150351	-0.000922376	2	0.0153377	43	6.9967	-1.3868e-07
2	0	0	1	1	130.98	0.145674	0.145479	-0.000926215	2	0.0153375	43	7.2465	-1.34745e-07
2	0	0	1	1	131.23	0.140677	0.140419	-0.000929056	2	0.0153372	43	7.4964	-1.30457e-07
2	0	0	1	1	131.48	0.135679	0.135575	-0.00094498	2	0.015337	43	7.7463	-1.28116e-07
2	0	0	1	1	131.73	0.130681	0.130324	-0.000918697	2	0.0153368	43	7.9962	-1.19728e-07
2	0	0	1	1	131.98	0.125684	0.125661	-0.000918609	2	0.0153365	43	8.2461	-1.15433e-07
2	0	0	1	1	132.23	0.120686	0.120598	-0.000928754	2	0.0153363	43	8.4959	-1.12006e-07
2	0	0	1	1	132.48	0.115688	0.115561	-0.000927517	2	0.0153361	43	8.7458	-1.07185e-07
2	0	0	1	1	132.729	0.110691	0.110531	-0.000918362	2	0.0153358	43	8.9957	-1.01507e-07
2	0	0	1	1	132.979	0.105693	0.105366	-0.000924777	2	0.0153356	43	9.2456	-9.744e-08
2	0	0	1	1	133.229	0.100696	0.100411	-0.000925029	2	0.0153354	43	9.4955	-9.28833e-08
2	0	0	1	1	133.479	0.0956981	0.0954718	-0.000919592	2	0.0153351	43	9.7453	-8.77951e-08
2	0	0	1	1	133.729	0.0907005	0.0905345	-0.000922783	2	0.0153349	43	9.9952	-8.35437e-08
2	0	0	1	1	133.979	0.0857029	0.0854213	-0.00091952	2	0.0153347	43	10.2451	-7.85466e-08
2	0	0	1	1	134.229	0.0807053	0.0806685	-0.000924175	2	0.0153344	43	10.495	-7.45518e-08
2	0	0	1	1	134.479	0.0757077	0.0754725	-0.000915241	2	0.0153342	43	10.7449	-6.90755e-08
2	0	0	1	1	134.728	0.0707101	0.0704165	-0.000914626	2	0.015334	43	10.9947	-6.44047e-08
2	0	0	1	1	134.978	0.0657125	0.0653895	-0.000910786	2	0.0153338	43	11.2446	-5.95559e-08
2	0	0	1	1	135.228	0.0607149	0.0603707	-0.000913049	2	0.0153335	43	11.4945	-5.51214e-08
2	0	0	1	1	135.478	0.0557173	0.0556054	-0.000921454	2	0.0153333	43	11.7444	-5.12378e-08
2	0	0	1	1	135.728	0.0507196	0.0506094	-0.000918402	2	0.0153331	43	11.9943	-4.64798e-08
2	0	0	1	1	135.978	0.0457203	0.0455625	-0.000927833	2	0.0153328	43	12.2442	-4.22744e-08
2	0	0	1	1	136.228	0.0407244	0.0403994	-0.000931259	2	0.0153326	43	12.494	-3.76223e-08
2	0	0	1	1	136.478	0.0357268	0.0355168	-0.000928886	2	0.0153324	43	12.7439	-3.29911e-08
2	0	0	1	1	136.728	0.0307292	0.0306783	-0.00092628	2	0.0153321	43	12.9938	-2.84167e-08
2	0	0	1	1	136.977	0.0257316	0.0255049	-0.000932508	2	0.0153319	43	13.2437	-2.37835e-08
2	0	0	1	1	137.227	0.0207322	0.0204946	-0.000945964	2	0.0153317	43	13.4936	-1.93872e-08
2	0	0	1	1	137.477	0.0157364	0.0154365	-0.000945547	2	0.0153314	43	13.7434	-1.45959e-08
2	0	0	1	1	137.727	0.0107388	0.0104245	-0.000949715	2	0.0153312	43	13.9933	-9.90027e-09
2	0	0	1	1	137.977	0.00574119	0.00543707	-0.000969169	2	0.015331	43	14.2432	-5.26944e-09
2	0	0	1	1	138.227	0.000743588	0.000407666	-0.000977048	2	0.0153307	43	14.4931	-3.98309e-10
2	0	0	1	0	138.512	0.00499155	0.00474247	-0.000156571	2	0.0153306	43	14.7784	-7.42531e-10
2	0	0	1	0	138.762	0.00998916	0.00987605	-1.43238e-05	2	0.0153306	43	15.0283	-1.41462e-10
2	1	0	1	0	139.012	0.0149868	0.0147182	7.21254e-05	2	0.0153306	43	0.1749	1.06156e-09
2	1	0	1	0	139.262	0.0199844	0.0196312	0.000143706	2	0.0153306	43	0.4248	2.82112e-09
2	1	0	1	0	139.512	0.0249829	0.0246522	0.00019328	2	0.0153307	43	0.6747	4.76478e-09
2	1	0	1	0	139.762	0.0299796	0.0297748	0.000230139	2	0.0153307	43	0.9245	6.85234e-09
2	1	0	1	0	139.936	0.0335029	0.0331514	0.000251662	2	0.0153308	43	1.0993	8.34296e-09