File: Python/Experiments/RDE/Dicarboxylferrocene/Data/240327-CVEIS-5mM_DiCaFerrocene-1M_NaCl-0000RPM-Ag_AgCl_BLF8-Au_RDE_01_CV_C15.mpt
EC-Lab ASCII FILE
Nb header lines : 59

Cyclic Voltammetry

Run on channel : 15 (SN 19485)
User :
Electrode connection : standard
Potential control : Ewe
Ewe ctrl range : min = -1.00 V, max = 1.00 V
Ewe,I filtering : <None>
Safety Limits :
	Do not start on E overload
Channel : Floating
Acquisition started on : 03/27/2024 12:38:41.023
Loaded Setting File :  C:\Data\mathias\GoldElectrode\240322-CVEIS-5mM_Fe2Fe3-1M_H2SO4-0000RPM-Ag_AgCl_BLF8-GC_RDE.mps
Saved on :
	File : 240327-CVEIS-5mM_DiCaFerrocene-1M_NaCl-0000RPM-Ag_AgCl_BLF8-Au_RDE_01_CV_C15.mpr
	Directory : C:\Data\mathias\GoldElectrode\
	Host : 192.168.0.1
Device : VMP-300 (SN 0826)
Address : USB
EC-Lab for windows v11.52 (software)
Internet server v11.52 (firmware)
Command interpretor v11.52 (firmware)
Electrode material :
Initial state :
Electrolyte :
Comments :
Cable : special
Electrode surface area : 0.001 cm²
Characteristic mass : 0.001 g
Equivalent Weight : 0.000 g/eq.
Density : 0.000 g/cm3
Volume (V) : 0.001 cm³
Cycle Definition : Charge/Discharge alternance
Ei (V)              0.000
vs.                 Eoc
dE/dt               20.000
dE/dt unit          mV/s
E1 (V)              0.700
vs.                 Ref
Step percent        50
N                   10
E range min (V)     -1.000
E range max (V)     1.000
I Range             Auto
I Range min         Unset
I Range max         Unset
I Range init        Unset
Bandwidth           8
E2 (V)              0.000
vs.                 Ref
nc cycles           1
Reverse Scan        1
Ef (V)              0.000
vs.                 Eoc

mode	ox/red	error	control changes	counter inc.	time/s	control/V	Ewe/V	<I>/mA	cycle number	(Q-Qo)/C	I Range	step time/s	P/W
2	1	1	0	0	0.000000000000000E+000	0.0244572	0.023419	1.83462e-05	1	0.0000000E+000	44	0.000000000000000E+000	4.2965e-10
2	1	0	1	0	0.2687	0.0298297	0.0293346	0.000210768	1	4.91565e-08	43	0.2399	6.18279e-09
2	1	0	1	0	0.5186	0.0348273	0.0340284	0.000236762	1	1.0505e-07	43	0.4898	8.05664e-09
2	1	0	1	0	0.7685	0.0398249	0.0392948	0.000251995	1	1.65637e-07	43	0.7397	9.90208e-09
2	1	0	1	0	1.0184	0.0448243	0.0442971	0.000266535	1	2.30097e-07	43	0.9896	1.18067e-08
2	1	0	1	0	1.2682	0.0498201	0.0490963	0.000279084	1	2.97938e-07	43	1.2394	1.3702e-08
2	1	0	1	0	1.5181	0.0548177	0.0543078	0.000291359	1	3.69093e-07	43	1.4893	1.58231e-08
2	1	0	1	0	1.768	0.0598153	0.0593251	0.000303778	1	4.43564e-07	43	1.7392	1.80217e-08
2	1	0	1	0	2.0179	0.0648129	0.0642008	0.000317907	1	5.21399e-07	43	1.9891	2.04099e-08
2	1	0	1	0	2.2678	0.0698118	0.0693272	0.00033263	1	6.02773e-07	43	2.239	2.30603e-08
2	1	0	1	0	2.5176	0.0748081	0.0742538	0.00035199	1	6.87684e-07	43	2.4888	2.61366e-08
2	1	0	1	0	2.7675	0.0798057	0.0791068	0.000362197	1	7.76425e-07	43	2.7387	2.86522e-08
2	1	0	1	0	3.0174	0.0848033	0.084385	0.000377965	1	8.69345e-07	43	2.9886	3.18946e-08
2	1	0	1	0	3.2673	0.0898009	0.0894148	0.000396809	1	9.6658e-07	43	3.2385	3.54806e-08
2	1	0	1	0	3.5172	0.0947999	0.0941097	0.000417832	1	1.06858e-06	43	3.4884	3.9322e-08
2	1	0	1	0	3.767	0.0997961	0.0993322	0.000438358	1	1.17537e-06	43	3.7382	4.35431e-08
2	1	0	1	0	4.0169	0.104794	0.104234	0.000458006	1	1.28763e-06	43	3.9881	4.77399e-08
2	1	0	1	0	4.2668	0.109791	0.109459	0.000482787	1	1.40549e-06	43	4.238	5.28455e-08
2	1	0	1	0	4.5167	0.114789	0.114422	0.000509302	1	1.52938e-06	43	4.4879	5.82751e-08
2	1	0	1	0	4.7666	0.119787	0.119058	0.000536248	1	1.65956e-06	43	4.7378	6.38448e-08
2	1	0	1	0	5.0164	0.124784	0.124197	0.000562211	1	1.7966e-06	43	4.9876	6.98249e-08
2	1	0	1	0	5.2663	0.129782	0.129148	0.000590964	1	1.94073e-06	43	5.2375	7.63221e-08
2	1	0	1	0	5.5162	0.134779	0.13455	0.000624538	1	2.09251e-06	43	5.4874	8.40314e-08
2	1	0	1	0	5.7661	0.139777	0.139091	0.000655647	1	2.2521e-06	43	5.7373	9.11944e-08
2	1	0	1	0	6.016	0.144775	0.144412	0.000686796	1	2.42008e-06	43	5.9872	9.91814e-08
2	1	0	1	0	6.2658	0.149772	0.149307	0.000724494	1	2.59671e-06	43	6.237	1.08172e-07
2	1	0	1	0	6.5157	0.15477	0.154362	0.00076296	1	2.78245e-06	43	6.4869	1.17772e-07
2	1	0	1	0	6.7656	0.159767	0.15897	0.00080177	1	2.97759e-06	43	6.7368	1.27458e-07
2	1	0	1	0	7.0155	0.164765	0.164096	0.000840107	1	3.18252e-06	43	6.9867	1.37858e-07
2	1	0	1	0	7.2654	0.169763	0.169342	0.00088085	1	3.39753e-06	43	7.2366	1.49165e-07
2	1	0	1	0	7.5152	0.17476	0.174059	0.000922495	1	3.62298e-06	43	7.4864	1.60568e-07
2	1	0	1	0	7.7651	0.179758	0.179086	0.000971882	1	3.8594e-06	43	7.7363	1.74051e-07
2	1	0	1	0	8.015	0.184755	0.184176	0.00101457	1	4.10716e-06	43	7.9862	1.86859e-07
2	1	0	1	0	8.2649	0.189753	0.18899	0.00106453	1	4.36678e-06	43	8.2361	2.01185e-07
2	1	0	1	0	8.5447	0.19535	0.194536	0.00111828	1	4.67036e-06	42	8.5159	2.17545e-07
2	1	0	1	0	8.7946	0.200348	0.200035	0.00117149	1	4.95645e-06	42	8.7658	2.34338e-07
2	1	0	1	0	9.0445	0.205346	0.205251	0.00122401	1	5.25641e-06	42	9.0157	2.51229e-07
2	1	0	1	0	9.2944	0.210343	0.210243	0.00128451	1	5.5704e-06	42	9.2656	2.70059e-07
2	1	0	1	0	9.5443	0.215341	0.21488	0.00134822	1	5.89952e-06	42	9.5155	2.89705e-07
2	1	0	1	0	9.7941	0.220338	0.220087	0.00140773	1	6.24407e-06	42	9.7653	3.09824e-07
2	1	0	1	0	10.044	0.225336	0.225075	0.00148051	1	6.60591e-06	42	10.0152	3.33225e-07
2	1	0	1	0	10.2939	0.230334	0.230116	0.00155276	1	6.98539e-06	42	10.2651	3.57315e-07
2	1	0	1	0	10.5438	0.235331	0.235059	0.00163731	1	7.38441e-06	42	10.515	3.84863e-07
2	1	0	1	0	10.7937	0.240329	0.240204	0.00172061	1	7.80378e-06	42	10.7649	4.13299e-07
2	1	0	1	0	11.0435	0.245326	0.244879	0.00182097	1	8.24572e-06	42	11.0147	4.45917e-07
2	1	0	1	0	11.2934	0.250324	0.25013	0.00191094	1	8.71215e-06	42	11.2646	4.77984e-07
2	1	0	1	0	11.5433	0.255322	0.255397	0.00202804	1	9.20529e-06	42	11.5145	5.17954e-07
2	1	0	1	0	11.7932	0.260319	0.260267	0.0021502	1	9.72754e-06	42	11.7644	5.59627e-07
2	1	0	1	0	12.0431	0.265317	0.265306	0.00228906	1	1.02827e-05	42	12.0143	6.07301e-07
2	1	0	1	0	12.293	0.270316	0.270074	0.00243714	1	1.08736e-05	42	12.2642	6.58208e-07
2	1	0	1	0	12.5428	0.275312	0.275322	0.00261374	1	1.15046e-05	42	12.514	7.19619e-07
2	1	0	1	0	12.7927	0.28031	0.280231	0.00278987	1	1.21802e-05	42	12.7639	7.81809e-07
2	1	0	1	0	13.0426	0.285307	0.285092	0.00300198	1	1.29048e-05	42	13.0138	8.55842e-07
2	1	0	1	0	13.2925	0.290305	0.290085	0.00322389	1	1.36828e-05	42	13.2637	9.35203e-07
2	1	0	1	0	13.5424	0.295304	0.294868	0.00347041	1	1.45186e-05	42	13.5136	1.02331e-06
2	1	0	1	0	13.7922	0.3003	0.300083	0.00371303	1	1.54156e-05	42	13.7634	1.11422e-06
2	1	0	1	0	14.0421	0.305298	0.305066	0.00398828	1	1.63776e-05	42	14.0133	1.21669e-06
2	1	0	1	0	14.292	0.310295	0.310119	0.00424331	1	1.74065e-05	42	14.2632	1.31593e-06
2	1	0	1	0	14.5419	0.315293	0.315228	0.00452712	1	1.85033e-05	42	14.5131	1.42707e-06
2	1	0	1	0	14.7918	0.320291	0.320101	0.00479712	1	1.96693e-05	42	14.763	1.53556e-06
2	1	0	1	0	15.0416	0.325288	0.325051	0.00508285	1	2.09042e-05	42	15.0128	1.65218e-06
2	1	0	1	0	15.2915	0.330286	0.330222	0.00535945	1	2.22098e-05	42	15.2627	1.76981e-06
2	1	0	1	0	15.5414	0.335283	0.334946	0.00566249	1	2.35874e-05	42	15.5126	1.89663e-06
2	1	0	1	0	15.7913	0.340281	0.340096	0.0059647	1	2.50405e-05	42	15.7625	2.02857e-06
2	1	0	1	0	16.0412	0.345279	0.345002	0.00630946	1	2.65739e-05	42	16.0124	2.17677e-06
2	1	0	1	0	16.291	0.350276	0.350246	0.00668898	1	2.8196e-05	42	16.2622	2.34279e-06
2	1	0	1	0	16.5409	0.355274	0.354846	0.00712595	1	2.99201e-05	42	16.5121	2.52861e-06
2	1	0	1	0	16.7908	0.360271	0.359891	0.007632	1	3.17622e-05	42	16.762	2.74669e-06
2	1	0	1	0	17.0407	0.365269	0.365075	0.0082318	1	3.37423e-05	42	17.0119	3.00523e-06
2	1	0	1	0	17.2906	0.370267	0.370246	0.0089465	1	3.58867e-05	42	17.2618	3.31241e-06
2	1	0	1	0	17.5404	0.375264	0.374975	0.00980213	1	3.82252e-05	42	17.5116	3.67555e-06
2	1	0	1	0	17.7903	0.380262	0.380143	0.0108105	1	4.07983e-05	42	17.7615	4.10955e-06
2	1	0	1	0	18.0702	0.385859	0.385666	0.0121207	1	4.4004e-05	41	18.0414	4.67456e-06
2	1	0	1	0	18.3201	0.390857	0.390573	0.0135888	1	4.72229e-05	41	18.2913	5.30742e-06
2	1	0	1	0	18.5699	0.395854	0.395526	0.0152334	1	5.08294e-05	41	18.5411	6.02521e-06
2	1	0	1	0	18.8198	0.400852	0.400563	0.0172003	1	5.48878e-05	41	18.791	6.88979e-06
2	1	0	1	0	19.0697	0.405849	0.405632	0.0193967	1	5.94658e-05	41	19.0409	7.86794e-06
2	1	0	1	0	19.3196	0.410847	0.410352	0.0219269	1	6.46325e-05	41	19.2908	8.99773e-06
2	1	0	1	0	19.5695	0.415845	0.415512	0.024677	1	7.0458e-05	41	19.5407	1.02536e-05
2	1	0	1	0	19.8193	0.420842	0.420753	0.0277348	1	7.70042e-05	41	19.7905	1.16695e-05
2	1	0	1	0	20.0692	0.42584	0.425581	0.0309218	1	8.43344e-05	41	20.0404	1.31598e-05
2	1	0	1	0	20.3191	0.430838	0.430506	0.0343383	1	9.24945e-05	41	20.2903	1.47828e-05
2	1	0	1	0	20.569	0.435835	0.435736	0.0377539	1	0.000101511	41	20.5402	1.64507e-05
2	1	0	1	0	20.8189	0.440833	0.440597	0.0412482	1	0.000111393	41	20.7901	1.81738e-05
2	1	0	1	0	21.0687	0.44583	0.445524	0.0445877	1	0.000122122	41	21.0399	1.98649e-05
2	1	0	1	0	21.3186	0.450828	0.450608	0.047677	1	0.000133665	41	21.2898	2.14836e-05
2	1	0	1	0	21.5685	0.455826	0.455434	0.0504454	1	0.000145948	41	21.5397	2.29745e-05
2	1	0	1	0	21.8184	0.460823	0.460654	0.0528547	1	0.000158881	41	21.7896	2.43477e-05
2	1	0	1	0	22.0683	0.465821	0.465763	0.0547836	1	0.000172351	41	22.0395	2.55162e-05
2	1	0	1	0	22.3182	0.47082	0.470427	0.0562305	1	0.000186238	41	22.2894	2.64523e-05
2	1	0	1	0	22.568	0.475816	0.475582	0.0571628	1	0.000200418	41	22.5392	2.71856e-05
2	1	0	1	0	22.8179	0.480814	0.480516	0.0576242	1	0.000214779	41	22.7891	2.76893e-05
2	1	0	1	0	23.0678	0.485811	0.485411	0.0576677	1	0.000229202	41	23.039	2.79926e-05
2	1	0	1	0	23.3177	0.490809	0.490622	0.0573487	1	0.000243586	41	23.2889	2.81365e-05
2	1	0	1	0	23.5676	0.495808	0.495656	0.0566975	1	0.00025785	41	23.5388	2.81025e-05
2	1	0	1	0	23.8174	0.500804	0.500661	0.0558496	1	0.000271918	41	23.7886	2.79617e-05
2	1	0	1	0	24.0673	0.505802	0.505501	0.0547876	1	0.000285749	41	24.0385	2.76952e-05
2	1	0	1	0	24.3172	0.510799	0.510665	0.0535992	1	0.000299301	41	24.2884	2.73712e-05
2	1	0	1	0	24.5671	0.515797	0.515613	0.0523384	1	0.000312549	41	24.5383	2.69863e-05
2	1	0	1	0	24.817	0.520796	0.520473	0.0510855	1	0.00032548	41	24.7882	2.65886e-05
2	1	0	1	0	25.0668	0.525792	0.525641	0.0497639	1	0.000338082	41	25.038	2.61579e-05
2	1	0	1	0	25.3167	0.53079	0.530783	0.0484762	1	0.000350367	41	25.2879	2.57304e-05
2	1	0	1	0	25.5666	0.535787	0.535666	0.0472406	1	0.000362337	41	25.5378	2.53052e-05
2	1	0	1	0	25.8165	0.540785	0.540473	0.0460739	1	0.000374002	41	25.7877	2.49017e-05
2	1	0	1	0	26.0664	0.545783	0.545547	0.0449129	1	0.000385375	41	26.0376	2.45021e-05
2	1	0	1	0	26.3162	0.55078	0.550622	0.0438194	1	0.000396464	41	26.2874	2.41279e-05
2	1	0	1	0	26.5661	0.555778	0.555513	0.0427923	1	0.000407296	41	26.5373	2.37717e-05
2	1	0	1	0	26.816	0.560775	0.560539	0.0418251	1	0.000417877	41	26.7872	2.34446e-05
2	1	0	1	0	27.0659	0.565773	0.56545	0.0409099	1	0.000428225	41	27.0371	2.31325e-05
2	1	0	1	0	27.3158	0.570771	0.57067	0.0400853	1	0.000438354	41	27.287	2.28754e-05
2	1	0	1	0	27.5656	0.575768	0.5757	0.0392636	1	0.000448275	41	27.5368	2.26041e-05
2	1	0	1	0	27.8155	0.580766	0.580356	0.0385454	1	0.000458008	41	27.7867	2.237e-05
2	1	0	1	0	28.0654	0.585763	0.585505	0.0378477	1	0.000467565	41	28.0366	2.216e-05
2	1	0	1	0	28.3153	0.590761	0.590373	0.037204	1	0.000476955	41	28.2865	2.19642e-05
2	1	0	1	0	28.5652	0.595759	0.595389	0.0366053	1	0.000486188	41	28.5364	2.17944e-05
2	1	0	1	0	28.815	0.600756	0.60071	0.0360229	1	0.00049527	41	28.7862	2.16393e-05
2	1	0	1	0	29.0649	0.605754	0.605492	0.0354896	1	0.000504216	41	29.0361	2.14887e-05
2	1	0	1	0	29.3148	0.610751	0.610471	0.0349905	1	0.000513035	41	29.286	2.13607e-05
2	1	0	1	0	29.5647	0.615749	0.615438	0.0345237	1	0.000521736	41	29.5359	2.12472e-05
2	1	0	1	0	29.8146	0.620746	0.620576	0.0340958	1	0.000530324	41	29.7858	2.1159e-05
2	1	0	1	0	30.0644	0.625744	0.625406	0.0337064	1	0.000538805	41	30.0356	2.10802e-05
2	1	0	1	0	30.3143	0.630742	0.630431	0.0333421	1	0.000547193	41	30.2855	2.10199e-05
2	1	0	1	0	30.5642	0.635739	0.635543	0.0329558	1	0.00055549	41	30.5354	2.09448e-05
2	1	0	1	0	30.8141	0.640737	0.640359	0.0326709	1	0.000563704	41	30.7853	2.09211e-05
2	1	0	1	0	31.064	0.645735	0.645627	0.0323565	1	0.00057184	41	31.0352	2.08902e-05
2	1	0	1	0	31.3138	0.650732	0.650324	0.0320824	1	0.000579898	41	31.285	2.0864e-05
2	1	0	1	0	31.5637	0.65573	0.655401	0.0318038	1	0.000587893	41	31.5349	2.08442e-05
2	1	0	1	0	31.8136	0.660727	0.660514	0.0315913	1	0.000595829	41	31.7848	2.08665e-05
2	1	0	1	0	32.0635	0.665725	0.665324	0.0314128	1	0.000603712	41	32.0347	2.08997e-05
2	1	0	1	0	32.3134	0.670723	0.670515	0.03122	1	0.000611547	41	32.2846	2.09335e-05
2	1	0	1	0	32.5632	0.67572	0.675422	0.0310578	1	0.00061934	41	32.5344	2.09771e-05
2	1	0	1	0	32.8131	0.680718	0.680409	0.030909	1	0.000627103	41	32.7843	2.10308e-05
2	1	0	1	0	33.063	0.685715	0.68541	0.0308625	1	0.000634838	41	33.0342	2.11535e-05
2	1	0	1	0	33.3129	0.690713	0.690673	0.0307768	1	0.000642555	41	33.2841	2.12567e-05
2	1	0	1	0	33.5628	0.695711	0.695446	0.0307602	1	0.00065026	41	33.534	2.13921e-05
2	1	0	1	0	33.7908	0.699709	0.699376	0.0302906	1	0.000657275	41	33.762	2.11845e-05
2	1	0	1	0	34.0407	0.694711	0.694515	0.0290072	1	0.000664637	41	34.0119	2.01459e-05
2	1	0	1	0	34.2906	0.689713	0.689223	0.0282911	1	0.000671772	41	34.2618	1.94989e-05
2	1	0	1	0	34.5405	0.684716	0.684544	0.0277137	1	0.000678752	41	34.5117	1.89713e-05
2	1	0	1	0	34.7904	0.679718	0.679309	0.0272734	1	0.000685606	41	34.7616	1.8527e-05
2	1	0	1	0	35.0402	0.674721	0.674614	0.0268858	1	0.000692353	41	35.0114	1.81375e-05
2	1	0	1	0	35.2901	0.669723	0.669293	0.02656	1	0.000699013	41	35.2613	1.77764e-05
2	1	0	1	0	35.54	0.664725	0.664535	0.0262668	1	0.000705599	41	35.5112	1.74552e-05
2	1	0	1	0	35.7899	0.659728	0.659578	0.0260189	1	0.000712115	41	35.7611	1.71615e-05
2	1	0	1	0	36.0398	0.65473	0.654456	0.0257901	1	0.000718574	41	36.011	1.68785e-05
2	1	0	1	0	36.2896	0.649733	0.649365	0.0255974	1	0.000724978	41	36.2608	1.66221e-05
2	1	0	1	0	36.5395	0.644735	0.644496	0.0254033	1	0.000731336	41	36.5107	1.63723e-05
2	1	0	1	0	36.7894	0.639737	0.639388	0.0252389	1	0.000737647	41	36.7606	1.61374e-05
2	1	0	1	0	37.0393	0.63474	0.634477	0.0250514	1	0.000743912	41	37.0105	1.58945e-05
2	1	0	1	0	37.2892	0.629742	0.629426	0.0248685	1	0.000750134	41	37.2604	1.56529e-05
2	1	0	1	0	37.539	0.624745	0.624503	0.0246863	1	0.000756309	41	37.5102	1.54167e-05
2	1	0	1	0	37.7889	0.619747	0.619558	0.0244971	1	0.000762444	41	37.7601	1.51773e-05
2	1	0	1	0	38.0388	0.614749	0.614248	0.0243441	1	0.000768535	41	38.01	1.49533e-05
2	1	0	1	0	38.2887	0.609752	0.609453	0.0241428	1	0.000774579	41	38.2599	1.47139e-05
2	1	0	1	0	38.5386	0.604754	0.604421	0.0239592	1	0.000780576	41	38.5098	1.44814e-05
2	1	0	1	0	38.7884	0.599757	0.599362	0.0237705	1	0.000786524	41	38.7596	1.42471e-05
2	1	0	1	0	39.0383	0.594759	0.594521	0.0235419	1	0.000792422	41	39.0095	1.39962e-05
2	1	0	1	0	39.2882	0.589761	0.589368	0.0233393	1	0.000798268	41	39.2594	1.37554e-05
2	1	0	1	0	39.5381	0.584764	0.584458	0.0230844	1	0.000804056	41	39.5093	1.34919e-05
2	1	0	1	0	39.788	0.579766	0.579387	0.0228214	1	0.000809779	41	39.7592	1.32224e-05
2	1	0	1	0	40.0378	0.574769	0.57455	0.0225254	1	0.000815429	41	40.009	1.2942e-05
2	1	0	1	0	40.2877	0.569771	0.569291	0.0221898	1	0.000821005	41	40.2589	1.26324e-05
2	1	0	1	0	40.5376	0.564773	0.564507	0.021804	1	0.000826491	41	40.5088	1.23085e-05
2	1	0	1	0	40.7875	0.559776	0.559526	0.0213838	1	0.000831877	41	40.7587	1.19648e-05
2	1	0	1	0	41.0374	0.554778	0.554678	0.020878	1	0.000837149	41	41.0086	1.15806e-05
2	1	0	1	0	41.2872	0.54978	0.549591	0.0202979	1	0.000842285	41	41.2584	1.11555e-05
2	1	0	1	0	41.5371	0.544783	0.544444	0.019631	1	0.000847267	41	41.5083	1.0688e-05
2	1	0	1	0	41.787	0.539785	0.539497	0.0188499	1	0.000852069	41	41.7582	1.01695e-05
2	1	0	1	0	42.0369	0.534788	0.53451	0.0179683	1	0.000856661	41	42.0081	9.60421e-06
2	1	0	1	0	42.2868	0.52979	0.529371	0.0169171	1	0.00086101	41	42.258	8.95544e-06
2	1	0	1	0	42.5366	0.524793	0.524574	0.0156808	1	0.000865076	41	42.5078	8.22572e-06
2	1	0	1	0	42.7865	0.519795	0.519473	0.0143136	1	0.000868821	41	42.7577	7.43554e-06
2	1	0	1	0	43.0364	0.514797	0.514475	0.0127379	1	0.000872194	41	43.0076	6.55332e-06
2	1	0	1	0	43.2863	0.5098	0.509309	0.0108702	1	0.00087514	41	43.2575	5.5363e-06
2	1	0	1	0	43.5362	0.504802	0.504503	0.00882154	1	0.000877601	41	43.5074	4.45049e-06
2	1	0	1	0	43.786	0.499805	0.499445	0.00652363	1	0.000879513	41	43.7572	3.25819e-06
2	1	0	1	0	44.0659	0.494207	0.493933	0.00364005	1	0.000880947	42	44.0371	1.79794e-06
2	1	0	1	0	44.3158	0.48921	0.488788	0.000743528	1	0.000881495	42	44.287	3.63428e-07
2	0	0	1	0	44.5657	0.484212	0.483938	-0.00231523	1	0.000881303	42	0.1499	-1.12043e-06
2	0	0	1	0	44.8156	0.479214	0.479032	-0.00554395	1	0.000880324	42	0.3998	-2.65573e-06
2	0	0	1	0	45.0654	0.474217	0.473825	-0.008879	1	0.000878523	42	0.6496	-4.20709e-06
2	0	0	1	0	45.3453	0.468619	0.468471	-0.0126126	1	0.000875518	41	0.9295	-5.90865e-06
2	0	0	1	0	45.5952	0.463622	0.463324	-0.0159932	1	0.000871934	41	1.1794	-7.41001e-06
2	0	0	1	0	45.8451	0.458624	0.458431	-0.0191546	1	0.000867534	41	1.4293	-8.78105e-06
2	0	0	1	0	46.0949	0.453627	0.453593	-0.0220354	1	0.000862375	41	1.6791	-9.99512e-06
2	0	0	1	0	46.3448	0.448629	0.448142	-0.0246592	1	0.000856525	41	1.929	-1.10508e-05
2	0	0	1	0	46.5947	0.443631	0.443305	-0.0267631	1	0.000850085	41	2.1789	-1.18642e-05
2	0	0	1	0	46.8446	0.438634	0.438353	-0.0284943	1	0.00084316	41	2.4288	-1.24906e-05
2	0	0	1	0	47.0945	0.433636	0.433264	-0.0296662	1	0.000835873	41	2.6787	-1.28533e-05
2	0	0	1	0	47.3443	0.428639	0.428253	-0.0304231	1	0.000828349	41	2.9285	-1.30288e-05
2	0	0	1	0	47.5942	0.423641	0.423155	-0.0307145	1	0.000820693	41	3.1784	-1.2997e-05
2	0	0	1	0	47.8441	0.418643	0.418226	-0.0305935	1	0.000813015	41	3.4283	-1.2795e-05
2	0	0	1	0	48.094	0.413646	0.413288	-0.0301684	1	0.000805408	41	3.6782	-1.24682e-05
2	0	0	1	0	48.3439	0.408648	0.408372	-0.0294488	1	0.000797949	41	3.9281	-1.20261e-05
2	0	0	1	0	48.5937	0.40365	0.403306	-0.0285051	1	0.000790698	41	4.1779	-1.14963e-05
2	0	0	1	0	48.8436	0.398653	0.398276	-0.0274589	1	0.000783692	41	4.4278	-1.09362e-05
2	0	0	1	0	49.0935	0.393655	0.393574	-0.0262899	1	0.000776966	41	4.6777	-1.0347e-05
2	0	0	1	0	49.3434	0.388658	0.388553	-0.0251199	1	0.000770536	41	4.9276	-9.76041e-06
2	0	0	1	0	49.5933	0.38366	0.383381	-0.023907	1	0.000764405	41	5.1775	-9.16549e-06
2	0	0	1	0	49.8432	0.378661	0.378256	-0.022737	1	0.000758574	41	5.4274	-8.60038e-06
2	0	0	1	0	50.093	0.373665	0.373496	-0.0215572	1	0.000753035	41	5.6772	-8.05151e-06
2	0	0	1	0	50.3429	0.368667	0.368298	-0.0204835	1	0.000747774	41	5.9271	-7.54405e-06
2	0	0	1	0	50.5928	0.36367	0.363461	-0.0194697	1	0.000742776	41	6.177	-7.07647e-06
2	0	0	1	0	50.8427	0.358672	0.358672	-0.0185295	1	0.000738021	41	6.4269	-6.64601e-06
2	0	0	1	0	51.0926	0.353673	0.353119	-0.0176444	1	0.000733492	41	6.6768	-6.23057e-06
2	0	0	1	0	51.3424	0.348677	0.348301	-0.0168607	1	0.000729173	41	6.9266	-5.87261e-06
2	0	0	1	0	51.5923	0.343679	0.34349	-0.0161574	1	0.000725039	41	7.1765	-5.5499e-06
2	0	0	1	0	51.8422	0.338682	0.338557	-0.0154995	1	0.000721075	41	7.4264	-5.24746e-06
2	0	0	1	0	52.0921	0.333684	0.333281	-0.0148939	1	0.000717266	41	7.6763	-4.96387e-06
2	0	0	1	0	52.342	0.328686	0.328363	-0.0143778	1	0.000713599	41	7.9262	-4.72113e-06
2	0	0	1	0	52.5918	0.323689	0.323379	-0.0138605	1	0.000710064	41	8.176	-4.48221e-06
2	0	0	1	0	52.8417	0.318691	0.318433	-0.0134184	1	0.000706648	41	8.4259	-4.27287e-06
2	0	0	1	0	53.0916	0.313694	0.313481	-0.0129788	1	0.000703344	41	8.6758	-4.06861e-06
2	0	0	1	0	53.3415	0.308696	0.308549	-0.0125455	1	0.000700148	41	8.9257	-3.8709e-06
2	0	0	1	0	53.5914	0.303698	0.303431	-0.0121175	1	0.000697057	41	9.1756	-3.67683e-06
2	0	0	1	0	53.8412	0.298701	0.298206	-0.0116971	1	0.000694073	41	9.4254	-3.48815e-06
2	0	0	1	0	54.0911	0.293703	0.293477	-0.0113042	1	0.000691193	41	9.6753	-3.31753e-06
2	0	0	1	0	54.341	0.288706	0.288419	-0.0108491	1	0.000688417	41	9.9252	-3.12909e-06
2	0	0	1	0	54.5909	0.283708	0.283496	-0.0104446	1	0.000685743	41	10.1751	-2.96101e-06
2	0	0	1	0	54.8408	0.27871	0.278452	-0.0100535	1	0.000683174	41	10.425	-2.79942e-06
2	0	0	1	0	55.0906	0.273713	0.273284	-0.00962453	1	0.000680708	41	10.6748	-2.63023e-06
2	0	0	1	0	55.3405	0.268715	0.26847	-0.00924948	1	0.000678339	41	10.9247	-2.48321e-06
2	0	0	1	0	55.5904	0.263718	0.263495	-0.00886165	1	0.000676068	41	11.1746	-2.335e-06
2	0	0	1	0	55.8403	0.25872	0.258582	-0.00848985	1	0.00067389	41	11.4245	-2.19532e-06
2	0	0	1	0	56.0902	0.253722	0.253497	-0.00814558	1	0.000671803	41	11.6744	-2.06488e-06
2	0	0	1	0	56.34	0.248725	0.248316	-0.00779052	1	0.000669803	41	11.9242	-1.93451e-06
2	0	0	1	0	56.5899	0.243727	0.243378	-0.00746063	1	0.000667887	41	12.1741	-1.81575e-06
2	0	0	1	0	56.8398	0.23873	0.23841	-0.00715562	1	0.00066605	41	12.424	-1.70597e-06
2	0	0	1	0	57.0897	0.233732	0.233417	-0.00684513	1	0.000664288	41	12.6739	-1.59777e-06
2	0	0	1	0	57.3396	0.228734	0.228561	-0.00660399	1	0.000662598	41	12.9238	-1.50941e-06
2	0	0	1	0	57.5894	0.223737	0.223641	-0.00632467	1	0.000660977	41	13.1736	-1.41446e-06
2	0	0	1	0	57.8393	0.218739	0.218415	-0.00606316	1	0.00065942	41	13.4235	-1.32428e-06
2	0	0	1	0	58.0892	0.213742	0.2136	-0.00583226	1	0.000657925	41	13.6734	-1.24577e-06
2	0	0	1	0	58.3391	0.208744	0.208495	-0.00559462	1	0.000656488	41	13.9233	-1.16645e-06
2	0	0	1	0	58.589	0.203746	0.203331	-0.0053696	1	0.000655109	41	14.1732	-1.09181e-06
2	0	0	1	0	58.8388	0.198749	0.198406	-0.00516762	1	0.000653782	41	14.423	-1.02529e-06
2	0	0	1	0	59.0887	0.193751	0.193336	-0.00494888	1	0.000652508	41	14.6729	-9.56798e-07
2	0	0	1	0	59.3386	0.188753	0.188369	-0.0047735	1	0.000651281	41	14.9228	-8.9918e-07
2	0	0	1	0	59.5885	0.183756	0.183489	-0.0045853	1	0.000650101	41	15.1727	-8.41354e-07
2	0	0	1	0	59.8684	0.178157	0.178151	-0.00443441	1	0.000648834	42	15.4526	-7.89994e-07
2	0	0	1	0	60.1182	0.173161	0.172826	-0.0042814	1	0.000647744	42	15.7024	-7.39939e-07
2	0	0	1	0	60.3681	0.168163	0.167935	-0.00412417	1	0.000646695	42	15.9523	-6.92591e-07
2	0	0	1	0	60.618	0.163166	0.162898	-0.00397464	1	0.000645683	42	16.2022	-6.4746e-07
2	0	0	1	0	60.8679	0.158168	0.157994	-0.00383581	1	0.000644708	42	16.4521	-6.06035e-07
2	0	0	1	0	61.1178	0.153169	0.15288	-0.00369798	1	0.000643767	42	16.702	-5.65347e-07
2	0	0	1	0	61.3676	0.148173	0.147953	-0.00356066	1	0.00064286	42	16.9518	-5.26811e-07
2	0	0	1	0	61.6175	0.143175	0.142864	-0.00344226	1	0.000641984	42	17.2017	-4.91773e-07
2	0	0	1	0	61.8674	0.138178	0.137657	-0.00332665	1	0.000641139	42	17.4516	-4.57936e-07
2	0	0	1	0	62.1173	0.13318	0.133047	-0.00321572	1	0.000640322	42	17.7015	-4.27843e-07
2	0	0	1	0	62.3672	0.128181	0.127805	-0.00309888	1	0.000639532	42	17.9514	-3.96054e-07
2	0	0	1	0	62.617	0.123185	0.122943	-0.00300322	1	0.000638769	42	18.2012	-3.69225e-07
2	0	0	1	0	62.8669	0.118187	0.117986	-0.00289846	1	0.000638031	42	18.4511	-3.41979e-07
2	0	0	1	0	63.1168	0.11319	0.112887	-0.0028115	1	0.000637317	42	18.701	-3.17383e-07
2	0	0	1	0	63.3667	0.108192	0.107898	-0.002719	1	0.000636627	42	18.9509	-2.93373e-07
2	0	0	1	0	63.6166	0.103194	0.102938	-0.002635	1	0.000635958	42	19.2008	-2.71242e-07
2	0	0	1	0	63.8664	0.0981969	0.0978581	-0.00255201	1	0.00063531	42	19.4506	-2.49735e-07
2	0	0	1	0	64.1163	0.0931993	0.0929399	-0.00247351	1	0.000634682	42	19.7005	-2.29888e-07
2	0	0	1	0	64.3662	0.0882017	0.0879061	-0.00239652	1	0.000634074	42	19.9504	-2.10668e-07
2	0	0	1	0	64.6161	0.0832041	0.083127	-0.00232457	1	0.000633483	42	20.2003	-1.93234e-07
2	0	0	1	0	64.866	0.078206	0.0780239	-0.00225535	1	0.00063291	42	20.4502	-1.75971e-07
2	0	0	1	0	65.1158	0.0732089	0.0729866	-0.00219132	1	0.000632353	42	20.7	-1.59937e-07
2	0	0	1	0	65.3657	0.0682113	0.0679013	-0.00212718	1	0.000631813	42	20.9499	-1.44438e-07
2	0	0	1	0	65.6156	0.0632137	0.0628612	-0.00207725	1	0.000631287	42	21.1998	-1.30579e-07
2	0	0	1	0	65.8655	0.058216	0.0578729	-0.00201157	1	0.000630776	42	21.4497	-1.16415e-07
2	0	0	1	0	66.1154	0.0532184	0.0529695	-0.00195974	1	0.000630279	42	21.6996	-1.03806e-07
2	0	0	1	0	66.3652	0.0482208	0.0480962	-0.0019104	1	0.000629796	42	21.9494	-9.18831e-08
2	0	0	1	0	66.6151	0.0432232	0.0430591	-0.00186871	1	0.000629324	42	22.1993	-8.04648e-08
2	0	0	1	0	66.865	0.0382256	0.0378734	-0.00181445	1	0.000628864	42	22.4492	-6.87194e-08
2	0	0	1	0	67.1149	0.033228	0.0328023	-0.00177327	1	0.000628415	42	22.6991	-5.81672e-08
2	0	0	1	0	67.3648	0.0282304	0.0279693	-0.00173266	1	0.000627977	42	22.949	-4.84612e-08
2	0	0	1	0	67.6146	0.0232328	0.0230471	-0.00169434	1	0.000627548	42	23.1988	-3.90496e-08
2	0	0	1	0	67.8645	0.0182352	0.0180847	-0.0016606	1	0.000627129	42	23.4487	-3.00316e-08
2	0	0	1	0	68.1144	0.0132376	0.0132178	-0.00162922	1	0.000626718	42	23.6986	-2.15347e-08
2	0	0	1	0	68.3643	0.00823999	0.00804334	-0.00159682	1	0.000626314	42	23.9485	-1.28438e-08
2	0	0	1	0	68.6142	0.00324239	0.00307608	-0.0015758	1	0.000625918	42	24.1984	-4.8473e-09
2	0	0	1	1	68.8395	0.00129332	0.000984498	-0.000961056	1	0.000625599	42	24.4237	-9.46158e-10
2	0	0	1	1	69.0894	0.00629093	0.00614645	-0.000710482	1	0.000625396	42	24.6736	-4.36694e-09
2	0	0	1	1	69.3392	0.0112876	0.0111597	-0.000555834	1	0.00062524	42	24.9234	-6.20292e-09
2	0	0	1	1	69.5891	0.0162861	0.0160595	-0.000446349	1	0.000625115	42	25.1733	-7.16816e-09
2	0	0	1	1	69.869	0.0218835	0.0216071	-0.000339506	1	0.000625003	43	25.4532	-7.33574e-09
2	0	0	1	1	70.0864	0.0262314	0.0259023	-0.000273662	2	0.000624935	43	25.6706	-7.08847e-09
2	0	0	1	1	70.3363	0.031229	0.0310847	-0.000207963	2	0.000624875	43	25.9205	-6.46446e-09
2	0	0	1	1	70.5862	0.0362275	0.0360546	-0.000153284	2	0.000624831	43	26.1704	-5.5266e-09
2	0	0	1	1	70.836	0.0412242	0.0409817	-9.33048e-05	2	0.000624801	43	26.4202	-3.82378e-09
2	0	0	1	1	71.0859	0.0462218	0.0457633	-3.08795e-05	2	0.000624784	43	26.6701	-1.41315e-09
2	1	0	1	1	71.3358	0.0512194	0.0509002	7.63903e-06	2	0.000624779	43	0.000000000000000E+000	3.88828e-10
2	1	0	1	1	71.5857	0.056217	0.0559683	4.84977e-05	2	0.000624785	43	0.2499	2.71433e-09
2	1	0	1	1	71.8356	0.0612151	0.0610328	8.15252e-05	2	0.000624802	43	0.4998	4.97571e-09
2	1	0	1	1	72.0854	0.0662122	0.0658743	0.000122486	2	0.000624828	43	0.7496	8.06868e-09
2	1	0	1	1	72.3353	0.0712098	0.0709033	0.000156635	2	0.000624864	43	0.9995	1.1106e-08
2	1	0	1	1	72.5852	0.0762074	0.0758985	0.000196458	2	0.000624909	43	1.2494	1.49109e-08
2	1	0	1	1	72.8351	0.081205	0.0812551	0.00022772	2	0.000624963	43	1.4993	1.85034e-08
2	1	0	1	1	73.085	0.0862026	0.0860536	0.000264904	2	0.000625025	43	1.7492	2.27959e-08
2	1	0	1	1	73.3348	0.0912002	0.0908116	0.000284886	2	0.000625094	43	1.999	2.58709e-08
2	1	0	1	1	73.5847	0.0961979	0.0958971	0.000321217	2	0.000625172	43	2.2489	3.08038e-08
2	1	0	1	1	73.8346	0.101195	0.101028	0.00035106	2	0.000625257	43	2.4988	3.54669e-08
2	1	0	1	1	74.0845	0.106193	0.105911	0.000388672	2	0.00062535	43	2.7487	4.11647e-08
2	1	0	1	1	74.3344	0.111191	0.110997	0.000413745	2	0.00062545	43	2.9986	4.59245e-08
2	1	0	1	1	74.5842	0.116188	0.115907	0.000441638	2	0.000625557	43	3.2484	5.1189e-08
2	1	0	1	1	74.8341	0.121186	0.120775	0.000477453	2	0.000625671	43	3.4983	5.76645e-08
2	1	0	1	1	75.084	0.126183	0.126039	0.000497896	2	0.000625792	43	3.7482	6.27543e-08
2	1	0	1	1	75.3339	0.131181	0.130812	0.000528817	2	0.000625921	43	3.9981	6.91754e-08
2	1	0	1	1	75.5838	0.136179	0.135806	0.000558967	2	0.000626057	43	4.248	7.59109e-08
2	1	0	1	1	75.8336	0.141176	0.140773	0.000583802	2	0.0006262	43	4.4978	8.21834e-08
2	1	0	1	1	76.0835	0.146174	0.145935	0.000613954	2	0.00062635	43	4.7477	8.95972e-08
2	1	0	1	1	76.3334	0.151172	0.150916	0.000646055	2	0.000626508	43	4.9976	9.75003e-08
2	1	0	1	1	76.5833	0.156169	0.156078	0.000673697	2	0.000626673	43	5.2475	1.0515e-07
2	1	0	1	1	76.8332	0.161167	0.160955	0.000709622	2	0.000626846	43	5.4974	1.14217e-07
2	1	0	1	1	77.083	0.166164	0.166053	0.000746011	2	0.000627027	43	5.7472	1.23878e-07
2	1	0	1	1	77.3329	0.171162	0.170914	0.00077914	2	0.000627216	43	5.9971	1.33166e-07
2	1	0	1	1	77.5828	0.17616	0.175952	0.000803597	2	0.000627414	43	6.247	1.41395e-07
2	1	0	1	1	77.8327	0.181157	0.180728	0.000847123	2	0.000627621	43	6.4969	1.53099e-07
2	1	0	1	1	78.0826	0.186155	0.186028	0.00088552	2	0.000627837	43	6.7468	1.64731e-07
2	1	0	1	1	78.3324	0.191152	0.190899	0.000927068	2	0.000628063	43	6.9966	1.76976e-07
2	1	0	1	1	78.5823	0.19615	0.19572	0.000966364	2	0.000628298	43	7.2465	1.89137e-07
2	1	0	1	1	78.8322	0.201148	0.200814	0.00101647	2	0.000628545	43	7.4964	2.04122e-07
2	1	0	1	1	79.0821	0.206145	0.205954	0.00105272	2	0.000628804	43	7.7463	2.16812e-07
2	1	0	1	1	79.362	0.211744	0.211626	0.00111513	2	0.00062911	42	8.0262	2.35991e-07
2	1	0	1	1	79.6118	0.21674	0.216165	0.00116588	2	0.000629395	42	8.276	2.52023e-07
2	1	0	1	1	79.8617	0.221738	0.221395	0.00123489	2	0.000629695	42	8.5259	2.73397e-07
2	1	0	1	1	80.1116	0.226735	0.226354	0.00129361	2	0.00063001	42	8.7758	2.92814e-07
2	1	0	1	1	80.3615	0.231733	0.231562	0.00137366	2	0.000630343	42	9.0257	3.18088e-07
2	1	0	1	1	80.6114	0.236731	0.236567	0.0014369	2	0.000630694	42	9.2756	3.39923e-07
2	1	0	1	1	80.8612	0.241728	0.241541	0.00153016	2	0.000631064	42	9.5254	3.69597e-07
2	1	0	1	1	81.1111	0.246726	0.246615	0.0016169	2	0.000631457	42	9.7753	3.98751e-07
2	1	0	1	1	81.361	0.251723	0.251635	0.00171752	2	0.000631875	42	10.0252	4.32187e-07
2	1	0	1	1	81.6109	0.256721	0.256569	0.00183302	2	0.000632319	42	10.2751	4.70295e-07
2	1	0	1	1	81.8608	0.261719	0.261733	0.00196673	2	0.000632793	42	10.525	5.14757e-07
2	1	0	1	1	82.1106	0.266716	0.266505	0.0020971	2	0.000633301	42	10.7748	5.58888e-07
2	1	0	1	1	82.3605	0.271714	0.271521	0.00224909	2	0.000633845	42	11.0247	6.10677e-07
2	1	0	1	1	82.6104	0.276711	0.276536	0.00241949	2	0.00063443	42	11.2746	6.69076e-07
2	1	0	1	1	82.8603	0.281709	0.281287	0.00262004	2	0.00063506	42	11.5245	7.36985e-07
2	1	0	1	1	83.1102	0.286707	0.286481	0.00282161	2	0.000635739	42	11.7744	8.08338e-07
2	1	0	1	1	83.36	0.291704	0.291335	0.00303832	2	0.000636471	42	12.0242	8.8517e-07
2	1	0	1	1	83.6099	0.296702	0.29647	0.00327347	2	0.000637262	42	12.2741	9.70484e-07
2	1	0	1	1	83.8598	0.301699	0.301618	0.00351877	2	0.000638112	42	12.524	1.06133e-06
2	1	0	1	1	84.1097	0.306697	0.306503	0.00376725	2	0.000639026	42	12.7739	1.15468e-06
2	1	0	1	1	84.3596	0.311695	0.311477	0.00404877	2	0.000640005	42	13.0238	1.2611e-06
2	1	0	1	1	84.6094	0.316692	0.316476	0.00431045	2	0.000641049	42	13.2736	1.36416e-06
2	1	0	1	1	84.8593	0.32169	0.321412	0.00457477	2	0.000642159	42	13.5235	1.47039e-06
2	1	0	1	1	85.1092	0.326687	0.326532	0.0048355	2	0.000643337	42	13.7734	1.57895e-06
2	1	0	1	1	85.3591	0.331685	0.331404	0.00511176	2	0.000644583	42	14.0233	1.69406e-06
2	1	0	1	1	85.609	0.336683	0.336397	0.00540408	2	0.000645898	42	14.2732	1.81792e-06
2	1	0	1	1	85.8588	0.34168	0.341166	0.00570574	2	0.000647287	42	14.523	1.9466e-06
2	1	0	1	1	86.1087	0.346678	0.346446	0.00606093	2	0.000648758	42	14.7729	2.09979e-06
2	1	0	1	1	86.3586	0.351675	0.351316	0.00643297	2	0.000650319	42	15.0228	2.26e-06
2	1	0	1	1	86.6085	0.356673	0.356643	0.00689176	2	0.000651981	42	15.2727	2.4579e-06
2	1	0	1	1	86.8584	0.361671	0.361661	0.00740501	2	0.000653765	42	15.5226	2.6781e-06
2	1	0	1	1	87.1082	0.366668	0.366462	0.00803248	2	0.000655692	42	15.7724	2.9436e-06
2	1	0	1	1	87.3581	0.371666	0.371177	0.00876782	2	0.000657788	42	16.0223	3.25441e-06
2	1	0	1	1	87.608	0.376663	0.376325	0.00964432	2	0.000660086	42	16.2722	3.6294e-06
2	1	0	1	1	87.8579	0.381661	0.381472	0.0106946	2	0.000662626	42	16.5221	4.0797e-06
2	1	0	1	1	88.1378	0.38726	0.386886	0.0120822	2	0.000665808	41	16.802	4.67442e-06
2	1	0	1	1	88.3876	0.392256	0.391992	0.0135579	2	0.000669014	41	17.0518	5.31457e-06
2	1	0	1	1	88.6375	0.397254	0.396989	0.0152798	2	0.000672623	41	17.3017	6.0659e-06
2	1	0	1	1	88.8874	0.402251	0.402065	0.0172746	2	0.000676697	41	17.5516	6.9455e-06
2	1	0	1	1	89.1373	0.407249	0.406872	0.019545	2	0.000681303	41	17.8015	7.95229e-06
2	1	0	1	1	89.3872	0.412248	0.412104	0.0221207	2	0.000686512	41	18.0514	9.11604e-06
2	1	0	1	1	89.637	0.417244	0.416859	0.0249025	2	0.000692387	41	18.3012	1.03808e-05
2	1	0	1	1	89.8869	0.422242	0.422041	0.0279476	2	0.000699	41	18.5511	1.1795e-05
2	1	0	1	1	90.1368	0.427239	0.426957	0.031261	2	0.000706403	41	18.801	1.33471e-05
2	1	0	1	1	90.3867	0.432237	0.431986	0.0346021	2	0.000714637	41	19.0509	1.49476e-05
2	1	0	1	1	90.6366	0.437236	0.436801	0.038059	2	0.000723727	41	19.3008	1.66242e-05
2	1	0	1	1	90.8864	0.442232	0.441999	0.0414353	2	0.000733673	41	19.5506	1.83144e-05
2	1	0	1	1	91.1363	0.44723	0.446965	0.0447562	2	0.000744454	41	19.8005	2.00044e-05
2	1	0	1	1	91.3862	0.452227	0.451871	0.047746	2	0.000756022	41	20.0504	2.1575e-05
2	1	0	1	1	91.6361	0.457225	0.456973	0.0504521	2	0.000768309	41	20.3003	2.30553e-05
2	1	0	1	1	91.886	0.462223	0.462074	0.052745	2	0.000781213	41	20.5502	2.43721e-05
2	1	0	1	1	92.1358	0.46722	0.467077	0.0545285	2	0.000794627	41	20.8	2.5469e-05
2	1	0	1	1	92.3857	0.472218	0.471924	0.0558854	2	0.000808424	41	21.0499	2.63736e-05
2	1	0	1	1	92.6356	0.477215	0.477031	0.0566002	2	0.000822493	41	21.2998	2.7e-05
2	1	0	1	1	92.8855	0.482213	0.481988	0.0570227	2	0.000836709	41	21.5497	2.74843e-05
2	1	0	1	1	93.1354	0.487211	0.486823	0.0569715	2	0.000850962	41	21.7996	2.7735e-05
2	1	0	1	1	93.3852	0.492208	0.491955	0.0565282	2	0.000865155	41	22.0494	2.78093e-05
2	1	0	1	1	93.6351	0.497206	0.496958	0.0558859	2	0.000879217	41	22.2993	2.77729e-05
2	1	0	1	1	93.885	0.502203	0.501842	0.0549592	2	0.00089308	41	22.5492	2.75808e-05
2	1	0	1	1	94.1349	0.507201	0.506867	0.0539062	2	0.000906693	41	22.7991	2.73233e-05
2	1	0	1	1	94.3848	0.512199	0.511958	0.0527536	2	0.000920027	41	23.049	2.70076e-05
2	1	0	1	1	94.6346	0.517196	0.516836	0.0514782	2	0.000933048	41	23.2988	2.66058e-05
2	1	0	1	1	94.8845	0.522194	0.521999	0.0502147	2	0.000945759	41	23.5487	2.6212e-05
2	1	0	1	1	95.1344	0.527191	0.526991	0.0489258	2	0.000958151	41	23.7986	2.57834e-05
2	1	0	1	1	95.3843	0.532189	0.531896	0.0476357	2	0.000970224	41	24.0485	2.53372e-05
2	1	0	1	1	95.6342	0.537187	0.53689	0.0464168	2	0.000981986	41	24.2984	2.49207e-05
2	1	0	1	1	95.884	0.542184	0.541961	0.0452623	2	0.000993444	41	24.5482	2.45304e-05
2	1	0	1	1	96.1339	0.547182	0.547043	0.0440954	2	0.00100462	41	24.7981	2.41221e-05
2	1	0	1	1	96.3838	0.552179	0.552018	0.0430584	2	0.00101552	41	25.048	2.3769e-05
2	1	0	1	1	96.6337	0.557177	0.556949	0.0420687	2	0.00102617	41	25.2979	2.34301e-05
2	1	0	1	1	96.8836	0.562175	0.562059	0.0411242	2	0.00103657	41	25.5478	2.31142e-05
2	1	0	1	1	97.1334	0.567172	0.56677	0.0402362	2	0.00104674	41	25.7976	2.28047e-05
2	1	0	1	1	97.3833	0.57217	0.571929	0.0393996	2	0.00105669	41	26.0475	2.25338e-05
2	1	0	1	1	97.6332	0.577167	0.576877	0.0385969	2	0.00106645	41	26.2974	2.22656e-05
2	1	0	1	1	97.8831	0.582165	0.581947	0.0378687	2	0.00107601	41	26.5473	2.20376e-05
2	1	0	1	1	98.133	0.587163	0.586997	0.037158	2	0.00108539	41	26.7972	2.18116e-05
2	1	0	1	1	98.3828	0.59216	0.591901	0.0365204	2	0.0010946	41	27.047	2.16164e-05
2	1	0	1	1	98.6327	0.597158	0.596872	0.0359224	2	0.00110366	41	27.2969	2.14411e-05
2	1	0	1	1	98.8826	0.602155	0.601861	0.0353621	2	0.00111258	41	27.5468	2.12831e-05
2	1	0	1	1	99.1325	0.607153	0.606958	0.0348504	2	0.00112136	41	27.7967	2.11527e-05
2	1	0	1	1	99.3824	0.612151	0.61198	0.0343599	2	0.00113001	41	28.0466	2.10275e-05
2	1	0	1	1	99.6322	0.617148	0.616925	0.033869	2	0.00113855	41	28.2964	2.08947e-05
2	1	0	1	1	99.8821	0.622146	0.62183	0.0334679	2	0.00114697	41	28.5463	2.08113e-05
2	1	0	1	1	100.132	0.627143	0.626964	0.0330736	2	0.0011553	41	28.7962	2.0736e-05
2	1	0	1	1	100.382	0.632141	0.631883	0.0327184	2	0.00116353	41	29.0461	2.06742e-05
2	1	0	1	1	100.632	0.637139	0.637059	0.0323756	2	0.00117167	41	29.296	2.06252e-05
2	1	0	1	1	100.882	0.642136	0.642015	0.0320478	2	0.00117973	41	29.5458	2.05752e-05
2	1	0	1	1	101.131	0.647134	0.646753	0.0317314	2	0.00118771	41	29.7957	2.05224e-05
2	1	0	1	1	101.381	0.652131	0.651698	0.0314914	2	0.00119562	41	30.0456	2.05229e-05
2	1	0	1	1	101.631	0.657129	0.656851	0.0311981	2	0.00120346	41	30.2955	2.04925e-05
2	1	0	1	1	101.881	0.662127	0.662041	0.030998	2	0.00121125	41	30.5454	2.0522e-05
2	1	0	1	1	102.131	0.667124	0.666806	0.0307933	2	0.00121897	41	30.7952	2.05331e-05
2	1	0	1	1	102.381	0.672122	0.671784	0.0305931	2	0.00122666	41	31.0451	2.0552e-05
2	1	0	1	1	102.631	0.677119	0.67706	0.0304225	2	0.00123429	41	31.295	2.05978e-05
2	1	0	1	1	102.881	0.682117	0.681977	0.0302901	2	0.00124189	41	31.5449	2.06571e-05
2	1	0	1	1	103.131	0.687115	0.686968	0.0301803	2	0.00124946	41	31.7948	2.07329e-05
2	1	0	1	1	103.38	0.692112	0.69173	0.0301087	2	0.00125701	41	32.0446	2.08271e-05
2	1	0	1	1	103.63	0.69711	0.696925	0.0300204	2	0.00126453	41	32.2945	2.0922e-05
2	1	0	1	1	103.838	0.698709	0.698454	0.029127	2	0.00127074	41	32.5026	2.03438e-05
2	1	0	1	1	104.088	0.693712	0.693533	0.0282179	2	0.00127788	41	32.7525	1.957e-05
2	1	0	1	1	104.338	0.688714	0.688505	0.0276307	2	0.00128484	41	33.0024	1.90238e-05
2	1	0	1	1	104.588	0.683718	0.683538	0.0271623	2	0.00129167	41	33.2522	1.85664e-05
2	1	0	1	1	104.838	0.678719	0.678333	0.0267893	2	0.00129839	41	33.5021	1.81721e-05
2	1	0	1	1	105.088	0.673721	0.673368	0.0264677	2	0.00130503	41	33.752	1.78225e-05
2	1	0	1	1	105.338	0.668723	0.668371	0.0261555	2	0.00131159	41	34.0019	1.74816e-05
2	1	0	1	1	105.588	0.663726	0.663184	0.0259116	2	0.00131808	41	34.2518	1.71842e-05
2	1	0	1	1	105.837	0.65873	0.658194	0.0256705	2	0.00132451	41	34.5016	1.68962e-05
2	1	0	1	1	106.087	0.653731	0.653409	0.025444	2	0.00133088	41	34.7515	1.66253e-05
2	1	0	1	1	106.337	0.648733	0.648533	0.0252571	2	0.00133721	41	35.0014	1.63801e-05
2	1	0	1	1	106.587	0.643736	0.643382	0.0250541	2	0.00134348	41	35.2513	1.61194e-05
2	1	0	1	1	106.837	0.638738	0.638518	0.0248776	2	0.00134971	41	35.5012	1.58848e-05
2	1	0	1	1	107.087	0.633742	0.633643	0.0246891	2	0.00135589	41	35.751	1.56441e-05
2	1	0	1	1	107.337	0.628743	0.628477	0.0245408	2	0.00136203	41	36.0009	1.54233e-05
2	1	0	1	1	107.587	0.623745	0.62367	0.0243522	2	0.00136812	41	36.2508	1.51877e-05
2	1	0	1	1	107.836	0.618747	0.618583	0.0241786	2	0.00137417	41	36.5007	1.49564e-05
2	1	0	1	1	108.086	0.61375	0.613339	0.0239745	2	0.00138018	41	36.7506	1.47045e-05
2	1	0	1	1	108.336	0.608752	0.608366	0.0237958	2	0.00138613	41	37.0005	1.44765e-05
2	1	0	1	1	108.586	0.603755	0.603266	0.0235916	2	0.00139204	41	37.2503	1.4232e-05
2	1	0	1	1	108.836	0.598757	0.598483	0.0233928	2	0.0013979	41	37.5002	1.40002e-05
2	1	0	1	1	109.086	0.593759	0.593523	0.0231603	2	0.00140371	41	37.7501	1.37462e-05
2	1	0	1	1	109.336	0.588762	0.588449	0.0229161	2	0.00140945	41	38	1.34849e-05
2	1	0	1	1	109.586	0.583764	0.58348	0.0226638	2	0.00141514	41	38.2499	1.32239e-05
2	1	0	1	1	109.835	0.578767	0.578664	0.0223818	2	0.00142076	41	38.4997	1.29515e-05
2	1	0	1	1	110.085	0.573769	0.573521	0.0220688	2	0.0014263	41	38.7496	1.26569e-05
2	1	0	1	1	110.335	0.568771	0.568303	0.021719	2	0.00143176	41	38.9995	1.23429e-05
2	1	0	1	1	110.585	0.563774	0.563606	0.0213175	2	0.00143713	41	39.2494	1.20147e-05
2	1	0	1	1	110.835	0.558776	0.558583	0.0208523	2	0.00144239	41	39.4993	1.16477e-05
2	1	0	1	1	111.085	0.553779	0.553519	0.0203243	2	0.00144752	41	39.7491	1.12499e-05
2	1	0	1	1	111.335	0.548781	0.548568	0.0197154	2	0.00145252	41	39.999	1.08153e-05
2	1	0	1	1	111.585	0.543783	0.543556	0.0190492	2	0.00145736	41	40.2489	1.03543e-05
2	1	0	1	1	111.835	0.538786	0.538454	0.0182523	2	0.00146202	41	40.4988	9.82802e-06
2	1	0	1	1	112.084	0.533788	0.533355	0.0173354	2	0.00146645	41	40.7487	9.24593e-06
2	1	0	1	1	112.334	0.528791	0.52847	0.0162479	2	0.00147064	41	40.9985	8.58652e-06
2	1	0	1	1	112.584	0.523793	0.523591	0.0150018	2	0.00147454	41	41.2484	7.85479e-06
2	1	0	1	1	112.834	0.518795	0.518461	0.0135517	2	0.0014781	41	41.4983	7.02602e-06
2	1	0	1	1	113.084	0.513798	0.51354	0.0119014	2	0.00148128	41	41.7482	6.11183e-06
2	1	0	1	1	113.334	0.5088	0.508534	0.0100065	2	0.00148401	41	41.9981	5.08866e-06
2	1	0	1	1	113.584	0.503803	0.503504	0.00792672	2	0.00148626	41	42.2479	3.99114e-06
2	1	0	1	1	113.834	0.498805	0.498597	0.00559707	2	0.00148794	41	42.4978	2.79068e-06
2	1	0	1	1	114.113	0.493208	0.492984	0.0026306	2	0.00148911	42	42.7777	1.29684e-06
2	0	0	1	1	114.363	0.48821	0.488134	-0.000246983	2	0.00148941	42	0.000000000000000E+000	-1.20561e-07
2	0	0	1	1	114.613	0.483213	0.482923	-0.00330775	2	0.00148896	42	0.2498	-1.59739e-06
2	0	0	1	1	114.863	0.478215	0.478119	-0.00653497	2	0.00148774	42	0.4997	-3.12449e-06
2	0	0	1	1	115.113	0.473217	0.472985	-0.00990552	2	0.00148568	42	0.7496	-4.68516e-06
2	0	0	1	1	115.393	0.46762	0.467338	-0.0136124	2	0.00148241	41	1.0295	-6.36161e-06
2	0	0	1	1	115.643	0.462622	0.46227	-0.016854	2	0.00147859	41	1.2794	-7.79109e-06
2	0	0	1	1	115.893	0.457625	0.457524	-0.0200028	2	0.00147397	41	1.5292	-9.15178e-06
2	0	0	1	1	116.142	0.452627	0.452307	-0.0228521	2	0.00146861	41	1.7791	-1.03361e-05
2	0	0	1	1	116.392	0.447629	0.447537	-0.0253469	2	0.00146258	41	2.029	-1.13437e-05
2	0	0	1	1	116.642	0.442632	0.44229	-0.0273921	2	0.00145597	41	2.2789	-1.21153e-05
2	0	0	1	1	116.892	0.437634	0.437339	-0.0290024	2	0.00144891	41	2.5288	-1.26839e-05
2	0	0	1	1	117.142	0.432637	0.432543	-0.0301195	2	0.00144151	41	2.7786	-1.3028e-05
2	0	0	1	1	117.392	0.427639	0.427406	-0.0307518	2	0.00143389	41	3.0285	-1.31435e-05
2	0	0	1	1	117.642	0.422641	0.422535	-0.0309861	2	0.00142615	41	3.2784	-1.30927e-05
2	0	0	1	1	117.892	0.417644	0.41734	-0.0308548	2	0.00141841	41	3.5283	-1.2877e-05
2	0	0	1	1	118.142	0.412646	0.412509	-0.0303691	2	0.00141075	41	3.7782	-1.25275e-05
2	0	0	1	1	118.391	0.407649	0.407486	-0.0296648	2	0.00140325	41	4.028	-1.2088e-05
2	0	0	1	1	118.641	0.402651	0.402502	-0.028706	2	0.00139594	41	4.2779	-1.15542e-05
2	0	0	1	1	118.891	0.397653	0.397378	-0.0276136	2	0.0013889	41	4.5278	-1.0973e-05
2	0	0	1	1	119.141	0.392656	0.392516	-0.0264787	2	0.00138213	41	4.7777	-1.03933e-05
2	0	0	1	1	119.391	0.387658	0.387375	-0.0252914	2	0.00137565	41	5.0276	-9.79723e-06
2	0	0	1	1	119.641	0.382661	0.382494	-0.0240952	2	0.00136948	41	5.2774	-9.21626e-06
2	0	0	1	1	119.891	0.377663	0.377418	-0.0229315	2	0.00136359	41	5.5273	-8.65475e-06
2	0	0	1	1	120.141	0.372665	0.372369	-0.021793	2	0.001358	41	5.7772	-8.11503e-06
2	0	0	1	1	120.39	0.367668	0.367399	-0.0207302	2	0.00135268	41	6.0271	-7.61627e-06
2	0	0	1	1	120.64	0.36267	0.362328	-0.0197099	2	0.00134762	41	6.277	-7.14143e-06
2	0	0	1	1	120.89	0.357673	0.357628	-0.0187913	2	0.00134281	41	6.5268	-6.7203e-06
2	0	0	1	1	121.14	0.352675	0.352435	-0.0179302	2	0.00133821	41	6.7767	-6.31922e-06
2	0	0	1	1	121.39	0.347677	0.34746	-0.0171557	2	0.00133383	41	7.0266	-5.96091e-06
2	0	0	1	1	121.64	0.34268	0.342341	-0.016416	2	0.00132963	41	7.2765	-5.61988e-06
2	0	0	1	1	121.89	0.337682	0.337418	-0.0157633	2	0.0013256	41	7.5264	-5.31882e-06
2	0	0	1	1	122.14	0.332685	0.332449	-0.015191	2	0.00132172	41	7.7762	-5.05024e-06
2	0	0	1	1	122.389	0.327687	0.327476	-0.0146422	2	0.00131799	41	8.0261	-4.79497e-06
2	0	0	1	1	122.639	0.322689	0.322489	-0.0141461	2	0.00131438	41	8.276	-4.56197e-06
2	0	0	1	1	122.889	0.317692	0.317458	-0.0136816	2	0.0013109	41	8.5259	-4.34334e-06
2	0	0	1	1	123.139	0.312694	0.31258	-0.0132347	2	0.00130752	41	8.7758	-4.13691e-06
2	0	0	1	1	123.389	0.307697	0.307476	-0.0128193	2	0.00130426	41	9.0256	-3.94161e-06
2	0	0	1	1	123.639	0.302699	0.302348	-0.012404	2	0.0013011	41	9.2755	-3.75032e-06
2	0	0	1	1	123.889	0.297701	0.297391	-0.0119953	2	0.00129805	41	9.5254	-3.5673e-06
2	0	0	1	1	124.139	0.292704	0.292449	-0.011577	2	0.00129509	41	9.7753	-3.38567e-06
2	0	0	1	1	124.389	0.287706	0.287302	-0.0111637	2	0.00129224	41	10.0252	-3.20734e-06
2	0	0	1	1	124.638	0.282709	0.282497	-0.0107598	2	0.0012895	41	10.275	-3.03961e-06
2	0	0	1	1	124.888	0.277711	0.277466	-0.010365	2	0.00128685	41	10.5249	-2.87593e-06
2	0	0	1	1	125.138	0.272713	0.272245	-0.00994772	2	0.0012843	41	10.7748	-2.70821e-06
2	0	0	1	1	125.388	0.267716	0.267601	-0.00958503	2	0.00128185	41	11.0247	-2.56497e-06
2	0	0	1	1	125.638	0.262718	0.262331	-0.00918147	2	0.0012795	41	11.2746	-2.40858e-06
2	0	0	1	1	125.888	0.257722	0.257413	-0.00883759	2	0.00127724	41	11.5244	-2.27491e-06
2	0	0	1	1	126.138	0.252723	0.252682	-0.00847814	2	0.00127506	41	11.7743	-2.14227e-06
2	0	0	1	1	126.388	0.247725	0.247502	-0.00815027	2	0.00127298	41	12.0242	-2.01721e-06
2	0	0	1	1	126.637	0.242728	0.242357	-0.00780778	2	0.00127098	41	12.2741	-1.89227e-06
2	0	0	1	1	126.887	0.23773	0.237705	-0.00749639	2	0.00126905	41	12.524	-1.78193e-06
2	0	0	1	1	127.137	0.232734	0.232317	-0.00718084	2	0.00126721	41	12.7738	-1.66823e-06
2	0	0	1	1	127.387	0.227735	0.227562	-0.00691865	2	0.00126544	41	13.0237	-1.57442e-06
2	0	0	1	1	127.637	0.222737	0.222426	-0.00664081	2	0.00126373	41	13.2736	-1.47709e-06
2	0	0	1	1	127.887	0.21774	0.217558	-0.00639096	2	0.00126209	41	13.5235	-1.3904e-06
2	0	0	1	1	128.137	0.212742	0.21261	-0.00615011	2	0.00126052	41	13.7734	-1.30757e-06
2	0	0	1	1	128.387	0.207746	0.20748	-0.00590985	2	0.001259	41	14.0232	-1.22618e-06
2	0	0	1	1	128.636	0.202747	0.20256	-0.00568353	2	0.00125754	41	14.2731	-1.15126e-06
2	0	0	1	1	128.886	0.197749	0.197523	-0.00548619	2	0.00125614	41	14.523	-1.08365e-06
2	0	0	1	1	129.136	0.192752	0.192394	-0.00528232	2	0.00125478	41	14.7729	-1.01629e-06
2	0	0	1	1	129.386	0.187754	0.187451	-0.00508961	2	0.00125348	41	15.0228	-9.54052e-07
2	0	0	1	1	129.636	0.182756	0.182668	-0.00490784	2	0.00125222	41	15.2727	-8.96508e-07
2	0	0	1	1	129.886	0.177759	0.177485	-0.00474836	2	0.001251	41	15.5225	-8.4276e-07
2	0	0	1	1	130.136	0.172761	0.172489	-0.00457253	2	0.00124983	41	15.7724	-7.88711e-07
2	0	0	1	1	130.416	0.167164	0.166905	-0.00443579	2	0.00124856	42	16.0523	-7.40358e-07
2	0	0	1	1	130.666	0.162166	0.1622	-0.00429756	2	0.00124747	42	16.3022	-6.97065e-07
2	0	0	1	1	130.915	0.157169	0.156983	-0.00414835	2	0.00124641	42	16.552	-6.51219e-07
2	0	0	1	1	131.165	0.152171	0.151936	-0.00402031	2	0.00124539	42	16.8019	-6.1083e-07
2	0	0	1	1	131.415	0.147173	0.146702	-0.00388651	2	0.00124441	42	17.0518	-5.70157e-07
2	0	0	1	1	131.665	0.142176	0.141868	-0.00376093	2	0.00124345	42	17.3017	-5.33557e-07
2	0	0	1	1	131.915	0.137178	0.136985	-0.00364149	2	0.00124252	42	17.5516	-4.98828e-07
2	0	0	1	1	132.165	0.132181	0.131847	-0.00352752	2	0.00124163	42	17.8014	-4.65093e-07
2	0	0	1	1	132.415	0.127183	0.126838	-0.00341417	2	0.00124076	42	18.0513	-4.33045e-07
2	0	0	1	1	132.665	0.122185	0.121667	-0.00330238	2	0.00123992	42	18.3012	-4.01789e-07
2	0	0	1	1	132.914	0.117188	0.116739	-0.00319684	2	0.00123911	42	18.5511	-3.73197e-07
2	0	0	1	1	133.164	0.11219	0.111974	-0.00310521	2	0.00123832	42	18.801	-3.47702e-07
2	0	0	1	1	133.414	0.107193	0.106905	-0.00300614	2	0.00123756	42	19.0508	-3.21371e-07
2	0	0	1	1	133.664	0.102195	0.101886	-0.00291279	2	0.00123682	42	19.3007	-2.96771e-07
2	0	0	1	1	133.914	0.0971974	0.0967623	-0.0028218	2	0.0012361	42	19.5506	-2.73044e-07
2	0	0	1	1	134.164	0.0921998	0.0918731	-0.00274635	2	0.0012354	42	19.8005	-2.52316e-07
2	0	0	1	1	134.414	0.0872022	0.0868873	-0.00266113	2	0.00123473	42	20.0504	-2.31219e-07
2	0	0	1	1	134.664	0.0822054	0.0820575	-0.00258889	2	0.00123407	42	20.3002	-2.12438e-07
2	0	0	1	1	134.913	0.0772069	0.0768921	-0.00250963	2	0.00123344	42	20.5501	-1.92971e-07
2	0	0	1	1	135.163	0.0722094	0.0720394	-0.00244261	2	0.00123282	42	20.8	-1.75964e-07
2	0	0	1	1	135.413	0.0672117	0.0670469	-0.00237219	2	0.00123222	42	21.0499	-1.59048e-07
2	0	0	1	1	135.663	0.0622141	0.0618707	-0.00231231	2	0.00123163	42	21.2998	-1.43064e-07
2	0	0	1	1	135.913	0.0572174	0.0569429	-0.00224703	2	0.00123106	42	21.5496	-1.27952e-07
2	0	0	1	1	136.163	0.0522189	0.0520873	-0.00219766	2	0.00123051	42	21.7995	-1.14471e-07
2	0	0	1	1	136.413	0.0472213	0.0469875	-0.00213617	2	0.00122997	42	22.0494	-1.00373e-07
2	0	0	1	1	136.663	0.0422237	0.0420196	-0.00208311	2	0.00122944	42	22.2993	-8.75314e-08
2	0	0	1	1	136.913	0.0372261	0.0368416	-0.00203304	2	0.00122892	42	22.5492	-7.49003e-08
2	0	0	1	1	137.162	0.0322298	0.0320762	-0.00198926	2	0.00122842	42	22.799	-6.38078e-08
2	0	0	1	1	137.412	0.0272309	0.0272614	-0.00194342	2	0.00122793	42	23.0489	-5.29803e-08
2	0	0	1	1	137.662	0.0222333	0.0220868	-0.00190236	2	0.00122745	42	23.2988	-4.2017e-08
2	0	0	1	1	137.912	0.0172357	0.0170752	-0.00186288	2	0.00122698	42	23.5487	-3.18091e-08
2	0	0	1	1	138.162	0.0122381	0.0119582	-0.00182807	2	0.00122652	42	23.7986	-2.18603e-08
2	0	0	1	1	138.412	0.00724226	0.00687643	-0.0017858	2	0.00122607	42	24.0484	-1.22799e-08
2	0	0	1	1	138.662	0.00224287	0.00199353	-0.00176543	2	0.00122562	42	24.2983	-3.51943e-09
2	0	0	1	0	138.887	0.00229285	0.00194659	-0.00104788	2	0.00122529	42	24.5237	-2.03979e-09
2	0	0	1	0	139.137	0.00729045	0.00691809	-0.000818932	2	0.00122506	42	24.7735	-5.66544e-09
2	0	0	1	0	139.387	0.0122881	0.0120325	-0.000675514	2	0.00122488	42	25.0234	-8.12814e-09
2	0	0	1	0	139.637	0.0172857	0.0169978	-0.00055972	2	0.00122472	42	25.2733	-9.51403e-09
2	0	0	1	0	139.887	0.0222833	0.022275	-0.00046675	2	0.0012246	42	25.5232	-1.03968e-08
2	0	0	0	0	139.966	0.0239075	0.0246992	-0.000431829	2	0.00122456	42	25.6026	-1.06658e-08