File: Python/Experiments/IRFB/FirstCell/Data/240411-EIS-50mM_FeCl2FeCl3-1M_HCl-30mLmin_Dampened-25mHz_20ppd_C15.mpt
EC-Lab ASCII FILE
Nb header lines : 66

Potentio Electrochemical Impedance Spectroscopy

Run on channel : 15 (SN 19485)
User :
Electrode connection : standard
Potential control : Ewe
Ewe ctrl range : min = -1.00 V, max = 1.00 V
Ewe,I filtering : <None>
Safety Limits :
	Do not start on E overload
Channel : Floating
Acquisition started on : 04/11/2024 12:29:34.554
Loaded Setting File :  NONE
Saved on :
	File : 240411-EIS-50mM_FeCl2FeCl3-1M_HCl-30mLmin_Dampened-25mHz_20ppd_C15.mpr
	Directory : C:\Data\mathias\IRFB\
	Host : 192.168.0.1
Device : VMP-300 (SN 0826)
Address : USB
EC-Lab for windows v11.52 (software)
Internet server v11.52 (firmware)
Command interpretor v11.52 (firmware)
Electrode material :
Initial state :
Electrolyte :
Comments :
Cable : special
Electrode surface area : 0.001 cm²
Characteristic mass : 0.001 g
Equivalent Weight : 0.000 g/eq.
Density : 0.000 g/cm3
Volume (V) : 0.001 cm³
Record EIS quality indicators
Cycle Definition : Charge/Discharge alternance
Mode                Single sine
E (V)               0.0000
vs.                 Eoc
tE (h:m:s)          0:00:0.0000
record              0
dI                  0.000
unit dI             mA
dt (s)              0.000
fi                  920.000
unit fi             kHz
ff                  25.000
unit ff             mHz
Nd                  20
Points              per decade
spacing             Logarithmic
Va (mV)             5.0
pw                  0.10
Na                  3
corr                0
E range min (V)     -1.000
E range max (V)     1.000
I Range             Auto
Bandwidth           8
nc cycles           0
goto Ns'            0
nr cycles           0
inc. cycle          0

freq/Hz	Re(Z)/Ohm	-Im(Z)/Ohm	|Z|/Ohm	Phase(Z)/deg	time/s	<Ewe>/V	<I>/mA	Cs/µF	Cp/µF	cycle number	I Range	|Ewe|/V	|I|/A	Ns	(Q-Qo)/mA.h	THD Ewe/%	NSD Ewe/%	NSR Ewe/%	|Ewe h2|/V	|Ewe h3|/V	|Ewe h4|/V	|Ewe h5|/V	|Ewe h6|/V	|Ewe h7|/V	THD I/%	NSD I/%	NSR I/%	|I h2|/A	|I h3|/A	|I h4|/A	|I h5|/A	|I h6|/A	|I h7|/A	Re(Y)/Ohm-1	Im(Y)/Ohm-1	|Y|/Ohm-1	Phase(Y)/deg	Re(C)/nF	Im(C)/nF	|C|/nF	Phase(C)/deg	Re(M)	Im(M)	|M|	Phase(M)/deg	Re(Permittivity)	Im(Permittivity)	|Permittivity|	Phase(Permittivity)/deg	Re(Resistivity)/Ohm.cm	Im(Resistivity)/Ohm.cm	|Resistivity|/Ohm.cm	Phase(Resistivity)/deg	Re(Conductivity)/mS/cm	Im(Conductivity)/mS/cm	|Conductivity|/mS/cm	Phase(Conductivity)/deg	Tan(Delta)	Loss Angle(Delta)/deg	dq/mA.h
920001	-0.132949	0.00464927	0.13303	-177.997	1.97648	-0.000179934	-0.525083	37.2089	0.0454482	1	37	0.000371243	0.00279067	0	-0.000256255	-1	-1	-1	0	0	0	0	0	0	-1	-1	-1	0	0	0	0	0	0	-7.5125	0.262715	7.5171	177.997	45.4482	-1299.62	1300.42	87.9972	0.0000000E+000	0.0000000E+000	0.0000000E+000	-87.9972	0.0000000E+000	0.0000000E+000	0.0000000E+000	87.9972	0.0000000E+000	0.0000000E+000	0.0000000E+000	-177.997	0.0000000E+000	0.0000000E+000	0.0000000E+000	177.997	28.5956	87.9972	-0.000256255
730432	-0.0429589	0.049033	0.0651898	-131.222	4.2705	-0.000169048	-0.50314	4.44377	2.51403	1	37	0.000257484	0.00394977	0	-0.00057938	-1	-1	-1	0	0	0	0	0	0	-1	-1	-1	0	0	0	0	0	0	-10.1087	11.538	15.3398	131.222	2514.03	-2202.6	3342.42	41.2223	0.0000000E+000	0.0000000E+000	0.0000000E+000	-41.2223	0.0000000E+000	0.0000000E+000	0.0000000E+000	41.2223	0.0000000E+000	0.0000000E+000	0.0000000E+000	-131.222	0.0000000E+000	0.0000000E+000	0.0000000E+000	131.222	0.876122	41.2223	-0.000158935
579916	0.00885508	0.0557141	0.0564134	-80.9691	6.56449	-0.000179169	-0.511832	4.92595	4.80458	1	37	0.000331249	0.00587182	0	-0.000896285	-1	-1	-1	0	0	0	0	0	0	-1	-1	-1	0	0	0	0	0	0	2.78246	17.5065	17.7263	80.9691	4804.58	763.631	4864.89	-9.03094	0.0000000E+000	0.0000000E+000	0.0000000E+000	9.03094	0.0000000E+000	0.0000000E+000	0.0000000E+000	-9.03094	0.0000000E+000	0.0000000E+000	0.0000000E+000	-80.9691	0.0000000E+000	0.0000000E+000	0.0000000E+000	80.9691	0.158938	9.03094	-0.000155234
460427	0.0379353	0.0498353	0.0626311	-52.7211	8.85948	-0.000165226	-0.512073	6.9362	4.39154	1	37	0.000593267	0.0094724	0	-0.00122136	-1	-1	-1	0	0	0	0	0	0	-1	-1	-1	0	0	0	0	0	0	9.67084	12.7045	15.9665	52.7211	4391.54	3342.9	5519.11	-37.2789	0.0000000E+000	0.0000000E+000	0.0000000E+000	37.2789	0.0000000E+000	0.0000000E+000	0.0000000E+000	-37.2789	0.0000000E+000	0.0000000E+000	0.0000000E+000	-52.7211	0.0000000E+000	0.0000000E+000	0.0000000E+000	52.7211	0.761214	37.2789	-0.000149422
365554	0.0538022	0.0409637	0.0676218	-37.2848	11.1535	-0.000170688	-0.511347	10.6284	3.90027	1	37	0.000997034	0.0147443	0	-0.00153449	-1	-1	-1	0	0	0	0	0	0	-1	-1	-1	0	0	0	0	0	0	11.766	8.95831	14.7881	37.2848	3900.27	5122.65	6438.45	-52.7152	0.0000000E+000	0.0000000E+000	0.0000000E+000	52.7152	0.0000000E+000	0.0000000E+000	0.0000000E+000	-52.7152	0.0000000E+000	0.0000000E+000	0.0000000E+000	-37.2848	0.0000000E+000	0.0000000E+000	0.0000000E+000	37.2848	1.31341	52.7152	-0.000143108
290232	0.0617366	0.0336065	0.0702908	-28.5618	13.4475	-0.000170967	-0.506769	16.3175	3.72994	1	37	0.00156168	0.0222174	0	-0.00189418	-1	-1	-1	0	0	0	0	0	0	-1	-1	-1	0	0	0	0	0	0	12.4953	6.80183	14.2266	28.5618	3729.93	6852.06	7801.48	-61.4382	0.0000000E+000	0.0000000E+000	0.0000000E+000	61.4382	0.0000000E+000	0.0000000E+000	0.0000000E+000	-61.4382	0.0000000E+000	0.0000000E+000	0.0000000E+000	-28.5618	0.0000000E+000	0.0000000E+000	0.0000000E+000	28.5618	1.83704	61.4382	-0.000204279
230422	0.0666385	0.0275947	0.072126	-22.4942	15.7425	-0.000170352	-0.521751	25.0305	3.66385	1	37	0.00234621	0.0325293	0	-0.00222019	-1	-1	-1	0	0	0	0	0	0	-1	-1	-1	0	0	0	0	0	0	12.8098	5.30447	13.8646	22.4942	3663.85	8847.83	9576.43	-67.5058	0.0000000E+000	0.0000000E+000	0.0000000E+000	67.5058	0.0000000E+000	0.0000000E+000	0.0000000E+000	-67.5058	0.0000000E+000	0.0000000E+000	0.0000000E+000	-22.4942	0.0000000E+000	0.0000000E+000	0.0000000E+000	22.4942	2.4149	67.5058	-0.000124699
182944	0.0695818	0.023233	0.073358	-18.4639	18.0385	-0.000174062	-0.511644	37.4451	3.75588	1	37	0.00342062	0.0466291	0	-0.00255297	-1	-1	-1	0	0	0	0	0	0	-1	-1	-1	0	0	0	0	0	0	12.9301	4.31728	13.6318	18.4639	3755.88	11248.7	11859.2	-71.5361	0.0000000E+000	0.0000000E+000	0.0000000E+000	71.5361	0.0000000E+000	0.0000000E+000	0.0000000E+000	-71.5361	0.0000000E+000	0.0000000E+000	0.0000000E+000	-18.4639	0.0000000E+000	0.0000000E+000	0.0000000E+000	18.4639	2.99495	71.5361	-0.000217992
145246	0.0715146	0.0200302	0.0742667	-15.6468	20.1995	-0.000191081	-0.540491	54.7056	3.97936	1	37	0.00483586	0.0651148	0	-0.00284753	-1	-1	-1	0	0	0	0	0	0	-1	-1	-1	0	0	0	0	0	0	12.966	3.63159	13.465	15.6468	3979.36	14207.7	14754.4	-74.3532	0.0000000E+000	0.0000000E+000	0.0000000E+000	74.3532	0.0000000E+000	0.0000000E+000	0.0000000E+000	-74.3532	0.0000000E+000	0.0000000E+000	0.0000000E+000	-15.6468	0.0000000E+000	0.0000000E+000	0.0000000E+000	15.6468	3.57034	74.3532	-8.87118e-05
115323	0.0729908	0.0179029	0.0751543	-13.7812	22.4955	-0.000179915	-0.504627	77.0873	4.37443	1	37	0.00509986	0.0678585	0	-0.0032716	-1	-1	-1	0	0	0	0	0	0	-1	-1	-1	0	0	0	0	0	0	12.9229	3.16968	13.306	13.7812	4374.43	17834.7	18363.4	-76.2188	0.0000000E+000	0.0000000E+000	0.0000000E+000	76.2188	0.0000000E+000	0.0000000E+000	0.0000000E+000	-76.2188	0.0000000E+000	0.0000000E+000	0.0000000E+000	-13.7812	0.0000000E+000	0.0000000E+000	0.0000000E+000	13.7812	4.07704	76.2188	-0.000130683
91560.3	0.0745044	0.0161686	0.0762387	-12.2442	24.7915	-0.000193765	-0.512109	107.508	4.83543	1	37	0.00509821	0.0668718	0	-0.0036649	0.33542	0.154094	6.32665	6.13528e-06	7.71785e-06	4.0224e-06	7.03316e-06	5.09202e-06	8.50801e-06	0.101345	0.0185482	0.292647	1.48679e-05	6.56716e-05	4.81054e-06	2.27197e-06	1.94521e-06	3.81894e-06	12.8183	2.78178	13.1167	12.2442	4835.44	22281.5	22800.2	-77.7558	0.0000000E+000	0.0000000E+000	0.0000000E+000	77.7558	0.0000000E+000	0.0000000E+000	0.0000000E+000	-77.7558	0.0000000E+000	0.0000000E+000	0.0000000E+000	-12.2442	0.0000000E+000	0.0000000E+000	0.0000000E+000	12.2442	4.60796	77.7558	-0.000260808
72687.8	0.0756618	0.0151906	0.0771717	-11.3523	27.0875	-0.00018122	-0.469861	144.14	5.58493	1	37	0.00509899	0.0660734	0	-0.00382134	0.35894	0.216272	6.30882	6.58669e-06	1.09355e-05	8.77875e-06	3.95216e-06	4.08529e-06	6.78678e-06	0.111898	0.010821	0.295356	1.47244e-05	7.198e-05	4.47636e-06	6.47255e-06	3.86788e-06	2.02813e-06	12.7046	2.5507	12.9581	11.3523	5584.93	27817.6	28372.7	-78.6477	0.0000000E+000	0.0000000E+000	0.0000000E+000	78.6477	0.0000000E+000	0.0000000E+000	0.0000000E+000	-78.6477	0.0000000E+000	0.0000000E+000	0.0000000E+000	-11.3523	0.0000000E+000	0.0000000E+000	0.0000000E+000	11.3523	4.98083	78.6477	-0.000122642
57712.3	0.0767568	0.014578	0.0781289	-10.7538	29.3835	-0.000184407	-0.491339	189.17	6.58608	1	37	0.00508866	0.0651316	0	-0.0041858	0.306111	0.121338	6.31161	4.91397e-06	6.9258e-06	6.0336e-06	7.20434e-06	7.64343e-06	2.20741e-06	0.0954287	0.0308544	0.296127	7.8189e-06	6.08094e-05	5.6155e-06	6.04529e-06	4.79465e-06	4.4355e-06	12.5746	2.38822	12.7994	10.7538	6586.08	34677.3	35297.2	-79.2462	0.0000000E+000	0.0000000E+000	0.0000000E+000	79.2462	0.0000000E+000	0.0000000E+000	0.0000000E+000	-79.2462	0.0000000E+000	0.0000000E+000	0.0000000E+000	-10.7538	0.0000000E+000	0.0000000E+000	0.0000000E+000	10.7538	5.26524	79.2462	-0.00016968
45817.2	0.0779034	0.0145521	0.0792509	-10.5808	31.6795	-0.000190521	-0.501612	238.707	8.0484	1	37	0.00509875	0.0643368	0	-0.00438638	0.337277	0.159053	6.22618	5.2829e-06	7.50405e-06	7.05404e-06	6.07416e-06	6.90274e-06	6.40255e-06	0.128266	0.0328852	0.298087	5.23847e-06	8.1683e-05	3.53925e-06	7.81808e-06	2.99765e-06	4.03366e-06	12.4036	2.31696	12.6182	10.5808	8048.4	43086.3	43831.6	-79.4193	0.0000000E+000	0.0000000E+000	0.0000000E+000	79.4193	0.0000000E+000	0.0000000E+000	0.0000000E+000	-79.4193	0.0000000E+000	0.0000000E+000	0.0000000E+000	-10.5808	0.0000000E+000	0.0000000E+000	0.0000000E+000	10.5808	5.3534	79.4193	-0.000148737
36381	0.0793634	0.014879	0.0807461	-10.6185	33.9755	-0.000175478	-0.494019	294.017	9.98333	1	37	0.00509088	0.063048	0	-0.00462525	0.33233	0.203431	6.36234	3.49432e-06	6.94574e-06	6.6052e-06	7.02019e-06	5.4102e-06	7.82548e-06	0.135146	0.0226606	0.301882	6.79007e-06	8.44928e-05	2.88269e-06	6.38569e-06	2.55634e-06	3.44806e-06	12.1724	2.28208	12.3845	10.6185	9983.33	53250.4	54178.1	-79.3815	0.0000000E+000	0.0000000E+000	0.0000000E+000	79.3815	0.0000000E+000	0.0000000E+000	0.0000000E+000	-79.3815	0.0000000E+000	0.0000000E+000	0.0000000E+000	-10.6185	0.0000000E+000	0.0000000E+000	0.0000000E+000	10.6185	5.33393	79.3815	-5.45292e-05
28884	0.0809142	0.0155584	0.0823964	-10.8841	36.2715	-0.000189832	-0.51384	354.16	12.6273	1	37	0.00509433	0.0618271	0	-0.00503846	0.32883	0.20635	6.29452	5.40001e-06	8.2533e-06	3.27382e-06	7.03662e-06	7.29637e-06	5.55427e-06	0.134274	0.0443631	0.311424	1.77908e-05	8.02521e-05	3.36743e-06	8.40444e-06	4.27772e-06	4.16659e-06	11.9181	2.29164	12.1364	10.8841	12627.3	65670.6	66873.6	-79.1159	0.0000000E+000	0.0000000E+000	0.0000000E+000	79.1159	0.0000000E+000	0.0000000E+000	0.0000000E+000	-79.1159	0.0000000E+000	0.0000000E+000	0.0000000E+000	-10.8841	0.0000000E+000	0.0000000E+000	0.0000000E+000	10.8841	5.20069	79.1159	-0.000156814
22927.2	0.0827001	0.0163729	0.0843053	-11.1986	38.5685	-0.00017587	-0.49026	423.978	15.9914	1	37	0.00508942	0.0603689	0	-0.00539663	0.46139	0.169092	6.29507	9.55083e-06	1.37274e-05	4.80775e-06	4.61216e-06	7.46598e-06	1.11331e-05	0.123883	0.0396525	0.320885	5.2548e-06	7.35897e-05	2.52565e-06	1.02929e-05	1.61387e-06	4.17652e-06	11.6358	2.30365	11.8617	11.1986	15991.4	80773	82340.8	-78.8014	0.0000000E+000	0.0000000E+000	0.0000000E+000	78.8014	0.0000000E+000	0.0000000E+000	0.0000000E+000	-78.8014	0.0000000E+000	0.0000000E+000	0.0000000E+000	-11.1986	0.0000000E+000	0.0000000E+000	0.0000000E+000	11.1986	5.05103	78.8014	-0.00014812
18204.4	0.0847883	0.0173211	0.0865394	-11.5459	40.8645	-0.000179002	-0.482369	504.741	20.2204	1	37	0.00509295	0.0588511	0	-0.00561418	0.359187	0.257998	6.4913	8.73615e-06	7.11787e-06	6.76645e-06	3.89556e-06	5.94139e-06	8.79842e-06	0.122335	0.0469891	0.336969	7.95638e-06	7.0474e-05	3.19594e-06	8.75676e-06	5.49722e-06	4.22303e-06	11.3216	2.31285	11.5554	11.5459	20220.4	98980.8	101025	-78.4541	0.0000000E+000	0.0000000E+000	0.0000000E+000	78.4541	0.0000000E+000	0.0000000E+000	0.0000000E+000	-78.4541	0.0000000E+000	0.0000000E+000	0.0000000E+000	-11.5459	0.0000000E+000	0.0000000E+000	0.0000000E+000	11.5459	4.89509	78.4541	-0.000116402
14455.9	0.0869181	0.0185544	0.0888764	-12.05	43.1605	-0.000178051	-0.474198	593.375	25.8611	1	37	0.0050857	0.0572222	0	-0.00574509	0.338794	0.186128	6.34387	5.48808e-06	9.71098e-06	5.63698e-06	6.10042e-06	5.70348e-06	6.7333e-06	0.118935	0.0264087	0.337348	8.80563e-06	6.62669e-05	5.12821e-06	9.2943e-06	4.0909e-06	4.21914e-06	11.0037	2.34895	11.2516	12.05	25861.1	121147	123876	-77.95	0.0000000E+000	0.0000000E+000	0.0000000E+000	77.95	0.0000000E+000	0.0000000E+000	0.0000000E+000	-77.95	0.0000000E+000	0.0000000E+000	0.0000000E+000	-12.05	0.0000000E+000	0.0000000E+000	0.0000000E+000	12.05	4.68451	77.95	-8.35504e-05
11477.5	0.0893715	0.0198438	0.091548	-12.5187	45.4565	-0.000186961	-0.469713	698.791	32.8322	1	37	0.00506451	0.0553208	0	-0.00603718	0.26722	0.184602	6.3354	3.39731e-06	2.96686e-06	5.35538e-06	5.23656e-06	4.45361e-06	8.56471e-06	0.106837	0.016825	0.355119	6.69806e-06	5.73706e-05	6.41933e-06	6.01713e-06	6.35373e-06	4.60417e-06	10.6635	2.3677	10.9232	12.5187	32832.2	147868	151469	-77.4813	0.0000000E+000	0.0000000E+000	0.0000000E+000	77.4813	0.0000000E+000	0.0000000E+000	0.0000000E+000	-77.4813	0.0000000E+000	0.0000000E+000	0.0000000E+000	-12.5187	0.0000000E+000	0.0000000E+000	0.0000000E+000	12.5187	4.50374	77.4813	-0.000106582
9107.2	0.0921075	0.0214773	0.0945783	-13.1255	47.7565	-0.000296941	-0.740079	813.686	41.9596	1	37	0.00517709	0.0547386	0	-0.00637068	0.319314	0.135486	6.30064	6.44106e-06	9.3276e-06	6.12859e-06	6.24933e-06	4.32581e-06	4.95565e-06	0.13347	0.023739	0.352684	9.35507e-06	7.04703e-05	4.74894e-06	1.51303e-05	2.97536e-06	2.9505e-06	10.297	2.40102	10.5732	13.1255	41959.6	179948	184775	-76.8745	0.0000000E+000	0.0000000E+000	0.0000000E+000	76.8745	0.0000000E+000	0.0000000E+000	0.0000000E+000	-76.8745	0.0000000E+000	0.0000000E+000	0.0000000E+000	-13.1255	0.0000000E+000	0.0000000E+000	0.0000000E+000	13.1255	4.28861	76.8745	-0.000218497
7234.84	0.095035	0.0230074	0.0977803	-13.6091	50.1057	-0.000298955	-0.744732	956.144	52.9366	1	37	0.00508738	0.0520286	0	-0.00685913	0.322631	0.266724	6.41609	4.79216e-06	7.55452e-06	8.06498e-06	4.81475e-06	5.59283e-06	5.96055e-06	0.113661	0.030061	0.380316	8.62789e-06	5.69568e-05	3.87897e-06	1.01449e-05	5.1375e-06	3.15317e-06	9.93987	2.40638	10.227	13.6091	52936.6	218661	224978	-76.3909	0.0000000E+000	0.0000000E+000	0.0000000E+000	76.3909	0.0000000E+000	0.0000000E+000	0.0000000E+000	-76.3909	0.0000000E+000	0.0000000E+000	0.0000000E+000	-13.6091	0.0000000E+000	0.0000000E+000	0.0000000E+000	13.6091	4.13063	76.3909	-0.000239376
5743.33	0.0980837	0.0247775	0.101165	-14.1772	52.5966	-0.000294052	-0.742164	1118.41	67.0893	1	37	0.00507191	0.0501351	0	-0.00738774	0.516134	0.218857	6.24406	1.55392e-05	1.42852e-05	4.13482e-06	7.25067e-06	7.41271e-06	6.9476e-06	0.0996362	0.0459858	0.389933	7.37114e-06	4.77713e-05	5.05303e-06	8.62955e-06	4.90789e-06	3.04523e-06	9.58378	2.42101	9.88485	14.1772	67089.3	265579	273922	-75.8228	0.0000000E+000	0.0000000E+000	0.0000000E+000	75.8228	0.0000000E+000	0.0000000E+000	0.0000000E+000	-75.8228	0.0000000E+000	0.0000000E+000	0.0000000E+000	-14.1772	0.0000000E+000	0.0000000E+000	0.0000000E+000	14.1772	3.95859	75.8228	-0.000317621
4558.54	0.101745	0.026714	0.105194	-14.7114	55.2618	-0.000281376	-0.700381	1306.94	84.2855	1	37	0.00509182	0.0484042	0	-0.00796995	0.346215	0.128389	6.42368	5.06906e-06	8.46156e-06	3.7148e-06	7.1928e-06	7.03525e-06	9.53256e-06	0.0888214	0.0168989	0.407756	2.18679e-06	4.14949e-05	5.45794e-06	5.66724e-06	5.19215e-06	3.14201e-06	9.19463	2.41412	9.50627	14.7114	84285.5	321017	331898	-75.2886	0.0000000E+000	0.0000000E+000	0.0000000E+000	75.2886	0.0000000E+000	0.0000000E+000	0.0000000E+000	-75.2886	0.0000000E+000	0.0000000E+000	0.0000000E+000	-14.7114	0.0000000E+000	0.0000000E+000	0.0000000E+000	14.7114	3.80869	75.2886	-0.000324067
3621.16	0.105368	0.0287352	0.109216	-15.2544	57.9197	-0.000285701	-0.684264	1529.53	105.88	1	37	0.00506228	0.0463513	0	-0.00853392	0.309414	0.125733	6.3859	9.21997e-06	4.23977e-06	4.24712e-06	6.28399e-06	4.50193e-06	6.04835e-06	0.0724638	0.0602111	0.421488	5.09507e-06	3.13917e-05	3.1016e-06	7.37488e-06	4.80912e-06	3.6282e-06	8.83359	2.40904	9.15619	15.2544	105881	388248	402427	-74.7456	0.0000000E+000	0.0000000E+000	0.0000000E+000	74.7456	0.0000000E+000	0.0000000E+000	0.0000000E+000	-74.7456	0.0000000E+000	0.0000000E+000	0.0000000E+000	-15.2544	0.0000000E+000	0.0000000E+000	0.0000000E+000	15.2544	3.66686	74.7456	-0.000241619
2874.08	0.10937	0.0308486	0.113637	-15.7515	60.5758	-0.000289243	-0.701182	1795.09	132.286	1	37	0.00509611	0.0448455	0	-0.00904281	0.33652	0.158196	6.35695	6.12713e-06	7.66705e-06	5.73895e-06	5.39545e-06	7.83585e-06	6.11831e-06	0.0665235	0.107726	0.44478	4.52799e-06	2.70067e-05	3.45039e-06	5.43418e-06	6.23514e-06	6.4975e-06	8.46948	2.38888	8.79994	15.7515	132286	469005	487304	-74.2485	0.0000000E+000	0.0000000E+000	0.0000000E+000	74.2485	0.0000000E+000	0.0000000E+000	0.0000000E+000	-74.2485	0.0000000E+000	0.0000000E+000	0.0000000E+000	-15.7515	0.0000000E+000	0.0000000E+000	0.0000000E+000	15.7515	3.54538	74.2485	-0.000274038
2282.19	0.113852	0.0331295	0.118574	-16.2243	63.2346	-0.000295767	-0.72251	2105.01	164.325	1	37	0.00511317	0.0431221	0	-0.0096581	0.320472	0.300701	6.29914	6.48004e-06	2.65615e-06	3.69235e-06	6.70997e-06	8.44222e-06	7.94231e-06	0.0569918	0.106269	0.462664	5.08888e-06	1.97286e-05	6.40261e-06	7.87677e-06	5.75036e-06	5.04711e-06	8.09768	2.35632	8.43354	16.2243	164325	564715	588138	-73.7757	0.0000000E+000	0.0000000E+000	0.0000000E+000	73.7757	0.0000000E+000	0.0000000E+000	0.0000000E+000	-73.7757	0.0000000E+000	0.0000000E+000	0.0000000E+000	-16.2243	0.0000000E+000	0.0000000E+000	0.0000000E+000	16.2243	3.43658	73.7757	-0.000270459
1811.74	0.11859	0.0356263	0.123825	-16.7212	65.8906	-0.000293455	-0.724985	2465.77	204.115	1	37	0.00510602	0.0412357	0	-0.0102478	0.323487	0.216062	6.51115	5.53958e-06	7.24148e-06	4.73652e-06	6.64118e-06	4.39146e-06	6.52655e-06	0.0430861	0.106315	0.482229	4.53622e-06	1.27013e-05	4.81182e-06	6.51123e-06	5.17429e-06	4.16119e-06	7.7344	2.32355	8.07588	16.7212	204115	679439	709437	-73.2788	0.0000000E+000	0.0000000E+000	0.0000000E+000	73.2788	0.0000000E+000	0.0000000E+000	0.0000000E+000	-73.2788	0.0000000E+000	0.0000000E+000	0.0000000E+000	-16.7212	0.0000000E+000	0.0000000E+000	0.0000000E+000	16.7212	3.32871	73.2788	-0.000314658
1438.62	0.123495	0.0382088	0.129271	-17.1918	68.5469	-0.000285515	-0.71354	2895.42	252.95	1	37	0.0050206	0.0388378	0	-0.0108077	0.356304	0.159891	6.46623	6.16329e-06	4.28703e-06	8.58646e-06	7.74948e-06	7.04516e-06	6.3002e-06	0.0349439	0.0665642	0.511304	5.16729e-06	5.37776e-06	5.0678e-06	8.5673e-06	3.20905e-06	2.98461e-06	7.39006	2.28644	7.73569	17.1918	252950	817566	855802	-72.8082	0.0000000E+000	0.0000000E+000	0.0000000E+000	72.8082	0.0000000E+000	0.0000000E+000	0.0000000E+000	-72.8082	0.0000000E+000	0.0000000E+000	0.0000000E+000	-17.1918	0.0000000E+000	0.0000000E+000	0.0000000E+000	17.1918	3.23212	72.8082	-0.000281639
1141.82	0.12901	0.0409974	0.135368	-17.6294	71.2024	-0.000287546	-0.707547	3399.89	311.851	1	37	0.00507291	0.037475	0	-0.0113201	0.279992	0.234228	6.36983	5.17568e-06	7.55222e-06	4.87023e-06	4.60344e-06	4.26933e-06	5.5227e-06	0.0391996	0.0731436	0.524097	4.2831e-06	4.56572e-06	7.54844e-06	3.81887e-06	8.31389e-06	4.12852e-06	7.04034	2.23731	7.38728	17.6294	311851	981329	1.02969e+06	-72.3706	0.0000000E+000	0.0000000E+000	0.0000000E+000	72.3706	0.0000000E+000	0.0000000E+000	0.0000000E+000	-72.3706	0.0000000E+000	0.0000000E+000	0.0000000E+000	-17.6294	0.0000000E+000	0.0000000E+000	0.0000000E+000	17.6294	3.14679	72.3706	-0.000245899
907.034	0.13493	0.0438575	0.141878	-18.0062	73.8593	-0.000292281	-0.712349	4000.86	382.303	1	37	0.00499091	0.0351773	0	-0.0118523	0.335151	0.231928	6.46737	6.88785e-06	7.38988e-06	8.20504e-06	7.31068e-06	3.12417e-06	5.69459e-06	0.0460653	0.0625122	0.55878	7.10048e-06	1.01808e-05	5.23818e-06	6.79368e-06	3.70249e-06	3.68039e-06	6.70308	2.17877	7.04828	18.0062	382303	1.17617e+06	1.23674e+06	-71.9938	0.0000000E+000	0.0000000E+000	0.0000000E+000	71.9938	0.0000000E+000	0.0000000E+000	0.0000000E+000	-71.9938	0.0000000E+000	0.0000000E+000	0.0000000E+000	-18.0062	0.0000000E+000	0.0000000E+000	0.0000000E+000	18.0062	3.07655	71.9938	-0.00026976
719.771	0.140956	0.0467583	0.148509	-18.3519	76.2958	-0.000291517	-0.695003	4728.98	468.793	1	37	0.00512794	0.0345296	0	-0.0123161	0.29267	0.163434	6.23308	4.92984e-06	3.59938e-06	6.38058e-06	5.67201e-06	7.9841e-06	5.65593e-06	0.059248	0.0689422	0.564548	6.04295e-06	1.25816e-05	7.78636e-06	8.4053e-06	5.4361e-06	5.13281e-06	6.39115	2.12009	6.73361	18.3519	468793	1.4132e+06	1.48893e+06	-71.6481	0.0000000E+000	0.0000000E+000	0.0000000E+000	71.6481	0.0000000E+000	0.0000000E+000	0.0000000E+000	-71.6481	0.0000000E+000	0.0000000E+000	0.0000000E+000	-18.3519	0.0000000E+000	0.0000000E+000	0.0000000E+000	18.3519	3.01456	71.6481	-0.000273192
571.647	0.147651	0.0499732	0.155878	-18.6987	78.7282	-0.000272056	-0.691523	5571.28	572.61	1	37	0.00510137	0.0327266	0	-0.0128336	0.39131	0.217819	6.37	1.03394e-05	4.73643e-06	7.04759e-06	9.51648e-06	5.31915e-06	7.49811e-06	0.0634548	0.0877783	0.599708	4.69167e-06	1.54174e-05	7.07916e-06	8.88428e-06	5.40786e-06	2.69248e-06	6.07665	2.05668	6.41526	18.6987	572610	1.69183e+06	1.7861e+06	-71.3013	0.0000000E+000	0.0000000E+000	0.0000000E+000	71.3013	0.0000000E+000	0.0000000E+000	0.0000000E+000	-71.3013	0.0000000E+000	0.0000000E+000	0.0000000E+000	-18.6987	0.0000000E+000	0.0000000E+000	0.0000000E+000	18.6987	2.95459	71.3013	-0.00030653
453.693	0.154257	0.0534567	0.163257	-19.1134	80.9444	-0.000263388	-0.677434	6562.29	703.587	1	37	0.00530751	0.0325102	0	-0.0132613	0.29729	0.162934	6.01074	6.13658e-06	8.57179e-06	6.27277e-06	4.3209e-06	3.5045e-06	5.77272e-06	0.0690857	0.059788	0.606022	5.23324e-06	1.5627e-05	8.96817e-06	1.01398e-05	3.01076e-06	5.03896e-06	5.78765	2.00567	6.12532	19.1134	703588	2.0303e+06	2.14875e+06	-70.8866	0.0000000E+000	0.0000000E+000	0.0000000E+000	70.8866	0.0000000E+000	0.0000000E+000	0.0000000E+000	-70.8866	0.0000000E+000	0.0000000E+000	0.0000000E+000	-19.1134	0.0000000E+000	0.0000000E+000	0.0000000E+000	19.1134	2.88564	70.8866	-0.000228677
360.346	0.161418	0.0571529	0.171237	-19.4974	83.1596	-0.000257348	-0.674084	7727.91	860.881	1	37	0.00538258	0.0314335	0	-0.0136644	0.241911	0.233201	5.90121	4.30877e-06	8.02254e-06	3.28549e-06	4.39148e-06	4.83534e-06	2.95333e-06	0.0884885	0.092787	0.617559	5.84666e-06	2.00336e-05	7.47629e-06	1.48205e-05	3.09316e-06	5.28271e-06	5.50498	1.94914	5.83985	19.4974	860881	2.4314e+06	2.5793e+06	-70.5026	0.0000000E+000	0.0000000E+000	0.0000000E+000	70.5026	0.0000000E+000	0.0000000E+000	0.0000000E+000	-70.5026	0.0000000E+000	0.0000000E+000	0.0000000E+000	-19.4974	0.0000000E+000	0.0000000E+000	0.0000000E+000	19.4974	2.82431	70.5026	-0.00018006
286.007	0.169032	0.0619471	0.180026	-20.1269	85.368	-0.000271963	-0.680542	8983.02	1063.64	1	37	0.00539654	0.0299764	0	-0.0140475	0.273857	0.127634	5.98011	5.93327e-06	3.97969e-06	5.9047e-06	6.66245e-06	4.03225e-06	6.58511e-06	0.103435	0.0677653	0.654373	5.4162e-06	2.4491e-05	5.67962e-06	1.56337e-05	4.7741e-06	3.55873e-06	5.21553	1.91139	5.55475	20.1269	1.06364e+06	2.9023e+06	3.09106e+06	-69.8731	0.0000000E+000	0.0000000E+000	0.0000000E+000	69.8731	0.0000000E+000	0.0000000E+000	0.0000000E+000	-69.8731	0.0000000E+000	0.0000000E+000	0.0000000E+000	-20.1269	0.0000000E+000	0.0000000E+000	0.0000000E+000	20.1269	2.72866	69.8731	-0.000200677
227.108	0.177256	0.0670327	0.189507	-20.7151	87.5789	-0.000275001	-0.687224	10454.5	1308.04	1	37	0.0053667	0.0283192	0	-0.0144777	0.335241	0.133408	6.1213	7.47145e-06	8.37106e-06	6.09897e-06	6.15926e-06	7.54596e-06	5.43797e-06	0.124142	0.046538	0.684269	8.96903e-06	2.84971e-05	7.13659e-06	1.62328e-05	3.08422e-06	2.76338e-06	4.9357	1.86653	5.27684	20.7151	1.30804e+06	3.45889e+06	3.69796e+06	-69.2849	0.0000000E+000	0.0000000E+000	0.0000000E+000	69.2849	0.0000000E+000	0.0000000E+000	0.0000000E+000	-69.2849	0.0000000E+000	0.0000000E+000	0.0000000E+000	-20.7151	0.0000000E+000	0.0000000E+000	0.0000000E+000	20.7151	2.64432	69.2849	-0.000184624
180.288	0.18682	0.0730799	0.200605	-21.3643	89.7874	-0.000252073	-0.672074	12079.6	1603.12	1	37	0.00532704	0.0265548	0	-0.0148389	0.304004	0.1601	6.0307	6.82487e-06	8.4429e-06	3.30509e-06	3.04838e-06	7.28803e-06	5.76782e-06	0.14899	0.101295	0.734189	6.47476e-06	2.87134e-05	8.76612e-06	2.29967e-05	2.17545e-06	6.89138e-06	4.64236	1.81599	4.98491	21.3643	1.60312e+06	4.09818e+06	4.40058e+06	-68.6357	0.0000000E+000	0.0000000E+000	0.0000000E+000	68.6357	0.0000000E+000	0.0000000E+000	0.0000000E+000	-68.6357	0.0000000E+000	0.0000000E+000	0.0000000E+000	-21.3643	0.0000000E+000	0.0000000E+000	0.0000000E+000	21.3643	2.55639	68.6357	-0.000165468
143.122	0.198143	0.0799165	0.213653	-21.9655	92.0054	-0.00026171	-0.660889	13914.8	1946.86	1	37	0.00528024	0.0247142	0	-0.0152719	0.313744	0.156785	6.20852	2.73145e-06	5.87821e-06	4.22986e-06	7.87042e-06	8.51322e-06	7.02188e-06	0.154636	0.111724	0.78024	8.78801e-06	2.69062e-05	3.19743e-06	2.41856e-05	6.19446e-06	3.50646e-06	4.34073	1.75073	4.6805	21.9655	1.94686e+06	4.827e+06	5.20482e+06	-68.0345	0.0000000E+000	0.0000000E+000	0.0000000E+000	68.0345	0.0000000E+000	0.0000000E+000	0.0000000E+000	-68.0345	0.0000000E+000	0.0000000E+000	0.0000000E+000	-21.9655	0.0000000E+000	0.0000000E+000	0.0000000E+000	21.9655	2.47938	68.0345	-0.000202567
113.654	0.211172	0.0867018	0.228278	-22.3218	94.2331	-0.000267396	-0.675015	16151.3	2329.88	1	37	0.00523062	0.0229134	0	-0.0156823	0.306015	0.13279	6.17481	4.96971e-06	6.47845e-06	5.2097e-06	4.84386e-06	8.57554e-06	5.40259e-06	0.169781	0.101995	0.853311	6.89628e-06	2.68105e-05	4.51756e-06	2.44163e-05	7.88182e-06	5.55399e-06	4.05236	1.66379	4.38062	22.3218	2.32988e+06	5.6747e+06	6.13438e+06	-67.6782	0.0000000E+000	0.0000000E+000	0.0000000E+000	67.6782	0.0000000E+000	0.0000000E+000	0.0000000E+000	-67.6782	0.0000000E+000	0.0000000E+000	0.0000000E+000	-22.3218	0.0000000E+000	0.0000000E+000	0.0000000E+000	22.3218	2.43562	67.6782	-0.00021534
90.2601	0.226511	0.0928426	0.2448	-22.2878	96.4392	-0.000269931	-0.682515	18992.3	2731.8	1	37	0.00519579	0.0212246	0	-0.0161172	0.357552	0.168928	6.21129	6.63794e-06	9.4198e-06	4.54379e-06	6.85612e-06	2.682e-06	8.78472e-06	0.179859	0.0479235	0.913903	1.06277e-05	2.43348e-05	3.24414e-06	2.54395e-05	4.25074e-06	6.48442e-06	3.77978	1.54926	4.08497	22.2878	2.7318e+06	6.66486e+06	7.20299e+06	-67.7122	0.0000000E+000	0.0000000E+000	0.0000000E+000	67.7122	0.0000000E+000	0.0000000E+000	0.0000000E+000	-67.7122	0.0000000E+000	0.0000000E+000	0.0000000E+000	-22.2878	0.0000000E+000	0.0000000E+000	0.0000000E+000	22.2878	2.43973	67.7122	-0.000233827
71.6276	0.244644	0.0976318	0.263406	-21.7558	98.6402	-0.000268906	-0.667086	22758.7	3126.65	1	37	0.00516516	0.0196091	0	-0.0165246	0.274394	0.173055	6.28093	5.09974e-06	6.49147e-06	3.43841e-06	7.38373e-06	3.29847e-06	5.89307e-06	0.188954	0.0582965	0.992398	8.19613e-06	2.40196e-05	2.58452e-06	2.58529e-05	4.89856e-06	2.42031e-06	3.52601	1.40715	3.79642	21.7558	3.12665e+06	7.83471e+06	8.43555e+06	-68.2442	0.0000000E+000	0.0000000E+000	0.0000000E+000	68.2442	0.0000000E+000	0.0000000E+000	0.0000000E+000	-68.2442	0.0000000E+000	0.0000000E+000	0.0000000E+000	-21.7558	0.0000000E+000	0.0000000E+000	0.0000000E+000	21.7558	2.50578	68.2442	-0.000197556
56.8746	0.263765	0.0998693	0.282039	-20.7382	100.848	-0.000267918	-0.674438	28020.1	3513.31	1	37	0.00513876	0.0182201	0	-0.0169452	0.360001	0.193936	6.27529	4.00181e-06	8.33717e-06	5.76025e-06	1.0428e-05	6.80594e-06	6.67438e-06	0.18189	0.121586	1.06398	8.67854e-06	1.9922e-05	3.13067e-06	2.30062e-05	4.20806e-06	2.98555e-06	3.31589	1.2555	3.54562	20.7382	3.51331e+06	9.27901e+06	9.92187e+06	-69.2618	0.0000000E+000	0.0000000E+000	0.0000000E+000	69.2618	0.0000000E+000	0.0000000E+000	0.0000000E+000	-69.2618	0.0000000E+000	0.0000000E+000	0.0000000E+000	-20.7382	0.0000000E+000	0.0000000E+000	0.0000000E+000	20.7382	2.6411	69.2618	-0.000209318
45.1589	0.283641	0.0998538	0.300704	-19.3943	103.057	-0.000265699	-0.661987	35294.9	3891.91	1	37	0.00512188	0.017033	0	-0.0173771	0.308317	0.163009	6.24431	7.20558e-06	7.97072e-06	5.10886e-06	4.76969e-06	6.04132e-06	5.39874e-06	0.157302	0.105135	1.14936	6.98264e-06	1.71151e-05	4.2923e-06	1.80748e-05	1.89769e-06	3.10331e-06	3.13683	1.1043	3.32553	19.3943	3.89191e+06	1.10552e+07	1.17203e+07	-70.6057	0.0000000E+000	0.0000000E+000	0.0000000E+000	70.6057	0.0000000E+000	0.0000000E+000	0.0000000E+000	-70.6057	0.0000000E+000	0.0000000E+000	0.0000000E+000	-19.3943	0.0000000E+000	0.0000000E+000	0.0000000E+000	19.3943	2.84056	70.6057	-0.000216897
35.8607	0.303207	0.0961963	0.318101	-17.6023	105.257	-0.000268085	-0.664704	46136.4	4219.19	1	37	0.00511031	0.016065	0	-0.0178041	0.338735	0.204181	6.28866	7.49556e-06	1.07138e-05	5.85546e-06	1.98938e-06	3.29561e-06	7.19354e-06	0.158395	0.0705286	1.24057	7.05584e-06	1.39699e-05	4.41544e-06	1.68215e-05	5.18071e-06	7.2847e-06	2.99646	0.950666	3.14365	17.6023	4.21919e+06	1.32987e+07	1.3952e+07	-72.3977	0.0000000E+000	0.0000000E+000	0.0000000E+000	72.3977	0.0000000E+000	0.0000000E+000	0.0000000E+000	-72.3977	0.0000000E+000	0.0000000E+000	0.0000000E+000	-17.6023	0.0000000E+000	0.0000000E+000	0.0000000E+000	17.6023	3.15196	72.3977	-0.000210671
28.4608	0.320797	0.0907763	0.333393	-15.8	107.473	-0.000264376	-0.672931	61602.7	4567	1	37	0.00510038	0.0152984	0	-0.0182259	0.271584	0.194684	6.36962	5.26811e-06	6.31619e-06	4.73771e-06	5.80539e-06	5.14369e-06	3.1219e-06	0.174763	0.0457872	1.27245	6.95364e-06	1.51379e-05	3.60065e-06	1.83411e-05	5.36991e-06	5.9114e-06	2.88613	0.816692	2.99946	15.8	4.567e+06	1.61395e+07	1.67732e+07	-74.2	0.0000000E+000	0.0000000E+000	0.0000000E+000	74.2	0.0000000E+000	0.0000000E+000	0.0000000E+000	-74.2	0.0000000E+000	0.0000000E+000	0.0000000E+000	-15.8	0.0000000E+000	0.0000000E+000	0.0000000E+000	15.8	3.53393	74.2	-0.00021337
22.6056	0.336544	0.0824328	0.346492	-13.763	109.731	-0.000260051	-0.648447	85409.2	4834.12	1	37	0.00508929	0.014688	0	-0.0186404	0.249691	0.112491	4.3933	3.91567e-06	5.67811e-06	4.51458e-06	5.56095e-06	6.00678e-06	3.24206e-06	0.170231	0.0543318	0.974896	1.02138e-05	1.33035e-05	3.15487e-06	1.67824e-05	4.38237e-06	2.78965e-06	2.8032	0.686615	2.88607	13.763	4.83412e+06	1.9736e+07	2.03194e+07	-76.237	0.0000000E+000	0.0000000E+000	0.0000000E+000	76.237	0.0000000E+000	0.0000000E+000	0.0000000E+000	-76.237	0.0000000E+000	0.0000000E+000	0.0000000E+000	-13.763	0.0000000E+000	0.0000000E+000	0.0000000E+000	13.763	4.08264	76.237	-0.000209702
17.9391	0.348785	0.0735236	0.35645	-11.9036	111.999	-0.00027214	-0.683037	120668	5133.92	1	37	0.00508348	0.0142614	0	-0.0190656	0.223935	0.145947	4.37303	2.4283e-06	4.00006e-06	5.37246e-06	4.12121e-06	4.2358e-06	5.35201e-06	0.148276	0.0702115	0.989929	6.92238e-06	1.44416e-05	2.88449e-06	1.18301e-05	4.37052e-06	3.15742e-06	2.74512	0.578669	2.80545	11.9036	5.13392e+06	2.43545e+07	2.48897e+07	-78.0964	0.0000000E+000	0.0000000E+000	0.0000000E+000	78.0964	0.0000000E+000	0.0000000E+000	0.0000000E+000	-78.0964	0.0000000E+000	0.0000000E+000	0.0000000E+000	-11.9036	0.0000000E+000	0.0000000E+000	0.0000000E+000	11.9036	4.74385	78.0964	-0.000241398
14.2477	0.359783	0.0647333	0.36556	-10.1997	114.206	-0.000273473	-0.685121	172562	5411.08	1	37	0.00508039	0.0138975	0	-0.0194969	0.393512	0.152089	6.43624	9.27267e-06	1.0231e-05	6.15043e-06	5.96064e-06	5.42837e-06	8.53956e-06	0.167579	0.0602159	1.42251	7.34395e-06	1.53266e-05	4.64916e-06	1.30492e-05	5.02627e-06	3.3259e-06	2.6923	0.484407	2.73553	10.1997	5.41108e+06	3.00744e+07	3.05573e+07	-79.8003	0.0000000E+000	0.0000000E+000	0.0000000E+000	79.8003	0.0000000E+000	0.0000000E+000	0.0000000E+000	-79.8003	0.0000000E+000	0.0000000E+000	0.0000000E+000	-10.1997	0.0000000E+000	0.0000000E+000	0.0000000E+000	10.1997	5.55793	79.8003	-0.000227172
11.3142	0.36745	0.0562879	0.371737	-8.70915	116.449	-0.000265793	-0.676132	249908	5729.8	1	37	0.00507697	0.0136575	0	-0.0199337	0.309199	0.264075	6.32884	6.91598e-06	5.03306e-06	6.51088e-06	3.71562e-06	4.6656e-06	7.95944e-06	0.161666	0.0420192	1.42049	8.62771e-06	1.23235e-05	6.84196e-06	1.06744e-05	7.60538e-06	3.95186e-06	2.65906	0.407328	2.69008	8.70915	5.7298e+06	3.74044e+07	3.78408e+07	-81.2908	0.0000000E+000	0.0000000E+000	0.0000000E+000	81.2908	0.0000000E+000	0.0000000E+000	0.0000000E+000	-81.2908	0.0000000E+000	0.0000000E+000	0.0000000E+000	-8.70915	0.0000000E+000	0.0000000E+000	0.0000000E+000	8.70915	6.52806	81.2908	-0.00019525
8.97989	0.374724	0.0482487	0.377818	-7.33692	118.698	-0.000269968	-0.681696	367336	5990.6	1	37	0.00507953	0.0134444	0	-0.0203342	0.236736	0.120773	4.433	4.21566e-06	4.729e-06	4.84961e-06	2.19967e-06	4.49333e-06	6.61468e-06	0.136856	0.0958949	1.05866	8.09764e-06	9.49609e-06	4.06601e-06	1.128e-05	3.95322e-06	2.94781e-06	2.62511	0.338004	2.64678	7.33692	5.9906e+06	4.65261e+07	4.69102e+07	-82.6631	0.0000000E+000	0.0000000E+000	0.0000000E+000	82.6631	0.0000000E+000	0.0000000E+000	0.0000000E+000	-82.6631	0.0000000E+000	0.0000000E+000	0.0000000E+000	-7.33692	0.0000000E+000	0.0000000E+000	0.0000000E+000	7.33692	7.76652	82.6631	-0.000199755
7.12819	0.379472	0.0413113	0.381715	-6.21304	121.177	-0.000274787	-0.688611	540470	6330.41	1	37	0.00507634	0.0132988	0	-0.020818	0.22062	0.156797	4.78935	3.84762e-06	7.42702e-06	2.70868e-06	3.24967e-06	3.11989e-06	3.32558e-06	0.188556	0.0686632	1.09508	7.42834e-06	7.89342e-06	4.65734e-06	8.8559e-06	2.80017e-06	1.98227e-05	2.60437	0.283525	2.61976	6.21304	6.33042e+06	5.81492e+07	5.84927e+07	-83.787	0.0000000E+000	0.0000000E+000	0.0000000E+000	83.787	0.0000000E+000	0.0000000E+000	0.0000000E+000	-83.787	0.0000000E+000	0.0000000E+000	0.0000000E+000	-6.21304	0.0000000E+000	0.0000000E+000	0.0000000E+000	6.21304	9.18569	83.787	-0.000264053
5.66123	0.383223	0.0351119	0.384828	-5.23498	124.037	-0.000267004	-0.678495	800671	6665.46	1	37	0.00507984	0.0132003	0	-0.0213549	0.198025	0.0990555	3.57577	4.11369e-06	3.96048e-06	5.79754e-06	2.57906e-06	1.6986e-06	4.3419e-06	0.11397	0.0469716	0.909386	7.87049e-06	8.61971e-06	3.47598e-06	7.52082e-06	2.13042e-06	2.98682e-06	2.58772	0.237094	2.59856	5.23498	6.66546e+06	7.2749e+07	7.30537e+07	-84.765	0.0000000E+000	0.0000000E+000	0.0000000E+000	84.765	0.0000000E+000	0.0000000E+000	0.0000000E+000	-84.765	0.0000000E+000	0.0000000E+000	0.0000000E+000	-5.23498	0.0000000E+000	0.0000000E+000	0.0000000E+000	5.23498	10.9143	84.765	-0.000445062
4.49511	0.385876	0.0300841	0.387047	-4.45794	127.398	-0.000277341	-0.725335	1.17691e+06	7110.34	1	37	0.00507238	0.0131054	0	-0.0220456	0.151923	0.0862464	3.00024	2.56707e-06	2.15695e-06	3.51632e-06	2.41598e-06	3.35262e-06	3.20975e-06	0.120832	0.0871853	0.814239	5.11751e-06	8.94536e-06	3.20269e-06	1.00975e-05	1.86145e-06	3.21729e-06	2.57585	0.200821	2.58367	4.45794	7.11033e+06	9.12013e+07	9.1478e+07	-85.5421	0.0000000E+000	0.0000000E+000	0.0000000E+000	85.5421	0.0000000E+000	0.0000000E+000	0.0000000E+000	-85.5421	0.0000000E+000	0.0000000E+000	0.0000000E+000	-4.45794	0.0000000E+000	0.0000000E+000	0.0000000E+000	4.45794	12.8266	85.5421	-0.000412021
3.56735	0.388644	0.0260036	0.389513	-3.82787	131.401	-0.000266874	-0.706605	1.7157e+06	7646.5	1	37	0.00507613	0.013032	0	-0.02277	0.182641	0.120562	2.66206	3.49112e-06	5.34752e-06	2.32282e-06	4.38614e-06	2.9478e-06	2.24249e-06	0.12141	0.111648	0.755058	5.02618e-06	1.00456e-05	2.77473e-06	9.10393e-06	4.41895e-06	2.59177e-06	2.56158	0.171391	2.56731	3.82787	7.6465e+06	1.14283e+08	1.14539e+08	-86.1721	0.0000000E+000	0.0000000E+000	0.0000000E+000	86.1721	0.0000000E+000	0.0000000E+000	0.0000000E+000	-86.1721	0.0000000E+000	0.0000000E+000	0.0000000E+000	-3.82787	0.0000000E+000	0.0000000E+000	0.0000000E+000	3.82787	14.9458	86.1721	-0.000553328
2.83369	0.39593	0.0227399	0.396583	-3.28712	136.227	-0.000269803	-0.681926	2.4699e+06	8120.6	1	37	0.00507501	0.0127968	0	-0.0234826	0.175379	0.103333	2.3965	2.47058e-06	5.79783e-06	3.26904e-06	3.6926e-06	2.50891e-06	2.26128e-06	0.26486	0.897289	0.749333	1.94955e-05	1.7938e-05	1.17542e-05	1.39895e-05	7.20382e-06	5.76168e-06	2.51739	0.144584	2.52154	3.28712	8.12061e+06	1.4139e+08	1.41623e+08	-86.7129	0.0000000E+000	0.0000000E+000	0.0000000E+000	86.7129	0.0000000E+000	0.0000000E+000	0.0000000E+000	-86.7129	0.0000000E+000	0.0000000E+000	0.0000000E+000	-3.28712	0.0000000E+000	0.0000000E+000	0.0000000E+000	3.28712	17.4113	86.7129	-0.000526494
2.25014	0.394618	0.0201826	0.395134	-2.92781	142.097	-0.000267799	-0.698868	3.50456e+06	9143.18	1	37	0.00507476	0.0128431	0	-0.0245185	0.174735	0.0664204	2.06498	2.50815e-06	6.8336e-06	1.81863e-06	3.41693e-06	1.03353e-06	1.93597e-06	0.11734	0.0622784	0.64097	5.35397e-06	9.64246e-06	3.07828e-06	8.57947e-06	2.73406e-06	1.79744e-06	2.52748	0.129267	2.53079	2.92781	9.14317e+06	1.78772e+08	1.79005e+08	-87.0722	0.0000000E+000	0.0000000E+000	0.0000000E+000	87.0722	0.0000000E+000	0.0000000E+000	0.0000000E+000	-87.0722	0.0000000E+000	0.0000000E+000	0.0000000E+000	-2.92781	0.0000000E+000	0.0000000E+000	0.0000000E+000	2.92781	19.5524	87.0722	-0.000482402
1.78572	0.395403	0.0182253	0.395822	-2.63906	149.291	-0.000271182	-0.70166	4.89027e+06	10367.7	1	37	0.00507517	0.0128218	0	-0.0261717	0.11516	0.0805376	1.89685	1.87107e-06	3.355e-06	2.22958e-06	2.31048e-06	1.42995e-06	1.24656e-06	0.100364	0.0491042	0.59727	2.4838e-06	9.17308e-06	2.41342e-06	7.5071e-06	2.09936e-06	2.21606e-06	2.52371	0.116325	2.52639	2.63906	1.03677e+07	2.24929e+08	2.25168e+08	-87.3609	0.0000000E+000	0.0000000E+000	0.0000000E+000	87.3609	0.0000000E+000	0.0000000E+000	0.0000000E+000	-87.3609	0.0000000E+000	0.0000000E+000	0.0000000E+000	-2.63906	0.0000000E+000	0.0000000E+000	0.0000000E+000	2.63906	21.6953	87.3609	-0.00108798
1.41736	0.396899	0.0169693	0.397262	-2.44817	159.465	-0.000275499	-0.668403	6.61722e+06	12074	1	38	0.00507426	0.0127731	0	-0.0277413	0.148489	0.0603303	1.67396	2.59668e-06	4.90846e-06	1.88717e-06	3.40377e-06	2.55513e-06	1.01196e-06	0.114241	0.0360382	0.35109	2.76218e-06	1.08291e-05	1.42039e-06	8.90358e-06	1.36305e-06	9.94208e-07	2.51493	0.107525	2.51723	2.44817	1.2074e+07	2.82401e+08	2.82659e+08	-87.5518	0.0000000E+000	0.0000000E+000	0.0000000E+000	87.5518	0.0000000E+000	0.0000000E+000	0.0000000E+000	-87.5518	0.0000000E+000	0.0000000E+000	0.0000000E+000	-2.44817	0.0000000E+000	0.0000000E+000	0.0000000E+000	2.44817	23.3892	87.5518	-0.000162269
1.12508	0.398317	0.0161565	0.398645	-2.32276	170.434	-0.000263839	-0.658866	8.7557e+06	14381.8	1	38	0.00507624	0.0127338	0	-0.0298443	0.0995552	0.0557291	1.4403	1.90085e-06	2.92039e-06	1.19878e-06	2.27663e-06	1.26685e-06	1.81163e-06	0.115037	0.0563297	0.34805	3.8354e-06	1.09429e-05	1.93142e-06	8.24717e-06	1.30693e-06	9.82875e-07	2.50644	0.101666	2.5085	2.32276	1.43818e+07	3.54565e+08	3.54857e+08	-87.6772	0.0000000E+000	0.0000000E+000	0.0000000E+000	87.6772	0.0000000E+000	0.0000000E+000	0.0000000E+000	-87.6772	0.0000000E+000	0.0000000E+000	0.0000000E+000	-2.32276	0.0000000E+000	0.0000000E+000	0.0000000E+000	2.32276	24.6536	87.6772	-0.000608869
0.893876	0.40014	0.0159096	0.400457	-2.27688	184.037	-0.000249191	-0.629431	1.11914e+07	17664.1	1	38	0.00507246	0.0126667	0	-0.0318275	0.127453	0.0407042	1.2949	2.38603e-06	4.21782e-06	1.28688e-06	2.81585e-06	2.22019e-06	1.19164e-06	0.125086	0.0663439	0.357557	5.02294e-06	1.01228e-05	2.42416e-06	9.28146e-06	2.52857e-06	2.49573e-06	2.49518	0.0992084	2.49715	2.27688	1.76641e+07	4.44267e+08	4.44618e+08	-87.7231	0.0000000E+000	0.0000000E+000	0.0000000E+000	87.7231	0.0000000E+000	0.0000000E+000	0.0000000E+000	-87.7231	0.0000000E+000	0.0000000E+000	0.0000000E+000	-2.27688	0.0000000E+000	0.0000000E+000	0.0000000E+000	2.27688	25.1509	87.7231	-0.000266422
0.709519	0.401429	0.01686	0.401783	-2.40501	200.95	-0.000235091	-0.593093	1.33045e+07	23427.8	1	38	0.00507338	0.0126272	0	-0.0353302	0.10304	0.0507656	1.13443	2.30089e-06	2.80279e-06	2.10343e-06	2.04915e-06	6.29433e-07	1.25862e-06	0.129951	0.0748288	0.346851	3.3781e-06	1.05403e-05	2.11132e-06	1.12761e-05	2.14515e-06	1.3822e-06	2.48671	0.104442	2.48891	2.40501	2.34278e+07	5.57805e+08	5.58296e+08	-87.595	0.0000000E+000	0.0000000E+000	0.0000000E+000	87.595	0.0000000E+000	0.0000000E+000	0.0000000E+000	-87.595	0.0000000E+000	0.0000000E+000	0.0000000E+000	-2.40501	0.0000000E+000	0.0000000E+000	0.0000000E+000	2.40501	23.8095	87.595	-0.000887516
0.563185	0.403588	0.0185932	0.404017	-2.63774	222.085	-0.000255399	-0.639151	1.5199e+07	32190.4	1	38	0.00507349	0.0125576	0	-0.0395971	0.141765	0.0645523	1.03575	2.06207e-06	4.95224e-06	1.50401e-06	2.8265e-06	1.90443e-06	2.43684e-06	0.147409	0.0745226	0.356019	5.44914e-06	1.32409e-05	2.76698e-06	9.8245e-06	2.24107e-06	3.98591e-06	2.47252	0.113909	2.47515	2.63774	3.21904e+07	6.9873e+08	6.99471e+08	-87.3623	0.0000000E+000	0.0000000E+000	0.0000000E+000	87.3623	0.0000000E+000	0.0000000E+000	0.0000000E+000	-87.3623	0.0000000E+000	0.0000000E+000	0.0000000E+000	-2.63774	0.0000000E+000	0.0000000E+000	0.0000000E+000	2.63774	21.7062	87.3623	-0.00340482
0.447298	0.40608	0.0199422	0.406569	-2.81149	248.539	-0.000270576	-0.655287	1.78423e+07	42926.7	1	38	0.00507338	0.0124785	0	-0.042811	0.124577	0.0599064	0.945587	2.6043e-06	3.96137e-06	1.80369e-06	2.51884e-06	1.39799e-06	1.61796e-06	0.123763	0.109461	0.359779	3.07268e-06	9.81352e-06	3.12982e-06	9.49738e-06	3.93447e-06	3.06089e-06	2.45664	0.120644	2.4596	2.81149	4.29267e+07	8.74109e+08	8.75163e+08	-87.1885	0.0000000E+000	0.0000000E+000	0.0000000E+000	87.1885	0.0000000E+000	0.0000000E+000	0.0000000E+000	-87.1885	0.0000000E+000	0.0000000E+000	0.0000000E+000	-2.81149	0.0000000E+000	0.0000000E+000	0.0000000E+000	2.81149	20.3628	87.1885	-0.000867149
0.355178	0.409492	0.0207501	0.410017	-2.90086	281.677	-0.000279122	-0.699618	2.1595e+07	55308.2	1	38	0.00507245	0.0123713	0	-0.0510973	0.112272	0.0694466	0.822338	1.89552e-06	3.74146e-06	1.1099e-06	2.19549e-06	2.37569e-06	1.05315e-06	0.121467	0.103605	0.351535	4.85351e-06	9.44767e-06	1.99553e-06	8.39677e-06	5.19977e-06	1.5025e-06	2.4358	0.123429	2.43892	2.90086	5.53082e+07	1.09148e+09	1.09288e+09	-87.0991	0.0000000E+000	0.0000000E+000	0.0000000E+000	87.0991	0.0000000E+000	0.0000000E+000	0.0000000E+000	-87.0991	0.0000000E+000	0.0000000E+000	0.0000000E+000	-2.90086	0.0000000E+000	0.0000000E+000	0.0000000E+000	2.90086	19.7345	87.0991	-0.00520816
0.281811	0.413171	0.0206041	0.413685	-2.85487	323.261	-0.000282571	-0.684132	2.741e+07	67994.9	1	38	0.00507293	0.0122628	0	-0.0576643	0.122276	0.101455	0.74975	2.65182e-06	4.13542e-06	1.44473e-06	2.20901e-06	2.08771e-06	8.50246e-07	0.130969	0.0479842	0.343855	4.08828e-06	1.0659e-05	1.55888e-06	1.07332e-05	2.18154e-06	1.66773e-06	2.4143	0.120396	2.4173	2.85487	6.79949e+07	1.3635e+09	1.36519e+09	-87.1451	0.0000000E+000	0.0000000E+000	0.0000000E+000	87.1451	0.0000000E+000	0.0000000E+000	0.0000000E+000	-87.1451	0.0000000E+000	0.0000000E+000	0.0000000E+000	-2.85487	0.0000000E+000	0.0000000E+000	0.0000000E+000	2.85487	20.0529	87.1451	-0.00231727
0.223912	0.417911	0.0197361	0.418377	-2.70381	375.464	-0.000268394	-0.660386	3.6015e+07	80143.5	1	38	0.00507237	0.0121239	0	-0.0661449	0.122007	0.0889317	0.672818	1.66612e-06	4.70213e-06	1.92659e-06	2.45476e-06	9.2116e-07	1.40821e-06	0.128441	0.108675	0.327529	3.8857e-06	1.01769e-05	2.99205e-06	9.89892e-06	1.59715e-06	1.68961e-06	2.38753	0.112752	2.39019	2.70381	8.01435e+07	1.69704e+09	1.69893e+09	-87.2962	0.0000000E+000	0.0000000E+000	0.0000000E+000	87.2962	0.0000000E+000	0.0000000E+000	0.0000000E+000	-87.2962	0.0000000E+000	0.0000000E+000	0.0000000E+000	-2.70381	0.0000000E+000	0.0000000E+000	0.0000000E+000	2.70381	21.175	87.2962	-0.00576778
0.177799	0.420594	0.0185729	0.421003	-2.52847	441.032	-0.000268499	-0.633648	4.8196e+07	93799.1	1	38	0.00507203	0.0120475	0	-0.0821443	0.0992177	0.102432	0.589537	1.66899e-06	4.11233e-06	1.28211e-06	1.16131e-06	1.25357e-06	5.7836e-07	0.140589	0.174485	0.315005	7.9476e-06	1.28915e-05	2.48616e-06	6.52214e-06	6.87525e-07	1.32764e-06	2.37297	0.104787	2.37528	2.52847	9.3799e+07	2.12413e+09	2.1262e+09	-87.4715	0.0000000E+000	0.0000000E+000	0.0000000E+000	87.4715	0.0000000E+000	0.0000000E+000	0.0000000E+000	-87.4715	0.0000000E+000	0.0000000E+000	0.0000000E+000	-2.52847	0.0000000E+000	0.0000000E+000	0.0000000E+000	2.52847	22.6456	87.4715	-0.00779192
0.141153	0.42338	0.0172902	0.423733	-2.33857	523.458	-0.000259369	-0.618373	6.52123e+07	108578	1	38	0.00507363	0.0119736	0	-0.0925355	0.121568	0.0780355	0.520744	2.07884e-06	4.74481e-06	4.79547e-07	2.91031e-06	8.28668e-07	5.18329e-07	0.150685	0.111837	0.291038	6.91658e-06	1.02927e-05	1.97364e-06	1.24154e-05	2.4302e-06	1.98278e-06	2.35801	0.0962973	2.35998	2.33857	1.08578e+08	2.65873e+09	2.66095e+09	-87.6614	0.0000000E+000	0.0000000E+000	0.0000000E+000	87.6614	0.0000000E+000	0.0000000E+000	0.0000000E+000	-87.6614	0.0000000E+000	0.0000000E+000	0.0000000E+000	-2.33857	0.0000000E+000	0.0000000E+000	0.0000000E+000	2.33857	24.4868	87.6614	-0.00435457
0.112067	0.428008	0.0158744	0.428303	-2.12407	627.11	-0.000271198	-0.65085	8.94631e+07	122896	1	38	0.00507165	0.0118413	0	-0.108018	0.102461	0.0658548	0.468649	8.54818e-07	3.87816e-06	6.15911e-07	2.46911e-06	1.46901e-06	1.07341e-06	0.173867	0.161054	0.281353	9.33287e-06	1.15537e-05	2.0697e-06	1.22424e-05	4.25046e-06	1.47021e-06	2.33319	0.0865359	2.3348	2.12407	1.22896e+08	3.31354e+09	3.31582e+09	-87.8759	0.0000000E+000	0.0000000E+000	0.0000000E+000	87.8759	0.0000000E+000	0.0000000E+000	0.0000000E+000	-87.8759	0.0000000E+000	0.0000000E+000	0.0000000E+000	-2.12407	0.0000000E+000	0.0000000E+000	0.0000000E+000	2.12407	26.9621	87.8759	-0.00968618
0.0888996	0.429118	0.0144958	0.429363	-1.93474	757.58	-0.000249505	-0.627168	1.23503e+08	140771	1	38	0.00507231	0.0118136	0	-0.139158	0.100644	0.140858	0.423248	2.55696e-06	3.56792e-06	4.95529e-07	1.96287e-06	9.98916e-07	8.06405e-07	0.134633	0.150657	0.256959	6.64196e-06	9.33555e-06	3.40187e-06	9.15662e-06	2.46357e-06	3.13686e-06	2.3277	0.078631	2.32903	1.93474	1.40771e+08	4.16724e+09	4.16961e+09	-88.0653	0.0000000E+000	0.0000000E+000	0.0000000E+000	88.0653	0.0000000E+000	0.0000000E+000	0.0000000E+000	-88.0653	0.0000000E+000	0.0000000E+000	0.0000000E+000	-1.93474	0.0000000E+000	0.0000000E+000	0.0000000E+000	1.93474	29.6029	88.0653	-0.0167266
0.0705771	0.429971	0.013712	0.43019	-1.82657	921.808	-0.000263116	-0.637944	1.64459e+08	167084	1	38	0.00507225	0.0117907	0	-0.169535	0.104993	0.114381	0.384149	1.96998e-06	3.87656e-06	7.51631e-07	2.02638e-06	1.35027e-06	4.64264e-07	0.131571	0.173522	0.237878	5.70579e-06	6.40088e-06	4.40831e-06	1.0296e-05	3.87185e-06	1.65014e-06	2.32337	0.0740934	2.32455	1.82657	1.67084e+08	5.23933e+09	5.24199e+09	-88.1734	0.0000000E+000	0.0000000E+000	0.0000000E+000	88.1734	0.0000000E+000	0.0000000E+000	0.0000000E+000	-88.1734	0.0000000E+000	0.0000000E+000	0.0000000E+000	-1.82657	0.0000000E+000	0.0000000E+000	0.0000000E+000	1.82657	31.3574	88.1734	-0.0141486
0.0560337	0.429939	0.0123552	0.430117	-1.64606	1128.48	-0.000252705	-0.657426	2.29891e+08	189691	1	38	0.0050713	0.0117905	0	-0.194166	0.108693	0.125016	0.349405	2.57864e-06	3.577e-06	1.27624e-06	1.61439e-06	1.29925e-06	8.9822e-07	0.135895	0.154144	0.222856	5.37212e-06	9.34428e-06	2.92453e-06	8.31969e-06	2.96765e-06	2.82815e-06	2.32399	0.0667846	2.32495	1.64606	1.89691e+08	6.60093e+09	6.60365e+09	-88.3539	0.0000000E+000	0.0000000E+000	0.0000000E+000	88.3539	0.0000000E+000	0.0000000E+000	0.0000000E+000	-88.3539	0.0000000E+000	0.0000000E+000	0.0000000E+000	-1.64606	0.0000000E+000	0.0000000E+000	0.0000000E+000	1.64606	34.7983	88.3539	-0.0128007
0.0445025	0.42915	0.0115391	0.429305	-1.54022	1388.54	-0.00025152	-0.641967	3.09929e+08	223912	1	38	0.00507267	0.011816	0	-0.241361	0.119409	0.0931654	0.321497	3.23512e-06	4.31937e-06	9.49408e-07	2.21634e-06	7.88549e-07	5.79098e-07	0.155976	0.185772	0.220202	7.91921e-06	1.10896e-05	3.73723e-06	1.05902e-05	2.7139e-06	1.89694e-06	2.3285	0.0626096	2.32934	1.54022	2.23912e+08	8.32747e+09	8.33048e+09	-88.4598	0.0000000E+000	0.0000000E+000	0.0000000E+000	88.4598	0.0000000E+000	0.0000000E+000	0.0000000E+000	-88.4598	0.0000000E+000	0.0000000E+000	0.0000000E+000	-1.54022	0.0000000E+000	0.0000000E+000	0.0000000E+000	1.54022	37.1908	88.4598	-0.0279303
0.0353467	0.428947	0.0112231	0.429094	-1.49877	1715.93	-0.000243922	-0.624115	4.01196e+08	274462	1	38	0.00507294	0.0118225	0	-0.315225	0.114093	0.0863843	0.298916	1.63964e-06	4.4257e-06	7.20928e-07	2.61024e-06	1.37798e-06	6.26309e-07	0.16262	0.203842	0.194509	8.52292e-06	1.20947e-05	2.5356e-06	1.03607e-05	3.12764e-06	1.50055e-06	2.3297	0.0609552	2.33049	1.49877	2.74462e+08	1.04899e+10	1.04935e+10	-88.5012	0.0000000E+000	0.0000000E+000	0.0000000E+000	88.5012	0.0000000E+000	0.0000000E+000	0.0000000E+000	-88.5012	0.0000000E+000	0.0000000E+000	0.0000000E+000	-1.49877	0.0000000E+000	0.0000000E+000	0.0000000E+000	1.49877	38.2198	88.5012	-0.0388256
0.0280409	0.428865	0.0103046	0.428989	-1.37641	2128.12	-0.000241621	-0.613122	5.50806e+08	317810	1	38	0.00507228	0.0118238	0	-0.38502	0.118151	0.0885224	0.266683	1.61908e-06	4.99713e-06	1.3354e-06	1.67873e-06	1.17512e-06	1.05333e-06	0.147776	0.154604	0.192122	9.32897e-06	9.64655e-06	4.95603e-06	7.65268e-06	4.6546e-06	1.46077e-06	2.33039	0.0559936	2.33106	1.37641	3.1781e+08	1.32269e+10	1.32307e+10	-88.6236	0.0000000E+000	0.0000000E+000	0.0000000E+000	88.6236	0.0000000E+000	0.0000000E+000	0.0000000E+000	-88.6236	0.0000000E+000	0.0000000E+000	0.0000000E+000	-1.37641	0.0000000E+000	0.0000000E+000	0.0000000E+000	1.37641	41.6189	88.6236	-0.0324098
0.0250094	0.428789	0.0101087	0.428908	-1.35049	2372.58	-0.000253644	-0.645389	6.29539e+08	349689	1	38	0.00507178	0.0118249	0	-0.415751	0.107714	0.0901047	0.265892	2.12648e-06	4.46795e-06	1.15749e-06	1.60098e-06	9.12388e-07	4.7724e-07	0.157229	0.154473	0.195752	5.26995e-06	1.40939e-05	3.41186e-06	9.08044e-06	1.88122e-06	3.56292e-06	2.33086	0.0549498	2.3315	1.35049	3.49689e+08	1.48331e+10	1.48372e+10	-88.6495	0.0000000E+000	0.0000000E+000	0.0000000E+000	88.6495	0.0000000E+000	0.0000000E+000	0.0000000E+000	-88.6495	0.0000000E+000	0.0000000E+000	0.0000000E+000	-1.35049	0.0000000E+000	0.0000000E+000	0.0000000E+000	1.35049	42.4179	88.6495	-0.0307314