File: Python/Experiments/IRFB/FirstCell/Data/240405-EIS-50mM_FeCl2FeCl3-1M_HCl-30mLmin-LowFreq_Full_C15.mpt
EC-Lab ASCII FILE
Nb header lines : 66

Potentio Electrochemical Impedance Spectroscopy

Run on channel : 15 (SN 19485)
User :
Electrode connection : standard
Potential control : Ewe
Ewe ctrl range : min = -1.00 V, max = 1.00 V
Ewe,I filtering : <None>
Safety Limits :
	Do not start on E overload
Channel : Floating
Acquisition started on : 04/05/2024 11:11:59.743
Loaded Setting File :  NONE
Saved on :
	File : 240405-EIS-50mM_FeCl2FeCl3-1M_HCl-30mLmin-LowFreq_Full_C15.mpr
	Directory : C:\Data\mathias\IRFB\
	Host : 192.168.0.1
Device : VMP-300 (SN 0826)
Address : USB
EC-Lab for windows v11.52 (software)
Internet server v11.52 (firmware)
Command interpretor v11.52 (firmware)
Electrode material :
Initial state :
Electrolyte :
Comments :
Cable : special
Electrode surface area : 0.001 cm²
Characteristic mass : 0.001 g
Equivalent Weight : 0.000 g/eq.
Density : 0.000 g/cm3
Volume (V) : 0.001 cm³
Record EIS quality indicators
Cycle Definition : Charge/Discharge alternance
Mode                Single sine
E (V)               0.0000
vs.                 Eoc
tE (h:m:s)          0:00:0.0000
record              0
dI                  0.000
unit dI             mA
dt (s)              0.000
fi                  920.000
unit fi             kHz
ff                  25.000
unit ff             mHz
Nd                  10
Points              per decade
spacing             Logarithmic
Va (mV)             5.0
pw                  0.10
Na                  3
corr                0
E range min (V)     -1.000
E range max (V)     1.000
I Range             Auto
Bandwidth           8
nc cycles           2
goto Ns'            0
nr cycles           999
inc. cycle          1

freq/Hz	Re(Z)/Ohm	-Im(Z)/Ohm	|Z|/Ohm	Phase(Z)/deg	time/s	<Ewe>/V	<I>/mA	Cs/µF	Cp/µF	cycle number	I Range	|Ewe|/V	|I|/A	Ns	(Q-Qo)/mA.h	THD Ewe/%	NSD Ewe/%	NSR Ewe/%	|Ewe h2|/V	|Ewe h3|/V	|Ewe h4|/V	|Ewe h5|/V	|Ewe h6|/V	|Ewe h7|/V	THD I/%	NSD I/%	NSR I/%	|I h2|/A	|I h3|/A	|I h4|/A	|I h5|/A	|I h6|/A	|I h7|/A	Re(Y)/Ohm-1	Im(Y)/Ohm-1	|Y|/Ohm-1	Phase(Y)/deg	Re(C)/nF	Im(C)/nF	|C|/nF	Phase(C)/deg	Re(M)	Im(M)	|M|	Phase(M)/deg	Re(Permittivity)	Im(Permittivity)	|Permittivity|	Phase(Permittivity)/deg	Re(Resistivity)/Ohm.cm	Im(Resistivity)/Ohm.cm	|Resistivity|/Ohm.cm	Phase(Resistivity)/deg	Re(Conductivity)/mS/cm	Im(Conductivity)/mS/cm	|Conductivity|/mS/cm	Phase(Conductivity)/deg	Tan(Delta)	Loss Angle(Delta)/deg	dq/mA.h
920001	-0.120769	-0.286523	0.310935	112.855	1.97648	-0.000140937	-0.826958	-0.603772	-0.512687	1	37	0.00090544	0.00291199	0	-0.000421674	-1	-1	-1	0	0	0	0	0	0	-1	-1	-1	0	0	0	0	0	0	-1.24916	-2.96361	3.21611	-112.855	-512.687	-216.097	556.369	157.145	0.0000000E+000	0.0000000E+000	0.0000000E+000	-157.145	0.0000000E+000	0.0000000E+000	0.0000000E+000	157.145	0.0000000E+000	0.0000000E+000	0.0000000E+000	112.855	0.0000000E+000	0.0000000E+000	0.0000000E+000	-112.855	0.4215	22.8554	-0.000421674
367781	0.0373626	-0.0604312	0.0710485	58.2729	6.56449	-0.000148114	-0.799636	-7.16093	-5.18062	1	37	0.00113143	0.0159247	0	-0.00142778	-1	-1	-1	0	0	0	0	0	0	-1	-1	-1	0	0	0	0	0	0	7.40161	-11.9716	14.0749	-58.2729	-5180.62	3203	6090.82	-148.273	0.0000000E+000	0.0000000E+000	0.0000000E+000	148.273	0.0000000E+000	0.0000000E+000	0.0000000E+000	-148.273	0.0000000E+000	0.0000000E+000	0.0000000E+000	58.2729	0.0000000E+000	0.0000000E+000	0.0000000E+000	-58.2729	0.618266	31.7271	-0.000236986
147018	0.0537496	-0.0218086	0.0580054	22.0846	11.1565	-0.000147163	-0.802129	-49.6389	-7.01683	1	37	0.00374969	0.0646438	0	-0.0023378	-1	-1	-1	0	0	0	0	0	0	-1	-1	-1	0	0	0	0	0	0	15.9749	-6.48173	17.2398	-22.0846	-7016.83	17293.7	18663	-112.085	0.0000000E+000	0.0000000E+000	0.0000000E+000	112.085	0.0000000E+000	0.0000000E+000	0.0000000E+000	-112.085	0.0000000E+000	0.0000000E+000	0.0000000E+000	22.0846	0.0000000E+000	0.0000000E+000	0.0000000E+000	-22.0846	2.4646	67.9154	-0.000221157
58770	0.0569285	-0.00482436	0.0571326	4.84391	15.6145	-0.000140844	-0.799057	-561.338	-4.00254	1	37	0.00522469	0.0914486	0	-0.0032866	0.456284	0.178727	7.04201	8.35082e-06	1.50246e-05	7.88202e-06	6.41691e-06	4.74006e-06	9.45416e-06	0.180333	0.0548479	0.260641	1.30062e-05	0.000163834	3.25687e-06	8.57007e-06	4.85301e-06	4.259e-06	17.4406	-1.47799	17.5031	-4.84391	-4002.54	47230.9	47400.2	-94.8439	0.0000000E+000	0.0000000E+000	0.0000000E+000	94.8439	0.0000000E+000	0.0000000E+000	0.0000000E+000	-94.8439	0.0000000E+000	0.0000000E+000	0.0000000E+000	4.84391	0.0000000E+000	0.0000000E+000	0.0000000E+000	-4.84391	11.8002	85.1561	-0.000405094
23493.2	0.0603887	0.0050421	0.0605988	-4.77278	20.2065	-0.000149475	-0.798704	1343.59	9.30167	1	37	0.00519672	0.0857561	0	-0.00472507	0.339389	0.14944	7.06448	7.83513e-06	1.00424e-05	5.81382e-06	5.18599e-06	3.75637e-06	5.9194e-06	0.191125	0.0066249	0.266463	1.52702e-05	0.000162425	9.29159e-06	1.08052e-05	5.23859e-06	3.89741e-06	16.4447	1.37304	16.502	4.77278	9301.67	111405	111793	-85.2272	0.0000000E+000	0.0000000E+000	0.0000000E+000	85.2272	0.0000000E+000	0.0000000E+000	0.0000000E+000	-85.2272	0.0000000E+000	0.0000000E+000	0.0000000E+000	-4.77278	0.0000000E+000	0.0000000E+000	0.0000000E+000	4.77278	11.9769	85.2272	-0.000391666
9395.12	0.0664972	0.0125566	0.0676723	-10.6932	24.801	-0.000256472	-1.24318	1349.1	46.4481	1	37	0.00526831	0.0778503	0	-0.00567857	0.387236	0.135445	6.90263	7.77251e-06	5.92376e-06	4.70854e-06	4.65275e-06	1.47631e-05	6.05899e-06	0.199773	0.0501971	0.300193	1.92219e-05	0.000152926	9.26343e-06	1.5927e-05	5.21003e-06	2.87612e-06	14.5205	2.74189	14.7771	10.6932	46448.1	245979	250326	-79.3068	0.0000000E+000	0.0000000E+000	0.0000000E+000	79.3068	0.0000000E+000	0.0000000E+000	0.0000000E+000	-79.3068	0.0000000E+000	0.0000000E+000	0.0000000E+000	-10.6932	0.0000000E+000	0.0000000E+000	0.0000000E+000	10.6932	5.29579	79.3068	-0.000476097
3753.8	0.075808	0.0197718	0.078344	-14.6179	29.9228	-0.00026775	-1.29858	2144.39	136.579	1	37	0.0052082	0.0664785	0	-0.00740716	0.342229	0.245837	7.07999	7.59636e-06	8.31247e-06	4.67486e-06	5.29099e-06	6.7184e-06	7.08769e-06	0.137948	0.0713847	0.359507	2.03192e-05	8.8888e-05	3.88477e-06	6.72266e-06	3.71968e-06	2.88569e-06	12.351	3.22132	12.7642	14.6179	136579	523665	541182	-75.3821	0.0000000E+000	0.0000000E+000	0.0000000E+000	75.3821	0.0000000E+000	0.0000000E+000	0.0000000E+000	-75.3821	0.0000000E+000	0.0000000E+000	0.0000000E+000	-14.6179	0.0000000E+000	0.0000000E+000	0.0000000E+000	14.6179	3.83415	75.3821	-0.00053669
1501.44	0.0892798	0.027925	0.0935451	-17.3687	35.2376	-0.000277723	-1.29064	3795.94	338.269	1	37	0.00522257	0.0558294	0	-0.00944324	0.381955	0.184999	7.16416	7.66151e-06	8.10425e-06	5.51379e-06	6.26468e-06	6.17097e-06	9.47127e-06	0.0734765	0.0187357	0.418386	1.82892e-05	3.54356e-05	3.09776e-06	5.64444e-06	3.83735e-06	3.61248e-06	10.2026	3.19118	10.69	17.3687	338269	1.08149e+06	1.13316e+06	-72.6313	0.0000000E+000	0.0000000E+000	0.0000000E+000	72.6313	0.0000000E+000	0.0000000E+000	0.0000000E+000	-72.6313	0.0000000E+000	0.0000000E+000	0.0000000E+000	-17.3687	0.0000000E+000	0.0000000E+000	0.0000000E+000	17.3687	3.19713	72.6313	-0.000480649
600.192	0.108203	0.0364951	0.114192	-18.6384	40.5517	-0.000257852	-1.32868	7266.01	742.154	1	37	0.0050016	0.0438	0	-0.0114222	1.48584	0.234464	7.19699	3.02222e-06	5.49261e-06	8.57192e-06	3.86728e-06	4.13433e-06	7.31695e-05	0.0635669	0.0154218	0.531728	8.51523e-06	2.11613e-05	4.99771e-06	7.2861e-06	5.63843e-06	1.15771e-05	8.29792	2.79875	8.75719	18.6384	742154	2.20039e+06	2.32217e+06	-71.3616	0.0000000E+000	0.0000000E+000	0.0000000E+000	71.3616	0.0000000E+000	0.0000000E+000	0.0000000E+000	-71.3616	0.0000000E+000	0.0000000E+000	0.0000000E+000	-18.6384	0.0000000E+000	0.0000000E+000	0.0000000E+000	18.6384	2.96487	71.3616	-0.000432453
239.924	0.133316	0.0447835	0.140637	-18.5682	45.1978	-0.000266743	-1.36806	14812.5	1501.99	1	37	0.00520741	0.0370274	0	-0.0130908	0.450666	0.136235	7.02189	6.63104e-06	1.01599e-05	1.0182e-05	1.0295e-05	9.88252e-06	7.99946e-06	0.103348	0.0260229	0.63146	5.35949e-06	2.88541e-05	7.63896e-06	2.08756e-05	6.99831e-06	5.22789e-06	6.74038	2.26423	7.11051	18.5682	1.50199e+06	4.47127e+06	4.71681e+06	-71.4318	0.0000000E+000	0.0000000E+000	0.0000000E+000	71.4318	0.0000000E+000	0.0000000E+000	0.0000000E+000	-71.4318	0.0000000E+000	0.0000000E+000	0.0000000E+000	-18.5682	0.0000000E+000	0.0000000E+000	0.0000000E+000	18.5682	2.9769	71.4318	-0.000421873
95.8897	0.167331	0.0465641	0.173689	-15.5506	49.6119	-0.00025267	-1.3499	35644.8	2561.85	1	37	0.00504802	0.0290635	0	-0.0147717	0.365769	0.136754	7.33007	5.68388e-06	5.63284e-06	6.8673e-06	8.01952e-06	6.56566e-06	7.27302e-06	0.155071	0.026819	0.806527	4.96089e-06	3.34837e-05	5.19737e-06	2.82431e-05	4.89056e-06	4.25968e-06	5.54666	1.5435	5.75741	15.5506	2.56185e+06	9.20618e+06	9.55598e+06	-74.4494	0.0000000E+000	0.0000000E+000	0.0000000E+000	74.4494	0.0000000E+000	0.0000000E+000	0.0000000E+000	-74.4494	0.0000000E+000	0.0000000E+000	0.0000000E+000	-15.5506	0.0000000E+000	0.0000000E+000	0.0000000E+000	15.5506	3.59356	74.4494	-0.000378952
38.3436	0.196111	0.0335778	0.198965	-9.71587	54.0664	-0.00025979	-1.31735	123616	3520.68	1	37	0.00496138	0.024936	0	-0.0163781	0.328399	0.17975	7.55741	6.43119e-06	6.53483e-06	5.83131e-06	7.65199e-06	4.91006e-06	4.39242e-06	0.218091	0.0907372	0.9265	1.01637e-05	2.75065e-05	3.62372e-05	2.64057e-05	5.2495e-06	4.48921e-06	4.95392	0.848202	5.02601	9.71587	3.52068e+06	2.05625e+07	2.08617e+07	-80.2841	0.0000000E+000	0.0000000E+000	0.0000000E+000	80.2841	0.0000000E+000	0.0000000E+000	0.0000000E+000	-80.2841	0.0000000E+000	0.0000000E+000	0.0000000E+000	-9.71587	0.0000000E+000	0.0000000E+000	0.0000000E+000	9.71587	5.8405	80.2841	-0.000400334
15.3186	0.209317	0.0184425	0.210128	-5.03521	58.5066	-0.000250377	-1.30998	563355	4339.64	1	37	0.00494398	0.0235285	0	-0.0178046	0.403889	0.179301	7.48403	7.98029e-06	8.20925e-06	8.03756e-06	3.45804e-06	1.05339e-05	5.28755e-06	0.173909	0.0398062	1.00244	9.07246e-06	3.43442e-05	3.87507e-06	1.76994e-05	4.7034e-06	6.38984e-06	4.74065	0.417689	4.75901	5.03521	4.33964e+06	4.92536e+07	4.94445e+07	-84.9648	0.0000000E+000	0.0000000E+000	0.0000000E+000	84.9648	0.0000000E+000	0.0000000E+000	0.0000000E+000	-84.9648	0.0000000E+000	0.0000000E+000	0.0000000E+000	-5.03521	0.0000000E+000	0.0000000E+000	0.0000000E+000	5.03521	11.3497	84.9648	-0.000371283
6.12745	0.213983	0.00981902	0.214208	-2.62729	63.2803	-0.000251986	-1.30798	2.64528e+06	5558.24	1	37	0.00493648	0.0230453	0	-0.0194027	0.201626	0.0733992	4.1141	2.3607e-06	2.94925e-06	4.75222e-06	4.09455e-06	3.96388e-06	4.36528e-06	0.130841	0.0473683	0.768234	4.25548e-06	2.34948e-05	4.25432e-06	1.4074e-05	5.45867e-06	8.87291e-06	4.66346	0.213992	4.66836	2.62729	5.55824e+06	1.21129e+08	1.21256e+08	-87.3727	0.0000000E+000	0.0000000E+000	0.0000000E+000	87.3727	0.0000000E+000	0.0000000E+000	0.0000000E+000	-87.3727	0.0000000E+000	0.0000000E+000	0.0000000E+000	-2.62729	0.0000000E+000	0.0000000E+000	0.0000000E+000	2.62729	21.7927	87.3727	-0.000210342
2.44752	0.216031	0.00675066	0.216136	-1.78983	72.1252	-0.000237419	-1.28948	9.63268e+06	9396.91	1	37	0.0049356	0.0228356	0	-0.0223942	0.152219	0.059991	2.59806	2.54518e-06	4.19968e-06	1.54696e-06	2.9567e-06	3.25448e-06	2.03897e-06	0.131105	0.0578933	0.68416	8.64571e-06	2.42026e-05	3.10292e-06	1.40547e-05	3.95386e-06	2.75417e-06	4.62446	0.144508	4.62672	1.78983	9.39692e+06	3.00714e+08	3.00861e+08	-88.2102	0.0000000E+000	0.0000000E+000	0.0000000E+000	88.2102	0.0000000E+000	0.0000000E+000	0.0000000E+000	-88.2102	0.0000000E+000	0.0000000E+000	0.0000000E+000	-1.78983	0.0000000E+000	0.0000000E+000	0.0000000E+000	1.78983	32.0014	88.2102	-0.00101883
0.978641	0.217706	0.00766785	0.217841	-2.01719	93.9147	-0.000249402	-1.21568	2.12091e+07	26277.9	1	38	0.00493507	0.0226545	0	-0.0310439	0.120055	0.0646396	1.56123	2.17654e-06	3.07846e-06	1.23128e-06	2.59463e-06	2.31754e-06	1.46473e-06	0.117006	0.0468939	0.584591	5.18832e-06	1.81243e-05	5.27092e-06	1.73365e-05	3.26346e-06	1.48058e-06	4.58766	0.161582	4.5905	2.01719	2.62779e+07	7.46084e+08	7.46547e+08	-87.9828	0.0000000E+000	0.0000000E+000	0.0000000E+000	87.9828	0.0000000E+000	0.0000000E+000	0.0000000E+000	-87.9828	0.0000000E+000	0.0000000E+000	0.0000000E+000	-2.01719	0.0000000E+000	0.0000000E+000	0.0000000E+000	2.01719	28.3921	87.9828	-0.0041904
0.391114	0.224415	0.0148673	0.224907	-3.79025	140.924	-0.000236293	-1.19368	2.73707e+07	119603	1	38	0.00493207	0.0219293	0	-0.0453925	0.105118	0.0691741	0.971246	3.13529e-06	2.45969e-06	1.08604e-06	1.39305e-06	1.10836e-06	1.70278e-06	0.108722	0.073614	0.587378	2.7894e-06	1.5745e-05	3.75959e-06	1.43552e-05	3.41059e-06	6.38005e-06	4.43655	0.293917	4.44627	3.79025	1.19603e+08	1.80535e+09	1.80931e+09	-86.2098	0.0000000E+000	0.0000000E+000	0.0000000E+000	86.2098	0.0000000E+000	0.0000000E+000	0.0000000E+000	-86.2098	0.0000000E+000	0.0000000E+000	0.0000000E+000	-3.79025	0.0000000E+000	0.0000000E+000	0.0000000E+000	3.79025	15.0946	86.2098	-0.00256728
0.15652	0.236523	0.0114614	0.236801	-2.77426	256.519	-0.000246319	-1.21582	8.87185e+07	207837	1	38	0.00493036	0.0208207	0	-0.0911321	0.104607	0.0770703	0.623826	1.8974e-06	3.38443e-06	8.66839e-07	2.79638e-06	7.35539e-07	8.63409e-07	0.132648	0.0770852	0.521039	7.63114e-06	1.6534e-05	3.14269e-06	1.93515e-05	3.14627e-06	2.60273e-06	4.21801	0.204396	4.22296	2.77426	2.07837e+08	4.28903e+09	4.29407e+09	-87.2257	0.0000000E+000	0.0000000E+000	0.0000000E+000	87.2257	0.0000000E+000	0.0000000E+000	0.0000000E+000	-87.2257	0.0000000E+000	0.0000000E+000	0.0000000E+000	-2.77426	0.0000000E+000	0.0000000E+000	0.0000000E+000	2.77426	20.6365	87.2257	-0.0148977
0.062544	0.240191	0.00747431	0.240307	-1.78236	543.833	-0.000238201	-1.22779	3.40458e+08	329360	1	38	0.00492977	0.0205144	0	-0.168111	0.113154	0.115338	0.389439	1.66395e-06	3.95178e-06	7.5645e-07	2.9458e-06	1.05984e-06	6.79212e-07	0.147103	0.170008	0.353777	1.3027e-05	1.67547e-05	4.85592e-06	1.8931e-05	4.11993e-06	2.92325e-06	4.15932	0.129431	4.16134	1.78236	3.2936e+08	1.05842e+10	1.05893e+10	-88.2176	0.0000000E+000	0.0000000E+000	0.0000000E+000	88.2176	0.0000000E+000	0.0000000E+000	0.0000000E+000	-88.2176	0.0000000E+000	0.0000000E+000	0.0000000E+000	-1.78236	0.0000000E+000	0.0000000E+000	0.0000000E+000	1.78236	32.1356	88.2176	-0.0327626
0.0250094	0.247304	0.00147939	0.247309	-0.342742	1260.6	-0.00023989	-1.21736	4.30165e+09	153928	1	38	0.00493177	0.0199417	0	-0.445472	0.0962046	0.113486	0.287572	8.38698e-07	4.0044e-06	9.22382e-07	1.57699e-06	8.87553e-07	5.34128e-07	0.198206	0.279343	0.257263	1.80892e-05	2.7809e-05	1.07459e-05	1.33491e-05	4.06356e-06	7.20643e-06	4.04346	0.0241881	4.04353	0.342742	1.53929e+08	2.57317e+10	2.57322e+10	-89.6573	0.0000000E+000	0.0000000E+000	0.0000000E+000	89.6573	0.0000000E+000	0.0000000E+000	0.0000000E+000	-89.6573	0.0000000E+000	0.0000000E+000	0.0000000E+000	-0.342742	0.0000000E+000	0.0000000E+000	0.0000000E+000	0.342742	167.167	89.6573	-0.0805608
462524	0.0225244	-0.0791589	0.0823012	74.1165	1265.64	-0.000155104	-1.05986	-4.34696	-4.02137	2	37	0.000901932	0.0109589	0	-0.447098	-1	-1	-1	0	0	0	0	0	0	-1	-1	-1	0	0	0	0	0	0	3.32538	-11.6866	12.1505	-74.1165	-4021.37	1144.27	4181	-164.116	0.0000000E+000	0.0000000E+000	0.0000000E+000	164.116	0.0000000E+000	0.0000000E+000	0.0000000E+000	-164.116	0.0000000E+000	0.0000000E+000	0.0000000E+000	74.1165	0.0000000E+000	0.0000000E+000	0.0000000E+000	-74.1165	0.284547	15.8835	-0.000341806
184902	0.0521291	-0.0285626	0.0594413	28.7192	1270.23	-0.000150258	-1.00652	-30.1357	-6.95824	2	37	0.00276945	0.0465914	0	-0.448312	-1	-1	-1	0	0	0	0	0	0	-1	-1	-1	0	0	0	0	0	0	14.7538	-8.0839	16.8233	-28.7192	-6958.24	12699.4	14480.7	-118.719	0.0000000E+000	0.0000000E+000	0.0000000E+000	118.719	0.0000000E+000	0.0000000E+000	0.0000000E+000	-118.719	0.0000000E+000	0.0000000E+000	0.0000000E+000	28.7192	0.0000000E+000	0.0000000E+000	0.0000000E+000	-28.7192	1.82509	61.2808	-0.000270424
73912.6	0.0562497	-0.00807196	0.056826	8.16632	1274.69	-0.000156539	-0.801625	-266.761	-5.38254	2	37	0.00521568	0.0917835	0	-0.449575	0.349698	0.191368	7.06208	7.66538e-06	6.11154e-06	7.25593e-06	7.00678e-06	3.8655e-06	7.12378e-06	0.144767	0.0231194	0.257611	2.64062e-05	0.000129191	5.73864e-06	8.92973e-06	6.20141e-06	5.68467e-06	17.4191	-2.49969	17.5976	-8.16632	-5382.54	37508.4	37892.7	-98.1663	0.0000000E+000	0.0000000E+000	0.0000000E+000	98.1663	0.0000000E+000	0.0000000E+000	0.0000000E+000	-98.1663	0.0000000E+000	0.0000000E+000	0.0000000E+000	8.16632	0.0000000E+000	0.0000000E+000	0.0000000E+000	-8.16632	6.96853	81.8337	-0.000308523
29552	0.0593119	0.00296338	0.0593859	-2.86027	1279.28	-0.000147536	-0.763491	1817.38	4.52537	2	37	0.00520207	0.0875978	0	-0.450603	0.425895	0.129509	7.08373	1.15596e-05	1.06934e-05	8.0251e-06	4.86513e-06	5.06102e-06	9.35788e-06	0.192882	0.0176748	0.264001	3.00418e-05	0.00016569	6.29302e-06	1.20878e-05	1.5377e-06	2.76348e-06	16.818	0.840274	16.839	2.86027	4525.37	90574.9	90687.9	-87.1397	0.0000000E+000	0.0000000E+000	0.0000000E+000	87.1397	0.0000000E+000	0.0000000E+000	0.0000000E+000	-87.1397	0.0000000E+000	0.0000000E+000	0.0000000E+000	-2.86027	0.0000000E+000	0.0000000E+000	0.0000000E+000	2.86027	20.0149	87.1397	-0.000392755
11811.5	0.0646875	0.0107437	0.0655737	-9.42997	1283.87	-0.000141012	-0.692247	1254.18	33.6674	2	37	0.00517958	0.0789887	0	-0.451533	0.412221	0.23835	7.28317	4.70152e-06	1.46957e-05	6.37925e-06	7.60689e-06	5.29277e-06	8.66226e-06	0.169811	0.0435596	0.295487	1.45456e-05	0.000132734	1.02283e-05	4.37155e-06	3.2922e-06	2.87789e-06	15.0439	2.49859	15.25	9.42997	33667.4	202710	205487	-80.57	0.0000000E+000	0.0000000E+000	0.0000000E+000	80.57	0.0000000E+000	0.0000000E+000	0.0000000E+000	-80.57	0.0000000E+000	0.0000000E+000	0.0000000E+000	-9.42997	0.0000000E+000	0.0000000E+000	0.0000000E+000	9.42997	6.02096	80.57	-0.000251465
4721.51	0.0730679	0.0178361	0.0752133	-13.7178	1288.82	-0.000262754	-1.18267	1889.9	106.28	2	37	0.00520077	0.0691469	0	-0.453421	0.331225	0.196609	7.14114	5.31832e-06	1.02455e-05	5.8544e-06	4.21072e-06	5.22337e-06	6.44716e-06	0.155335	0.0962712	0.347733	1.67768e-05	0.000104252	8.38073e-06	1.45918e-05	5.53838e-06	6.11923e-06	12.9163	3.1529	13.2955	13.7178	106280	435388	448172	-76.2822	0.0000000E+000	0.0000000E+000	0.0000000E+000	76.2822	0.0000000E+000	0.0000000E+000	0.0000000E+000	-76.2822	0.0000000E+000	0.0000000E+000	0.0000000E+000	-13.7178	0.0000000E+000	0.0000000E+000	0.0000000E+000	13.7178	4.09662	76.2822	-0.000496943
1888.19	0.0852301	0.0257278	0.0890286	-16.7971	1294.13	-0.000272391	-1.23127	3276.22	273.602	2	37	0.0051906	0.0583026	0	-0.455253	0.326487	0.223897	7.04013	6.97867e-06	6.32226e-06	4.89364e-06	7.02153e-06	6.41562e-06	7.05888e-06	0.0872677	0.0463842	0.405028	1.68354e-05	4.72521e-05	2.86498e-06	4.43866e-06	5.30178e-06	2.34398e-06	10.7531	3.24596	11.2323	16.7971	273602	906378	946773	-73.2029	0.0000000E+000	0.0000000E+000	0.0000000E+000	73.2029	0.0000000E+000	0.0000000E+000	0.0000000E+000	-73.2029	0.0000000E+000	0.0000000E+000	0.0000000E+000	-16.7971	0.0000000E+000	0.0000000E+000	0.0000000E+000	16.7971	3.31276	73.2029	-0.000430528
754.759	0.102803	0.0344038	0.108407	-18.5032	1299.45	-0.000276977	-1.24843	6129.23	617.308	2	37	0.0051453	0.0474627	0	-0.457095	0.363426	0.176509	7.06875	6.77262e-06	4.86009e-06	9.01197e-06	7.18489e-06	3.91637e-06	1.03611e-05	0.0540745	0.0202954	0.497432	9.44377e-06	1.79496e-05	3.664e-06	1.19885e-05	4.70512e-06	6.53903e-06	8.74763	2.92745	9.22448	18.5032	617308	1.8446e+06	1.94515e+06	-71.4968	0.0000000E+000	0.0000000E+000	0.0000000E+000	71.4968	0.0000000E+000	0.0000000E+000	0.0000000E+000	-71.4968	0.0000000E+000	0.0000000E+000	0.0000000E+000	-18.5032	0.0000000E+000	0.0000000E+000	0.0000000E+000	18.5032	2.98814	71.4968	-0.000438443
301.641	0.126148	0.042795	0.133209	-18.7393	1304.31	-0.000255913	-1.28157	12329.2	1272.49	2	37	0.00520159	0.0390483	0	-0.458714	0.318401	0.156634	7.19738	5.01835e-06	6.30707e-06	3.28148e-06	3.6139e-06	1.06686e-05	6.11885e-06	0.0911097	0.0188023	0.605979	8.87627e-06	2.93027e-05	5.38312e-06	1.33838e-05	7.0368e-06	5.15064e-06	7.10905	2.41171	7.50699	18.7393	1.27249e+06	3.75095e+06	3.96092e+06	-71.2607	0.0000000E+000	0.0000000E+000	0.0000000E+000	71.2607	0.0000000E+000	0.0000000E+000	0.0000000E+000	-71.2607	0.0000000E+000	0.0000000E+000	0.0000000E+000	-18.7393	0.0000000E+000	0.0000000E+000	0.0000000E+000	18.7393	2.94772	71.2607	-0.000351231
120.579	0.158232	0.0477249	0.165272	-16.784	1308.73	-0.000246816	-1.30032	27657	2306.18	2	37	0.00508535	0.0307695	0	-0.460387	0.345776	0.16427	7.22782	5.60452e-06	1.02571e-05	5.5588e-06	3.82884e-06	7.66313e-06	6.24664e-06	0.151736	0.0274183	0.769614	1.01335e-05	3.11549e-05	8.32559e-06	3.11754e-05	4.45617e-06	4.03385e-06	5.79286	1.74721	6.05062	16.784	2.30618e+06	7.64615e+06	7.98637e+06	-73.216	0.0000000E+000	0.0000000E+000	0.0000000E+000	73.216	0.0000000E+000	0.0000000E+000	0.0000000E+000	-73.216	0.0000000E+000	0.0000000E+000	0.0000000E+000	-16.784	0.0000000E+000	0.0000000E+000	0.0000000E+000	16.784	3.3155	73.216	-0.000415813
48.1956	0.190473	0.0377039	0.194168	-11.1969	1313.16	-0.00024156	-1.22289	87584.5	3302.49	2	37	0.00497196	0.0256064	0	-0.461861	0.430167	0.16276	7.38686	9.12919e-06	6.41861e-06	7.72584e-06	7.12948e-06	1.16393e-05	6.25705e-06	0.176553	0.149178	0.874214	9.47177e-06	2.9437e-05	8.53326e-06	2.97901e-05	6.97119e-06	5.87254e-06	5.05214	1.00007	5.15017	11.1969	3.30249e+06	1.66835e+07	1.70073e+07	-78.8031	0.0000000E+000	0.0000000E+000	0.0000000E+000	78.8031	0.0000000E+000	0.0000000E+000	0.0000000E+000	-78.8031	0.0000000E+000	0.0000000E+000	0.0000000E+000	-11.1969	0.0000000E+000	0.0000000E+000	0.0000000E+000	11.1969	5.05181	78.8031	-0.000366489
19.2663	0.207389	0.0216977	0.208521	-5.97274	1317.64	-0.000242026	-1.23116	380721	4122.26	2	37	0.0049457	0.023718	0	-0.463249	0.434426	0.161505	7.46945	1.02993e-05	7.88721e-06	8.00195e-06	4.70659e-06	8.34919e-06	1.02157e-05	0.155663	0.0424211	0.982994	8.30552e-06	2.67284e-05	6.78855e-06	2.05868e-05	1.77626e-06	5.36941e-06	4.76964	0.499015	4.79567	5.97274	4.12226e+06	3.9401e+07	3.9616e+07	-84.0273	0.0000000E+000	0.0000000E+000	0.0000000E+000	84.0273	0.0000000E+000	0.0000000E+000	0.0000000E+000	-84.0273	0.0000000E+000	0.0000000E+000	0.0000000E+000	-5.97274	0.0000000E+000	0.0000000E+000	0.0000000E+000	5.97274	9.55811	84.0273	-0.000292007
7.70465	0.213477	0.0114507	0.213784	-3.07035	1322.1	-0.000245344	-1.23118	1.804e+06	5175.47	2	37	0.00493729	0.0230948	0	-0.46491	0.254779	0.122284	5.4725	5.43152e-06	6.11998e-06	4.16883e-06	4.17551e-06	5.31637e-06	4.03509e-06	0.126413	0.037591	0.844007	6.59815e-06	2.26823e-05	3.85849e-06	1.47624e-05	2.42483e-06	3.58201e-06	4.67091	0.250543	4.67763	3.07035	5.17548e+06	9.64871e+07	9.66258e+07	-86.9296	0.0000000E+000	0.0000000E+000	0.0000000E+000	86.9296	0.0000000E+000	0.0000000E+000	0.0000000E+000	-86.9296	0.0000000E+000	0.0000000E+000	0.0000000E+000	-3.07035	0.0000000E+000	0.0000000E+000	0.0000000E+000	3.07035	18.6431	86.9296	-0.000615932
3.07821	0.215953	0.00716295	0.216072	-1.89975	1329.48	-0.000242109	-1.22251	7.2182e+06	7932.63	2	37	0.00493599	0.0228442	0	-0.466977	0.165616	0.125998	2.88895	2.80722e-06	4.64846e-06	2.426e-06	2.95711e-06	2.84068e-06	1.973e-06	0.125101	0.0515932	0.694344	4.6363e-06	2.4272e-05	3.51936e-06	1.28922e-05	3.6545e-06	2.47804e-06	4.62555	0.153425	4.62809	1.89975	7.93263e+06	2.39158e+08	2.39289e+08	-88.1003	0.0000000E+000	0.0000000E+000	0.0000000E+000	88.1003	0.0000000E+000	0.0000000E+000	0.0000000E+000	-88.1003	0.0000000E+000	0.0000000E+000	0.0000000E+000	-1.89975	0.0000000E+000	0.0000000E+000	0.0000000E+000	1.89975	30.1486	88.1003	-0.000610404
1.23128	0.2175	0.00731786	0.217623	-1.92701	1345.47	-0.000239039	-1.21577	1.76636e+07	19972.7	2	37	0.00493524	0.0226779	0	-0.472245	0.140109	0.0728566	1.84131	2.85247e-06	4.36021e-06	1.3185e-06	3.55192e-06	1.39168e-06	1.39009e-06	0.135754	0.0741658	0.644582	3.69853e-06	2.77159e-05	2.06464e-06	1.17929e-05	2.86787e-06	2.28344e-06	4.5925	0.154516	4.5951	1.92701	1.99727e+07	5.93624e+08	5.9396e+08	-88.073	0.0000000E+000	0.0000000E+000	0.0000000E+000	88.073	0.0000000E+000	0.0000000E+000	0.0000000E+000	-88.073	0.0000000E+000	0.0000000E+000	0.0000000E+000	-1.92701	0.0000000E+000	0.0000000E+000	0.0000000E+000	1.92701	29.7218	88.073	-0.000556243
0.492188	0.221397	0.013256	0.221793	-3.42645	1385.22	-0.000240528	-1.20695	2.43937e+07	87137.1	2	38	0.00493125	0.0222335	0	-0.487767	0.133313	0.0970364	1.08513	2.55524e-06	4.23405e-06	2.29542e-06	2.87688e-06	1.39443e-06	7.60814e-07	0.157528	0.139634	0.594254	9.4633e-06	1.92502e-05	1.76412e-05	1.80393e-05	5.73134e-06	5.59643e-06	4.50064	0.269473	4.5087	3.42645	8.71371e+07	1.45534e+09	1.45794e+09	-86.5735	0.0000000E+000	0.0000000E+000	0.0000000E+000	86.5735	0.0000000E+000	0.0000000E+000	0.0000000E+000	-86.5735	0.0000000E+000	0.0000000E+000	0.0000000E+000	-3.42645	0.0000000E+000	0.0000000E+000	0.0000000E+000	3.42645	16.7017	86.5735	-0.0056807
0.196714	0.235099	0.0135354	0.235488	-3.29507	1477.42	-0.00023506	-1.24527	5.9774e+07	197478	2	38	0.00493088	0.020939	0	-0.520583	0.0949074	0.0647646	0.683738	1.36552e-06	3.74727e-06	9.30706e-07	1.41866e-06	9.64434e-07	7.36498e-07	0.123911	0.0722831	0.551777	4.84969e-06	1.7118e-05	4.6021e-06	1.64683e-05	2.51593e-06	3.99139e-06	4.23948	0.244081	4.2465	3.29507	1.97478e+08	3.43002e+09	3.4357e+09	-86.7049	0.0000000E+000	0.0000000E+000	0.0000000E+000	86.7049	0.0000000E+000	0.0000000E+000	0.0000000E+000	-86.7049	0.0000000E+000	0.0000000E+000	0.0000000E+000	-3.29507	0.0000000E+000	0.0000000E+000	0.0000000E+000	3.29507	17.3691	86.7049	-0.0152414
0.0786856	0.240306	0.00655647	0.240395	-1.56286	1706.12	-0.000258411	-1.2031	3.085e+08	229479	2	38	0.00492931	0.020505	0	-0.581048	0.103264	0.0653751	0.455538	1.56213e-06	4.136e-06	1.01649e-06	1.40631e-06	4.10849e-07	1.01124e-06	0.140936	0.17548	0.3826	7.36087e-06	2.24809e-05	6.65648e-06	1.30993e-05	3.48114e-06	4.05312e-06	4.15827	0.113454	4.15982	1.56286	2.2948e+08	8.4108e+09	8.41393e+09	-88.4371	0.0000000E+000	0.0000000E+000	0.0000000E+000	88.4371	0.0000000E+000	0.0000000E+000	0.0000000E+000	-88.4371	0.0000000E+000	0.0000000E+000	0.0000000E+000	-1.56286	0.0000000E+000	0.0000000E+000	0.0000000E+000	1.56286	36.6517	88.4371	-0.0189923
0.0314526	0.246229	0.00418753	0.246265	-0.974314	2276.36	-0.000241066	-1.14378	1.20839e+09	349395	2	38	0.00492666	0.0200055	0	-0.809647	0.117845	0.126899	0.317978	2.62981e-06	4.36855e-06	9.66291e-07	1.65481e-06	1.14419e-06	1.04151e-06	0.2293	0.135796	0.261807	1.64833e-05	3.71846e-05	1.19567e-05	1.45307e-05	3.84005e-06	5.05149e-06	4.06008	0.0690482	4.06067	0.974314	3.49394e+08	2.05447e+10	2.05476e+10	-89.0257	0.0000000E+000	0.0000000E+000	0.0000000E+000	89.0257	0.0000000E+000	0.0000000E+000	0.0000000E+000	-89.0257	0.0000000E+000	0.0000000E+000	0.0000000E+000	-0.974314	0.0000000E+000	0.0000000E+000	0.0000000E+000	0.974314	58.8006	89.0257	-0.0742382
581679	-0.00351025	-0.109173	0.10923	91.8416	2524.72	-0.000158124	-0.924053	-2.50623	-2.50364	3	37	0.000809989	0.00741547	0	-0.887809	-1	-1	-1	0	0	0	0	0	0	-1	-1	-1	0	0	0	0	0	0	-0.29421	-9.1503	9.15502	-91.8416	-2503.64	-80.4997	2504.94	178.158	0.0000000E+000	0.0000000E+000	0.0000000E+000	-178.158	0.0000000E+000	0.0000000E+000	0.0000000E+000	178.158	0.0000000E+000	0.0000000E+000	0.0000000E+000	91.8416	0.0000000E+000	0.0000000E+000	0.0000000E+000	-91.8416	0.032153	1.8416	-0.000288924
232529	0.0493905	-0.0367392	0.0615564	36.6437	2529.31	-0.000147312	-0.889267	-18.6301	-6.63631	3	37	0.00202866	0.0329562	0	-0.88894	-1	-1	-1	0	0	0	0	0	0	-1	-1	-1	0	0	0	0	0	0	13.0346	-9.69579	16.2453	-36.6437	-6636.31	8921.57	11119.1	-126.644	0.0000000E+000	0.0000000E+000	0.0000000E+000	126.644	0.0000000E+000	0.0000000E+000	0.0000000E+000	-126.644	0.0000000E+000	0.0000000E+000	0.0000000E+000	36.6437	0.0000000E+000	0.0000000E+000	0.0000000E+000	-36.6437	1.34436	53.3563	-0.000286185
92961.3	0.0555417	-0.0118411	0.0567899	12.0349	2533.76	-0.000151861	-0.727162	-144.585	-6.28592	3	37	0.00519351	0.0914513	0	-0.889959	0.364131	0.259165	7.22044	9.86364e-06	7.36013e-06	7.88792e-06	4.90026e-06	5.59185e-06	7.69974e-06	0.136966	0.0170522	0.255281	1.99461e-05	0.000123132	4.38483e-06	6.84826e-06	5.99525e-06	2.8054e-06	17.2217	-3.67156	17.6088	-12.0349	-6285.92	29484.6	30147.2	-102.035	0.0000000E+000	0.0000000E+000	0.0000000E+000	102.035	0.0000000E+000	0.0000000E+000	0.0000000E+000	-102.035	0.0000000E+000	0.0000000E+000	0.0000000E+000	12.0349	0.0000000E+000	0.0000000E+000	0.0000000E+000	-12.0349	4.69057	77.9651	-0.000304618
37160.4	0.0581667	0.000565764	0.0581694	-0.557276	2538.36	-0.000153781	-0.726696	7570.15	0.71612	3	37	0.00519335	0.0892798	0	-0.890818	0.344064	0.174505	7.03112	5.93437e-06	8.02363e-06	6.16257e-06	6.00506e-06	8.24413e-06	4.8664e-06	0.19024	0.0443771	0.261603	2.50873e-06	0.000169121	3.33096e-06	1.25169e-05	7.75549e-06	3.2686e-06	17.1904	0.167204	17.1912	0.557276	716.117	73624.9	73628.3	-89.4427	0.0000000E+000	0.0000000E+000	0.0000000E+000	89.4427	0.0000000E+000	0.0000000E+000	0.0000000E+000	-89.4427	0.0000000E+000	0.0000000E+000	0.0000000E+000	-0.557276	0.0000000E+000	0.0000000E+000	0.0000000E+000	0.557276	102.811	89.4427	-0.000298092
14854.9	0.0629303	0.00883653	0.0635477	-7.99309	2542.95	-0.00015941	-0.706206	1212.46	23.4441	3	37	0.00518141	0.0815357	0	-0.891379	0.375114	0.274844	7.26098	8.82231e-06	7.39559e-06	7.12599e-06	6.48691e-06	7.56217e-06	4.73848e-06	0.181402	0.0217309	0.282895	1.03565e-05	0.000147038	6.62885e-06	7.17321e-06	3.55499e-06	4.8689e-06	15.5833	2.18818	15.7362	7.99309	23444.1	166960	168598	-82.0069	0.0000000E+000	0.0000000E+000	0.0000000E+000	82.0069	0.0000000E+000	0.0000000E+000	0.0000000E+000	-82.0069	0.0000000E+000	0.0000000E+000	0.0000000E+000	-7.99309	0.0000000E+000	0.0000000E+000	0.0000000E+000	7.99309	7.1216	82.0069	-9.64993e-06
5938.89	0.0704027	0.0160303	0.0722047	-12.8272	2547.7	-0.000281059	-1.19123	1671.76	82.3999	3	37	0.00520282	0.0720565	0	-0.893116	0.301667	0.201177	7.17223	4.3655e-06	6.44681e-06	4.64529e-06	6.2976e-06	4.90192e-06	8.98714e-06	0.173558	0.0103599	0.318643	1.16738e-05	0.000123139	7.09752e-06	1.48396e-05	4.03249e-06	5.83897e-06	13.5039	3.07476	13.8495	12.8272	82399.9	361888	371150	-77.1728	0.0000000E+000	0.0000000E+000	0.0000000E+000	77.1728	0.0000000E+000	0.0000000E+000	0.0000000E+000	-77.1728	0.0000000E+000	0.0000000E+000	0.0000000E+000	-12.8272	0.0000000E+000	0.0000000E+000	0.0000000E+000	12.8272	4.39185	77.1728	-0.000509269
2374.24	0.0815479	0.0236088	0.0848966	-16.1462	2553.03	-0.000290137	-1.20717	2839.37	219.578	3	37	0.00517929	0.0610071	0	-0.89516	0.295711	0.325206	7.23471	7.4395e-06	4.96463e-06	4.81806e-06	6.4622e-06	4.23783e-06	6.74203e-06	0.101534	0.0248361	0.384924	1.56468e-05	5.9271e-05	2.68803e-06	4.81285e-06	3.33832e-06	3.98497e-06	11.3144	3.27562	11.779	16.1462	219578	758451	789597	-73.8538	0.0000000E+000	0.0000000E+000	0.0000000E+000	73.8538	0.0000000E+000	0.0000000E+000	0.0000000E+000	-73.8538	0.0000000E+000	0.0000000E+000	0.0000000E+000	-16.1462	0.0000000E+000	0.0000000E+000	0.0000000E+000	16.1462	3.45413	73.8538	-0.000465057
949.092	0.0975488	0.0321966	0.102725	-18.2658	2558.34	-0.00029092	-1.21033	5208.37	511.648	3	37	0.00516449	0.050275	0	-0.896982	0.291126	0.203788	7.08689	5.58001e-06	7.0006e-06	4.80204e-06	7.39279e-06	3.22853e-06	5.65265e-06	0.0544142	0.101592	0.466982	1.09318e-05	2.05504e-05	4.14467e-06	1.14526e-05	3.10932e-06	5.50416e-06	9.24424	3.05112	9.73475	18.2658	511648	1.55018e+06	1.63244e+06	-71.7342	0.0000000E+000	0.0000000E+000	0.0000000E+000	71.7342	0.0000000E+000	0.0000000E+000	0.0000000E+000	-71.7342	0.0000000E+000	0.0000000E+000	0.0000000E+000	-18.2658	0.0000000E+000	0.0000000E+000	0.0000000E+000	18.2658	3.02979	71.7342	-0.00050438
379.393	0.119323	0.0407354	0.126084	-18.8494	2563.44	-0.000259604	-1.18984	10298.1	1074.93	3	37	0.00511348	0.0405561	0	-0.898584	0.349029	0.191662	7.29165	6.61828e-06	6.64162e-06	7.75317e-06	4.45598e-06	6.28131e-06	8.38366e-06	0.0714801	0.0220961	0.577662	8.51954e-06	2.44194e-05	3.68564e-06	8.2105e-06	4.84487e-06	6.38256e-06	7.50586	2.56242	7.9312	18.8494	1.07493e+06	3.1487e+06	3.32713e+06	-71.1506	0.0000000E+000	0.0000000E+000	0.0000000E+000	71.1506	0.0000000E+000	0.0000000E+000	0.0000000E+000	-71.1506	0.0000000E+000	0.0000000E+000	0.0000000E+000	-18.8494	0.0000000E+000	0.0000000E+000	0.0000000E+000	18.8494	2.92921	71.1506	-0.00048445
151.699	0.14894	0.0478579	0.15644	-17.8134	2567.85	-0.000234588	-1.19017	21922.2	2051.61	3	37	0.00513176	0.0328034	0	-0.900094	0.247195	0.190639	7.28177	4.80462e-06	5.04019e-06	5.25027e-06	2.48845e-06	5.54053e-06	5.36042e-06	0.131957	0.146132	0.651455	4.77438e-06	3.33033e-05	1.05543e-05	2.43949e-05	3.20256e-06	2.34074e-06	6.08577	1.9555	6.39223	17.8134	2.05161e+06	6.38488e+06	6.7064e+06	-72.1866	0.0000000E+000	0.0000000E+000	0.0000000E+000	72.1866	0.0000000E+000	0.0000000E+000	0.0000000E+000	-72.1866	0.0000000E+000	0.0000000E+000	0.0000000E+000	-17.8134	0.0000000E+000	0.0000000E+000	0.0000000E+000	17.8134	3.11213	72.1866	-0.000416312
60.6403	0.183616	0.041901	0.188336	-12.8547	2572.26	-0.000241914	-1.18217	62637.4	3100.38	3	37	0.00499325	0.0265124	0	-0.901411	0.291657	0.144322	7.41468	3.76243e-06	6.899e-06	4.33401e-06	3.99846e-06	7.4874e-06	5.11702e-06	0.177347	0.0310801	0.886921	8.72725e-06	2.84658e-05	9.83395e-06	3.32134e-05	5.32863e-06	6.8127e-06	5.17658	1.18129	5.30965	12.8547	3.10038e+06	1.35863e+07	1.39356e+07	-77.1453	0.0000000E+000	0.0000000E+000	0.0000000E+000	77.1453	0.0000000E+000	0.0000000E+000	0.0000000E+000	-77.1453	0.0000000E+000	0.0000000E+000	0.0000000E+000	-12.8547	0.0000000E+000	0.0000000E+000	0.0000000E+000	12.8547	4.38214	77.1453	-0.00031043
24.2323	0.204874	0.025413	0.206445	-7.07096	2576.74	-0.000242324	-1.20635	258445	3916.29	3	37	0.00495509	0.024002	0	-0.90294	0.323013	0.266546	7.56696	3.30538e-06	5.19434e-06	6.60179e-06	5.4793e-06	7.70575e-06	6.48041e-06	0.30146	0.0449564	0.944325	6.23075e-05	2.70504e-05	4.73549e-06	2.2216e-05	5.61321e-06	2.31013e-06	4.80708	0.596279	4.84392	7.07096	3.91628e+06	3.15723e+07	3.18142e+07	-82.929	0.0000000E+000	0.0000000E+000	0.0000000E+000	82.929	0.0000000E+000	0.0000000E+000	0.0000000E+000	-82.929	0.0000000E+000	0.0000000E+000	0.0000000E+000	-7.07096	0.0000000E+000	0.0000000E+000	0.0000000E+000	7.07096	8.06179	82.929	-0.000389461
9.68695	0.212651	0.0134968	0.213079	-3.63166	2581.09	-0.000257032	-1.18567	1.21731e+06	4884.11	3	37	0.00493945	0.0231814	0	-0.904384	0.336357	0.223989	7.50057	5.70041e-06	9.71884e-07	4.23983e-06	6.24794e-06	7.89922e-06	9.21243e-06	0.334455	0.106272	0.962681	8.429e-06	2.16027e-05	1.22004e-05	7.0989e-05	1.51884e-05	4.16929e-06	4.68368	0.297271	4.69311	3.63166	4.88412e+06	7.69521e+07	7.7107e+07	-86.3683	0.0000000E+000	0.0000000E+000	0.0000000E+000	86.3683	0.0000000E+000	0.0000000E+000	0.0000000E+000	-86.3683	0.0000000E+000	0.0000000E+000	0.0000000E+000	-3.63166	0.0000000E+000	0.0000000E+000	0.0000000E+000	3.63166	15.7556	86.3683	-0.000502798
3.8714	0.215728	0.00790135	0.215872	-2.09761	2587.35	-0.000248541	-1.18848	5.20296e+06	6970.43	3	37	0.004938	0.0228746	0	-0.906006	0.20817	0.119199	3.84158	2.2324e-06	5.80076e-06	2.77521e-06	2.70776e-06	5.89117e-06	2.81001e-06	0.121238	0.0261999	0.73819	6.21259e-06	2.30634e-05	4.3091e-06	1.24352e-05	3.50741e-06	2.87158e-06	4.62927	0.169554	4.63237	2.09761	6.97044e+06	1.90311e+08	1.90439e+08	-87.9024	0.0000000E+000	0.0000000E+000	0.0000000E+000	87.9024	0.0000000E+000	0.0000000E+000	0.0000000E+000	-87.9024	0.0000000E+000	0.0000000E+000	0.0000000E+000	-2.09761	0.0000000E+000	0.0000000E+000	0.0000000E+000	2.09761	27.3026	87.9024	-0.000140508
1.54902	0.217237	0.00674358	0.217341	-1.77804	2600.38	-0.000248633	-1.1603	1.5236e+07	14667.9	3	37	0.00493627	0.022712	0	-0.909982	0.143019	0.0895299	2.02131	2.39356e-06	3.89588e-06	2.56302e-06	2.39314e-06	2.52313e-06	1.43717e-06	0.117741	0.0712937	0.655233	6.35237e-06	2.20083e-05	4.04871e-06	1.21371e-05	2.23007e-06	3.38755e-06	4.59884	0.14276	4.60106	1.77804	1.46679e+07	4.7251e+08	4.72738e+08	-88.222	0.0000000E+000	0.0000000E+000	0.0000000E+000	88.222	0.0000000E+000	0.0000000E+000	0.0000000E+000	-88.222	0.0000000E+000	0.0000000E+000	0.0000000E+000	-1.77804	0.0000000E+000	0.0000000E+000	0.0000000E+000	1.77804	32.2138	88.222	-0.00123795
0.618591	0.219258	0.0109748	0.219533	-2.8655	2632.72	-0.00025388	-1.202	2.34434e+07	58588.6	3	38	0.00493326	0.0224716	0	-0.922806	0.0978977	0.0703889	1.20588	2.02768e-06	2.79616e-06	1.24665e-06	1.36742e-06	1.58458e-06	1.99388e-06	0.142584	0.118239	0.580778	6.59003e-06	2.46413e-05	5.91406e-06	1.51923e-05	2.72016e-06	3.76019e-06	4.54943	0.227718	4.55513	2.8655	5.85885e+07	1.17051e+09	1.17197e+09	-87.1345	0.0000000E+000	0.0000000E+000	0.0000000E+000	87.1345	0.0000000E+000	0.0000000E+000	0.0000000E+000	-87.1345	0.0000000E+000	0.0000000E+000	0.0000000E+000	-2.8655	0.0000000E+000	0.0000000E+000	0.0000000E+000	2.8655	19.9784	87.1345	-0.00495986
0.247537	0.232178	0.0144661	0.232628	-3.56526	2706.29	-0.000257699	-1.18955	4.44457e+07	171873	3	38	0.00493115	0.0211976	0	-0.949714	0.0972874	0.112986	0.808858	1.95623e-06	3.47983e-06	1.28008e-06	1.42351e-06	1.2695e-06	8.71469e-07	0.105152	0.0873751	0.581071	5.94042e-06	1.4183e-05	3.15066e-06	1.3783e-05	4.34102e-06	4.94452e-06	4.29039	0.267317	4.29871	3.56526	1.71873e+08	2.75853e+09	2.76388e+09	-86.4347	0.0000000E+000	0.0000000E+000	0.0000000E+000	86.4347	0.0000000E+000	0.0000000E+000	0.0000000E+000	-86.4347	0.0000000E+000	0.0000000E+000	0.0000000E+000	-3.56526	0.0000000E+000	0.0000000E+000	0.0000000E+000	3.56526	16.0498	86.4347	-0.0110298
0.0988834	0.241569	0.008175	0.241707	-1.93823	2888.43	-0.000230233	-1.08621	1.96883e+08	225220	3	38	0.00492962	0.020395	0	-0.997378	0.109029	0.056864	0.50077	2.53247e-06	3.57933e-06	4.90248e-07	2.12528e-06	3.69005e-07	1.21019e-06	0.146206	0.183132	0.416177	1.13443e-05	1.67039e-05	5.59512e-06	1.68195e-05	2.30298e-06	4.11123e-06	4.13488	0.13993	4.13724	1.93823	2.2522e+08	6.65518e+09	6.65899e+09	-88.0618	0.0000000E+000	0.0000000E+000	0.0000000E+000	88.0618	0.0000000E+000	0.0000000E+000	0.0000000E+000	-88.0618	0.0000000E+000	0.0000000E+000	0.0000000E+000	-1.93823	0.0000000E+000	0.0000000E+000	0.0000000E+000	1.93823	29.5497	88.0618	-0.0195445
0.0395203	0.245523	0.00648704	0.245609	-1.51348	3342.14	-0.000249213	-1.2405	6.20803e+08	433071	3	38	0.00492884	0.0200679	0	-1.17051	0.0860759	0.164489	0.330055	1.49018e-06	3.04782e-06	1.00761e-06	1.6357e-06	1.02233e-06	5.45179e-07	0.139412	0.248243	0.301328	1.15058e-05	1.62113e-05	1.00467e-05	1.49798e-05	2.79824e-06	4.93542e-06	4.0701	0.107537	4.07152	1.51348	4.3307e+08	1.6391e+10	1.63967e+10	-88.4865	0.0000000E+000	0.0000000E+000	0.0000000E+000	88.4865	0.0000000E+000	0.0000000E+000	0.0000000E+000	-88.4865	0.0000000E+000	0.0000000E+000	0.0000000E+000	-1.51348	0.0000000E+000	0.0000000E+000	0.0000000E+000	1.51348	37.8482	88.4865	-0.0491429
731536	-0.0530587	-0.16896	0.177095	107.434	3783.91	-0.000161368	-0.810245	-1.28766	-1.17207	4	37	0.00082749	0.00467257	0	-0.000973824	-1	-1	-1	0	0	0	0	0	0	-1	-1	-1	0	0	0	0	0	0	-1.69177	-5.38729	5.64668	-107.434	-1172.07	-368.067	1228.51	162.566	0.0000000E+000	0.0000000E+000	0.0000000E+000	-162.566	0.0000000E+000	0.0000000E+000	0.0000000E+000	162.566	0.0000000E+000	0.0000000E+000	0.0000000E+000	107.434	0.0000000E+000	0.0000000E+000	0.0000000E+000	-107.434	0.314031	17.4339	-0.000257194
292440	0.044966	-0.0471452	0.0651507	46.3553	3788.5	-0.000132307	-0.480136	-11.5437	-6.04482	4	37	0.00149999	0.0230234	0	-0.00181184	-1	-1	-1	0	0	0	0	0	0	-1	-1	-1	0	0	0	0	0	0	10.5937	-11.1071	15.349	-46.3553	-6044.82	5765.41	8353.43	-136.355	0.0000000E+000	0.0000000E+000	0.0000000E+000	136.355	0.0000000E+000	0.0000000E+000	0.0000000E+000	-136.355	0.0000000E+000	0.0000000E+000	0.0000000E+000	46.3553	0.0000000E+000	0.0000000E+000	0.0000000E+000	-46.3553	0.953776	43.6447	-0.000194427
116909	0.0545617	-0.0162513	0.0569306	16.5863	3792.95	-0.0001612	-0.483279	-83.7688	-6.82606	4	37	0.00502187	0.0882105	0	-0.00251362	-1	-1	-1	0	0	0	0	0	0	-1	-1	-1	0	0	0	0	0	0	16.8344	-5.01416	17.5653	-16.5863	-6826.06	22917.6	23912.6	-106.586	0.0000000E+000	0.0000000E+000	0.0000000E+000	106.586	0.0000000E+000	0.0000000E+000	0.0000000E+000	-106.586	0.0000000E+000	0.0000000E+000	0.0000000E+000	16.5863	0.0000000E+000	0.0000000E+000	0.0000000E+000	-16.5863	3.35737	73.4137	-0.000128447
46735.8	0.0573179	-0.00198959	0.0573524	1.98802	3797.55	-0.000156409	-0.589364	-1711.62	-2.05983	4	37	0.00520164	0.0906962	0	-0.00326832	0.41649	0.178581	7.168	8.26902e-06	1.13804e-05	1.17227e-05	4.47238e-06	7.76368e-06	3.41419e-06	0.181007	0.00963644	0.256825	1.00539e-05	0.000163372	4.85348e-06	7.82725e-06	6.61795e-06	3.40728e-06	17.4256	-0.604868	17.4361	-1.98802	-2059.82	59341.3	59377.1	-91.988	0.0000000E+000	0.0000000E+000	0.0000000E+000	91.988	0.0000000E+000	0.0000000E+000	0.0000000E+000	-91.988	0.0000000E+000	0.0000000E+000	0.0000000E+000	1.98802	0.0000000E+000	0.0000000E+000	0.0000000E+000	-1.98802	28.8089	88.012	-9.49404e-05
18677.6	0.0614713	0.00700582	0.0618692	-6.50189	3802.14	-0.0001686	-0.668425	1216.3	15.5958	4	37	0.00519244	0.0839261	0	-0.00386385	0.377285	0.187937	7.16323	4.12699e-06	1.30919e-05	6.11584e-06	7.06197e-06	7.59466e-06	4.68424e-06	0.194005	0.028847	0.276577	1.25886e-05	0.000161526	8.54477e-06	1.1821e-05	4.56519e-06	2.91543e-06	16.0592	1.83025	16.1631	6.50189	15595.8	136843	137728	-83.4981	0.0000000E+000	0.0000000E+000	0.0000000E+000	83.4981	0.0000000E+000	0.0000000E+000	0.0000000E+000	-83.4981	0.0000000E+000	0.0000000E+000	0.0000000E+000	-6.50189	0.0000000E+000	0.0000000E+000	0.0000000E+000	6.50189	8.77431	83.4981	-0.000182109
7470.62	0.0681969	0.0142012	0.0696598	-11.763	3806.78	-0.000273398	-1.15139	1500.17	62.348	4	37	0.00522019	0.0749384	0	-0.00499371	0.432884	0.20436	7.0638	8.36565e-06	6.38093e-06	7.10612e-06	1.42524e-05	5.73202e-06	6.36292e-06	0.187339	0.0619733	0.311784	1.37074e-05	0.000138699	6.4958e-06	1.32505e-05	4.85088e-06	4.90077e-06	14.054	2.92657	14.3555	11.763	62348	299408	305831	-78.237	0.0000000E+000	0.0000000E+000	0.0000000E+000	78.237	0.0000000E+000	0.0000000E+000	0.0000000E+000	-78.237	0.0000000E+000	0.0000000E+000	0.0000000E+000	-11.763	0.0000000E+000	0.0000000E+000	0.0000000E+000	11.763	4.80221	78.237	-0.000414839
2985.95	0.0783237	0.0215124	0.0812243	-15.3581	3812.04	-0.000272895	-1.1764	2477.7	173.802	4	37	0.00519175	0.0639187	0	-0.00696371	0.367196	0.138518	7.0892	8.61271e-06	4.91346e-06	6.94956e-06	7.25012e-06	6.59765e-06	9.60569e-06	0.122522	0.0369083	0.365198	1.98245e-05	7.51355e-05	5.85993e-06	3.03641e-06	2.2375e-06	6.31647e-06	11.8719	3.26074	12.3116	15.3581	173802	632788	656222	-74.6419	0.0000000E+000	0.0000000E+000	0.0000000E+000	74.6419	0.0000000E+000	0.0000000E+000	0.0000000E+000	-74.6419	0.0000000E+000	0.0000000E+000	0.0000000E+000	-15.3581	0.0000000E+000	0.0000000E+000	0.0000000E+000	15.3581	3.64086	74.6419	-0.000386249
1193.85	0.0928899	0.0299646	0.0976033	-17.8788	3817.35	-0.000301173	-1.25805	4448.99	419.324	4	37	0.00518716	0.0531453	0	-0.00880155	0.396028	0.210917	7.14244	7.44682e-06	7.34278e-06	9.41334e-06	7.66306e-06	4.86231e-06	9.10682e-06	0.0531982	0.0842236	0.445184	1.32334e-05	2.25456e-05	4.0453e-06	7.99053e-06	4.6697e-06	1.31724e-06	9.75078	3.14543	10.2456	17.8788	419324	1.2999e+06	1.36586e+06	-72.1212	0.0000000E+000	0.0000000E+000	0.0000000E+000	72.1212	0.0000000E+000	0.0000000E+000	0.0000000E+000	-72.1212	0.0000000E+000	0.0000000E+000	0.0000000E+000	-17.8788	0.0000000E+000	0.0000000E+000	0.0000000E+000	17.8788	3.09999	72.1212	-0.000358279
476.984	0.113253	0.0386589	0.119669	-18.8473	3822.66	-0.000262437	-1.24705	8631.11	900.74	4	37	0.0050322	0.0420509	0	-0.0106769	0.374034	0.192064	7.32913	2.12521e-06	8.85586e-06	5.95347e-06	9.94926e-06	7.51174e-06	6.49193e-06	0.0737218	0.0235593	0.558869	1.03958e-05	2.74728e-05	2.81016e-06	4.52986e-06	2.97916e-06	5.99331e-06	7.90831	2.6995	8.35635	18.8473	900740	2.63876e+06	2.78826e+06	-71.1527	0.0000000E+000	0.0000000E+000	0.0000000E+000	71.1527	0.0000000E+000	0.0000000E+000	0.0000000E+000	-71.1527	0.0000000E+000	0.0000000E+000	0.0000000E+000	-18.8473	0.0000000E+000	0.0000000E+000	0.0000000E+000	18.8473	2.92955	71.1527	-0.000479466
190.672	0.140688	0.0467431	0.14825	-18.3789	3827.09	-0.000262493	-1.24672	17857.3	1775.26	4	37	0.00534728	0.0360694	0	-0.0122532	0.291383	0.142425	6.97485	5.41913e-06	5.91431e-06	6.16791e-06	8.30946e-06	4.62183e-06	4.52055e-06	0.119541	0.0295113	0.649818	3.10655e-06	3.37477e-05	4.08447e-06	2.48623e-05	4.65534e-06	5.08891e-06	6.4013	2.12681	6.74536	18.3789	1.77526e+06	5.34321e+06	5.6304e+06	-71.6211	0.0000000E+000	0.0000000E+000	0.0000000E+000	71.6211	0.0000000E+000	0.0000000E+000	0.0000000E+000	-71.6211	0.0000000E+000	0.0000000E+000	0.0000000E+000	-18.3789	0.0000000E+000	0.0000000E+000	0.0000000E+000	18.3789	3.00982	71.6211	-0.000417609
76.244	0.175749	0.0450537	0.181432	-14.3783	3831.5	-0.000271292	-1.25878	46332.3	2857.05	4	37	0.00517553	0.028526	0	-0.0138117	0.412343	0.1962	7.16179	5.44449e-06	1.00384e-05	1.07334e-05	6.02245e-06	4.75872e-06	1.03076e-05	0.251823	0.0334337	0.776041	5.30301e-05	3.3781e-05	6.7894e-06	3.25912e-05	7.28384e-06	3.88694e-06	5.33907	1.36869	5.51171	14.3783	2.85705e+06	1.1145e+07	1.15054e+07	-75.6217	0.0000000E+000	0.0000000E+000	0.0000000E+000	75.6217	0.0000000E+000	0.0000000E+000	0.0000000E+000	-75.6217	0.0000000E+000	0.0000000E+000	0.0000000E+000	-14.3783	0.0000000E+000	0.0000000E+000	0.0000000E+000	14.3783	3.90088	75.6217	-0.000406635
30.4779	0.201027	0.0297615	0.203218	-8.42132	3835.95	-0.000260648	-1.26533	175461	3763.28	4	37	0.00510753	0.0251333	0	-0.0153327	0.373056	0.241034	7.25408	5.66986e-06	7.62236e-06	9.16641e-06	7.89177e-06	7.82917e-06	6.44896e-06	0.232263	0.0250021	0.888785	8.84577e-06	2.707e-05	1.03003e-05	4.88964e-05	5.82223e-06	4.60555e-06	4.86777	0.720661	4.92083	8.42132	3.76328e+06	2.54194e+07	2.56965e+07	-81.5787	0.0000000E+000	0.0000000E+000	0.0000000E+000	81.5787	0.0000000E+000	0.0000000E+000	0.0000000E+000	-81.5787	0.0000000E+000	0.0000000E+000	0.0000000E+000	-8.42132	0.0000000E+000	0.0000000E+000	0.0000000E+000	8.42132	6.75459	81.5787	-0.000336533
12.188	0.211656	0.0160128	0.21226	-4.32647	3840.32	-0.000262344	-1.27715	815497	4641.07	4	37	0.00509679	0.024012	0	-0.016968	0.291862	0.14629	7.30367	6.77856e-06	5.25383e-06	4.35622e-06	5.83551e-06	6.34276e-06	6.09111e-06	0.306479	0.0292418	0.936901	5.4845e-06	2.61909e-05	6.60576e-05	1.50396e-05	3.33045e-06	6.91318e-06	4.69777	0.35541	4.7112	4.32647	4.64107e+06	6.13453e+07	6.15206e+07	-85.6735	0.0000000E+000	0.0000000E+000	0.0000000E+000	85.6735	0.0000000E+000	0.0000000E+000	0.0000000E+000	-85.6735	0.0000000E+000	0.0000000E+000	0.0000000E+000	-4.32647	0.0000000E+000	0.0000000E+000	0.0000000E+000	4.32647	13.2179	85.6735	-0.000449992
4.87216	0.215449	0.00901904	0.215638	-2.39709	3845.72	-0.000265973	-1.30511	3.62192e+06	6335.89	4	37	0.00509161	0.0236118	0	-0.0185412	0.208182	0.095096	4.71035	4.13237e-06	6.06101e-06	4.74389e-06	2.37629e-06	3.90904e-06	2.3974e-06	0.11864	0.0890162	0.755958	4.18971e-06	2.15491e-05	5.21297e-06	1.44102e-05	5.81461e-06	3.55739e-06	4.63334	0.193959	4.6374	2.39709	6.33589e+06	1.51354e+08	1.51486e+08	-87.6029	0.0000000E+000	0.0000000E+000	0.0000000E+000	87.6029	0.0000000E+000	0.0000000E+000	0.0000000E+000	-87.6029	0.0000000E+000	0.0000000E+000	0.0000000E+000	-2.39709	0.0000000E+000	0.0000000E+000	0.0000000E+000	2.39709	23.8883	87.6029	-0.000585942
1.94632	0.217178	0.00673543	0.217283	-1.77636	3856.41	-0.000265608	-1.23766	1.21406e+07	11666	4	37	0.0050895	0.0234234	0	-0.0228538	0.169822	0.0737957	2.28381	2.65998e-06	4.04692e-06	3.35983e-06	4.59552e-06	3.64526e-06	1.14533e-06	0.125601	0.0552712	0.642947	4.51332e-06	2.42708e-05	3.75963e-06	1.5041e-05	2.33091e-06	1.91391e-06	4.60009	0.142664	4.6023	1.77636	1.1666e+07	3.7616e+08	3.76341e+08	-88.2236	0.0000000E+000	0.0000000E+000	0.0000000E+000	88.2236	0.0000000E+000	0.0000000E+000	0.0000000E+000	-88.2236	0.0000000E+000	0.0000000E+000	0.0000000E+000	-1.77636	0.0000000E+000	0.0000000E+000	0.0000000E+000	1.77636	32.2442	88.2236	-0.00174158
0.778176	0.218806	0.00887806	0.218986	-2.3235	3882.87	-0.000268361	-1.27159	2.30369e+07	37864	4	38	0.00508854	0.0232368	0	-0.0314737	0.106612	0.0700931	1.32658	1.76291e-06	3.70824e-06	1.79728e-06	2.38944e-06	1.07821e-06	1.03983e-06	0.139138	0.114935	0.568142	1.52712e-05	2.01816e-05	8.02479e-06	1.82073e-05	1.52572e-06	1.71517e-06	4.56274	0.185133	4.5665	2.3235	3.7864e+07	9.33186e+08	9.33954e+08	-87.6765	0.0000000E+000	0.0000000E+000	0.0000000E+000	87.6765	0.0000000E+000	0.0000000E+000	0.0000000E+000	-87.6765	0.0000000E+000	0.0000000E+000	0.0000000E+000	-2.3235	0.0000000E+000	0.0000000E+000	0.0000000E+000	2.3235	24.6457	87.6765	-0.00135189
0.311199	0.228905	0.0152305	0.229411	-3.80664	3941.65	-0.00025004	-1.23171	3.35791e+07	148002	4	38	0.00508571	0.0221686	0	-0.0502276	0.109339	0.113929	0.871886	2.02985e-06	3.70207e-06	1.16091e-06	2.19833e-06	2.0973e-06	7.01144e-07	0.142663	0.149301	0.575636	7.37751e-06	1.91584e-05	3.95543e-06	1.48323e-05	5.49901e-06	1.6094e-05	4.34938	0.289391	4.35899	3.80664	1.48002e+08	2.22438e+09	2.2293e+09	-86.1934	0.0000000E+000	0.0000000E+000	0.0000000E+000	86.1934	0.0000000E+000	0.0000000E+000	0.0000000E+000	-86.1934	0.0000000E+000	0.0000000E+000	0.0000000E+000	-3.80664	0.0000000E+000	0.0000000E+000	0.0000000E+000	3.80664	15.0294	86.1934	-0.00320053
0.124396	0.239764	0.0111184	0.240022	-2.65503	4086.7	-0.000247248	-1.2186	1.15073e+08	246919	4	38	0.00508338	0.0211788	0	-0.108378	0.107425	0.074694	0.539693	1.52609e-06	3.87715e-06	1.40654e-06	1.85042e-06	1.21513e-06	1.34429e-06	0.134919	0.134148	0.458041	8.82685e-06	1.94527e-05	4.41454e-06	1.53826e-05	3.36183e-06	2.4927e-06	4.16181	0.192992	4.16629	2.65503	2.46919e+08	5.32473e+09	5.33045e+09	-87.345	0.0000000E+000	0.0000000E+000	0.0000000E+000	87.345	0.0000000E+000	0.0000000E+000	0.0000000E+000	-87.345	0.0000000E+000	0.0000000E+000	0.0000000E+000	-2.65503	0.0000000E+000	0.0000000E+000	0.0000000E+000	2.65503	21.5647	87.345	-0.0195538
0.0497507	0.243448	0.00795507	0.243578	-1.87157	4447.66	-0.000255031	-1.21806	4.0214e+08	428933	4	38	0.00508225	0.020865	0	-0.204976	0.0955141	0.0863821	0.373778	9.20626e-07	3.48908e-06	1.02248e-06	2.66226e-06	1.01517e-06	6.1112e-07	0.166731	0.199059	0.345607	1.88157e-05	1.75005e-05	8.33568e-06	1.75917e-05	5.90693e-06	3.76095e-06	4.10327	0.134081	4.10546	1.87157	4.28932e+08	1.31266e+10	1.31336e+10	-88.1284	0.0000000E+000	0.0000000E+000	0.0000000E+000	88.1284	0.0000000E+000	0.0000000E+000	0.0000000E+000	-88.1284	0.0000000E+000	0.0000000E+000	0.0000000E+000	-1.87157	0.0000000E+000	0.0000000E+000	0.0000000E+000	1.87157	30.6029	88.1284	-0.0382793
0.0395203	0.245705	0.00624801	0.245784	-1.45666	4602.48	-0.000265258	-1.28013	6.44553e+08	416519	4	38	0.00508562	0.0206914	0	-0.268786	0.0967536	0.111216	0.323468	1.85142e-06	3.12465e-06	1.08654e-06	2.54166e-06	1.1017e-06	1.0042e-06	0.169088	0.210034	0.288622	2.22486e-05	1.34263e-05	8.27667e-06	1.87198e-05	6.32977e-06	5.0444e-06	4.0673	0.103427	4.06861	1.45666	4.16519e+08	1.63797e+10	1.6385e+10	-88.5433	0.0000000E+000	0.0000000E+000	0.0000000E+000	88.5433	0.0000000E+000	0.0000000E+000	0.0000000E+000	-88.5433	0.0000000E+000	0.0000000E+000	0.0000000E+000	-1.45666	0.0000000E+000	0.0000000E+000	0.0000000E+000	1.45666	39.3253	88.5433	-0.0638098