File: Python/Experiments/IRFB/FirstCell/Data/240405-EIS-50mM_FeCl2FeCl3-1M_HCl-30mLmin-LowFreq_20ppd_C15.mpt
EC-Lab ASCII FILE
Nb header lines : 66

Potentio Electrochemical Impedance Spectroscopy

Run on channel : 15 (SN 19485)
User :
Electrode connection : standard
Potential control : Ewe
Ewe ctrl range : min = -1.00 V, max = 1.00 V
Ewe,I filtering : <None>
Safety Limits :
	Do not start on E overload
Channel : Floating
Acquisition started on : 04/05/2024 14:02:43.389
Loaded Setting File :  NONE
Saved on :
	File : 240405-EIS-50mM_FeCl2FeCl3-1M_HCl-30mLmin-LowFreq_20ppd_C15.mpr
	Directory : C:\Data\mathias\IRFB\
	Host : 192.168.0.1
Device : VMP-300 (SN 0826)
Address : USB
EC-Lab for windows v11.52 (software)
Internet server v11.52 (firmware)
Command interpretor v11.52 (firmware)
Electrode material :
Initial state :
Electrolyte :
Comments :
Cable : special
Electrode surface area : 0.001 cm²
Characteristic mass : 0.001 g
Equivalent Weight : 0.000 g/eq.
Density : 0.000 g/cm3
Volume (V) : 0.001 cm³
Record EIS quality indicators
Cycle Definition : Charge/Discharge alternance
Mode                Single sine
E (V)               0.0000
vs.                 Eoc
tE (h:m:s)          0:00:0.0000
record              0
dI                  0.000
unit dI             mA
dt (s)              0.000
fi                  300.000
unit fi             kHz
ff                  25.000
unit ff             mHz
Nd                  20
Points              per decade
spacing             Logarithmic
Va (mV)             5.0
pw                  0.10
Na                  3
corr                0
E range min (V)     -1.000
E range max (V)     1.000
I Range             Auto
Bandwidth           8
nc cycles           2
goto Ns'            0
nr cycles           0
inc. cycle          0

freq/Hz	Re(Z)/Ohm	-Im(Z)/Ohm	|Z|/Ohm	Phase(Z)/deg	time/s	<Ewe>/V	<I>/mA	Cs/µF	Cp/µF	cycle number	I Range	|Ewe|/V	|I|/A	Ns	(Q-Qo)/mA.h	THD Ewe/%	NSD Ewe/%	NSR Ewe/%	|Ewe h2|/V	|Ewe h3|/V	|Ewe h4|/V	|Ewe h5|/V	|Ewe h6|/V	|Ewe h7|/V	THD I/%	NSD I/%	NSR I/%	|I h2|/A	|I h3|/A	|I h4|/A	|I h5|/A	|I h6|/A	|I h7|/A	Re(Y)/Ohm-1	Im(Y)/Ohm-1	|Y|/Ohm-1	Phase(Y)/deg	Re(C)/nF	Im(C)/nF	|C|/nF	Phase(C)/deg	Re(M)	Im(M)	|M|	Phase(M)/deg	Re(Permittivity)	Im(Permittivity)	|Permittivity|	Phase(Permittivity)/deg	Re(Resistivity)/Ohm.cm	Im(Resistivity)/Ohm.cm	|Resistivity|/Ohm.cm	Phase(Resistivity)/deg	Re(Conductivity)/mS/cm	Im(Conductivity)/mS/cm	|Conductivity|/mS/cm	Phase(Conductivity)/deg	Tan(Delta)	Loss Angle(Delta)/deg	dq/mA.h
300002	0.0443908	-0.0485283	0.0657688	47.5496	1.82249	-7.07364e-05	-0.444235	-10.932	-5.95184	1	37	0.00145356	0.022101	0	-0.000198522	-1	-1	-1	0	0	0	0	0	0	-1	-1	-1	0	0	0	0	0	0	10.2625	-11.219	15.2048	-47.5496	-5951.84	5444.39	8066.34	-137.55	0.0000000E+000	0.0000000E+000	0.0000000E+000	137.55	0.0000000E+000	0.0000000E+000	0.0000000E+000	-137.55	0.0000000E+000	0.0000000E+000	0.0000000E+000	47.5496	0.0000000E+000	0.0000000E+000	0.0000000E+000	-47.5496	0.914741	42.4504	-0.000198522
150664	0.0534387	-0.0224942	0.05798	22.8279	8.70649	-7.07177e-05	-0.416187	-46.9611	-7.06844	1	37	0.00362523	0.0625255	0	-0.00109889	-1	-1	-1	0	0	0	0	0	0	-1	-1	-1	0	0	0	0	0	0	15.8964	-6.69135	17.2473	-22.8279	-7068.44	16792.2	18219.3	-112.828	0.0000000E+000	0.0000000E+000	0.0000000E+000	112.828	0.0000000E+000	0.0000000E+000	0.0000000E+000	-112.828	0.0000000E+000	0.0000000E+000	0.0000000E+000	22.8279	0.0000000E+000	0.0000000E+000	0.0000000E+000	-22.8279	2.37566	67.1721	-0.000233602
75666.2	0.0559722	-0.00845751	0.0566075	8.59251	15.4605	-6.27021e-05	-0.405689	-248.7	-5.55152	1	37	0.00509665	0.0900348	0	-0.00173218	0.394244	0.195513	7.29545	4.25117e-06	8.04912e-06	9.62661e-06	4.83084e-06	1.08945e-05	7.40104e-06	0.14717	0.00919192	0.259584	1.81581e-05	0.000130506	4.00089e-06	5.75282e-06	6.57287e-06	4.22145e-06	17.4672	-2.63933	17.6655	-8.59251	-5551.52	36740.2	37157.3	-98.5925	0.0000000E+000	0.0000000E+000	0.0000000E+000	98.5925	0.0000000E+000	0.0000000E+000	0.0000000E+000	-98.5925	0.0000000E+000	0.0000000E+000	0.0000000E+000	8.59251	0.0000000E+000	0.0000000E+000	0.0000000E+000	-8.59251	6.61804	81.4075	3.52602e-05
38014	0.0579305	0.000304839	0.0579313	-0.301496	22.3575	-7.9572e-05	-0.411719	13734.3	0.380295	1	37	0.00508683	0.0878081	0	-0.002575	0.0000000E+000	0.0000000E+000	7.14405	9.28376e-06	1.10107e-05	6.66105e-06	8.85058e-06	4.77174e-06	7.5948e-06	0.0000000E+000	0.0000000E+000	0.251118	2.53717e-05	0.00016144	1.65734e-05	4.48848e-05	4.39617e-05	2.11513e-05	17.2616	0.0908331	17.2618	0.301496	380.298	72269.9	72270.9	-89.6985	0.0000000E+000	0.0000000E+000	0.0000000E+000	89.6985	0.0000000E+000	0.0000000E+000	0.0000000E+000	-89.6985	0.0000000E+000	0.0000000E+000	0.0000000E+000	-0.301496	0.0000000E+000	0.0000000E+000	0.0000000E+000	0.301496	190.036	89.6985	-0.000590404
19085.9	0.0612199	0.00672533	0.0615882	-6.2691	29.2495	-7.68318e-05	-0.384882	1239.92	14.7851	1	37	0.00508971	0.082641	0	-0.00330641	2.13561	0.188556	6.97974	6.34818e-06	0.000102055	7.80192e-06	5.67719e-06	3.4391e-05	5.14008e-06	0.195827	0.0395265	0.28088	1.4321e-05	0.000160136	1.11243e-05	9.07858e-06	9.22312e-06	5.50735e-06	16.1398	1.77304	16.2369	6.2691	14785.1	134588	135397	-83.7309	0.0000000E+000	0.0000000E+000	0.0000000E+000	83.7309	0.0000000E+000	0.0000000E+000	0.0000000E+000	-83.7309	0.0000000E+000	0.0000000E+000	0.0000000E+000	-6.2691	0.0000000E+000	0.0000000E+000	0.0000000E+000	6.2691	9.1029	83.7309	-0.000123075
9584.7	0.0659786	0.0122622	0.0671084	-10.5284	36.1375	-0.000179374	-0.812513	1354.17	45.2123	1	37	0.00516686	0.0769927	0	-0.00415107	0.367727	0.21707	7.23699	7.0079e-06	1.22195e-05	7.27152e-06	3.10897e-06	8.53584e-06	3.72227e-06	0.198675	0.0156409	0.306558	2.12493e-05	0.000150511	8.32851e-06	1.25574e-05	5.2833e-06	3.79844e-06	14.6504	2.72279	14.9013	10.5284	45212.3	243272	247437	-79.4716	0.0000000E+000	0.0000000E+000	0.0000000E+000	79.4716	0.0000000E+000	0.0000000E+000	0.0000000E+000	-79.4716	0.0000000E+000	0.0000000E+000	0.0000000E+000	-10.5284	0.0000000E+000	0.0000000E+000	0.0000000E+000	10.5284	5.38065	79.4716	-0.000291175
4813.46	0.0723329	0.0176928	0.0744654	-13.7448	43.5528	-0.000193094	-0.839221	1868.81	105.499	1	37	0.00508013	0.0682214	0	-0.00570538	0.288549	0.191562	7.31102	5.97774e-06	5.88697e-06	3.71584e-06	3.71514e-06	8.40441e-06	4.65238e-06	0.156323	0.0779575	0.350451	2.16712e-05	0.000103542	5.37058e-06	1.07315e-05	1.46626e-06	4.3382e-06	13.0445	3.19071	13.4291	13.7448	105500	431311	444026	-76.2552	0.0000000E+000	0.0000000E+000	0.0000000E+000	76.2552	0.0000000E+000	0.0000000E+000	0.0000000E+000	-76.2552	0.0000000E+000	0.0000000E+000	0.0000000E+000	-13.7448	0.0000000E+000	0.0000000E+000	0.0000000E+000	13.7448	4.08827	76.2552	-0.000206179
2417.32	0.0810833	0.0235242	0.0844268	-16.1787	51.5216	-0.000185936	-0.836802	2798.79	217.291	1	37	0.00509372	0.060333	0	-0.00766226	0.374554	0.20403	7.27839	9.87964e-06	8.83883e-06	8.03797e-06	3.77629e-06	4.92536e-06	5.72862e-06	0.102235	0.0654646	0.385183	2.02893e-05	5.76305e-05	1.77139e-06	2.91198e-06	4.87583e-06	4.457e-06	11.3755	3.30031	11.8446	16.1787	217291	748957	779841	-73.8213	0.0000000E+000	0.0000000E+000	0.0000000E+000	73.8213	0.0000000E+000	0.0000000E+000	0.0000000E+000	-73.8213	0.0000000E+000	0.0000000E+000	0.0000000E+000	-16.1787	0.0000000E+000	0.0000000E+000	0.0000000E+000	16.1787	3.4468	73.8213	-0.000336697
1213.83	0.0924582	0.0300073	0.0972058	-17.9808	59.49	-0.000189049	-0.834364	4369.52	416.393	1	37	0.00509422	0.0524065	0	-0.00939535	0.272653	0.235438	7.43289	6.45556e-06	3.74227e-06	3.36782e-06	4.90054e-06	4.76699e-06	8.14257e-06	0.0548853	0.0359682	0.445857	1.59227e-05	1.92988e-05	3.47208e-06	1.14011e-05	3.915e-06	5.67568e-06	9.78501	3.17572	10.2875	17.9808	416393	1.28299e+06	1.34887e+06	-72.0192	0.0000000E+000	0.0000000E+000	0.0000000E+000	72.0192	0.0000000E+000	0.0000000E+000	0.0000000E+000	-72.0192	0.0000000E+000	0.0000000E+000	0.0000000E+000	-17.9808	0.0000000E+000	0.0000000E+000	0.0000000E+000	17.9808	3.08119	72.0192	-0.000313761
609.415	0.107226	0.0365066	0.11327	-18.8019	67.24	-0.000165953	-0.837956	7153.79	743.1	1	37	0.00538188	0.0475137	0	-0.0110795	0.350244	0.164886	6.98057	7.66872e-06	5.31896e-06	6.59999e-06	4.71633e-06	6.96251e-06	9.05015e-06	0.0538174	0.0125349	0.495598	9.61618e-06	1.76093e-05	4.50507e-06	1.34958e-05	3.63575e-06	3.76353e-06	8.35736	2.84538	8.82845	18.8019	743100	2.18261e+06	2.30564e+06	-71.1981	0.0000000E+000	0.0000000E+000	0.0000000E+000	71.1981	0.0000000E+000	0.0000000E+000	0.0000000E+000	-71.1981	0.0000000E+000	0.0000000E+000	0.0000000E+000	-18.8019	0.0000000E+000	0.0000000E+000	0.0000000E+000	18.8019	2.93717	71.1981	-0.00022995
306.077	0.125226	0.043051	0.13242	-18.9723	74.3251	-0.000161088	-0.791353	12078.3	1276.64	1	37	0.00521371	0.0393726	0	-0.0125824	0.352643	0.167255	7.15196	4.35086e-06	7.91232e-06	8.44086e-06	6.41691e-06	6.23162e-06	8.67864e-06	0.0830232	0.0159868	0.5887	8.11904e-06	2.56153e-05	2.25425e-06	1.6111e-05	7.75554e-06	2.17578e-06	7.1415	2.45515	7.55174	18.9723	1.27664e+06	3.71346e+06	3.92678e+06	-71.0277	0.0000000E+000	0.0000000E+000	0.0000000E+000	71.0277	0.0000000E+000	0.0000000E+000	0.0000000E+000	-71.0277	0.0000000E+000	0.0000000E+000	0.0000000E+000	-18.9723	0.0000000E+000	0.0000000E+000	0.0000000E+000	18.9723	2.90879	71.0277	-0.000213525
153.77	0.148478	0.0486206	0.156236	-18.1315	80.9704	-0.000178741	-0.839873	21287.7	2061.61	1	37	0.00514603	0.0329375	0	-0.0140708	0.563497	0.222082	7.06272	6.89312e-06	9.04094e-06	9.73387e-06	9.28787e-06	2.18223e-05	3.67241e-06	0.14659	0.278289	0.646299	8.09452e-06	3.84089e-05	3.23266e-06	2.64017e-05	4.1127e-06	3.93121e-06	6.08275	1.99185	6.40057	18.1315	2.06161e+06	6.29578e+06	6.62473e+06	-71.8685	0.0000000E+000	0.0000000E+000	0.0000000E+000	71.8685	0.0000000E+000	0.0000000E+000	0.0000000E+000	-71.8685	0.0000000E+000	0.0000000E+000	0.0000000E+000	-18.1315	0.0000000E+000	0.0000000E+000	0.0000000E+000	18.1315	3.05381	71.8685	-0.000257144
77.1984	0.175543	0.0463549	0.18156	-14.7922	87.5671	-0.000164294	-0.749739	44475	2899.12	1	37	0.00501777	0.027637	0	-0.0154229	0.409001	0.210661	7.38886	1.03305e-05	6.03395e-06	7.14347e-06	6.47875e-06	6.60531e-06	8.60945e-06	0.17099	0.043583	0.849563	1.60965e-05	3.13707e-05	4.76632e-06	2.93883e-05	1.94078e-06	5.85859e-06	5.32528	1.40623	5.50782	14.7922	2.89912e+06	1.09788e+07	1.13551e+07	-75.2078	0.0000000E+000	0.0000000E+000	0.0000000E+000	75.2078	0.0000000E+000	0.0000000E+000	0.0000000E+000	-75.2078	0.0000000E+000	0.0000000E+000	0.0000000E+000	-14.7922	0.0000000E+000	0.0000000E+000	0.0000000E+000	14.7922	3.78693	75.2078	-0.000235729
38.7717	0.197327	0.0353884	0.200475	-10.1673	94.2521	-0.000175106	-0.804586	115996	3614.49	1	37	0.00496366	0.0247595	0	-0.0168357	0.360358	0.209116	7.40583	6.56041e-06	1.04065e-05	7.50979e-06	6.7222e-06	3.32671e-06	4.70748e-06	0.160314	0.0695413	0.952052	1.2178e-05	2.30482e-05	1.23437e-05	2.48274e-05	7.35955e-06	4.41619e-06	4.90983	0.880525	4.98816	10.1673	3.61449e+06	2.01545e+07	2.0476e+07	-79.8327	0.0000000E+000	0.0000000E+000	0.0000000E+000	79.8327	0.0000000E+000	0.0000000E+000	0.0000000E+000	-79.8327	0.0000000E+000	0.0000000E+000	0.0000000E+000	-10.1673	0.0000000E+000	0.0000000E+000	0.0000000E+000	10.1673	5.57602	79.8327	-0.000282173
19.4704	0.20915	0.0229245	0.210403	-6.25511	100.835	-0.000171396	-0.78149	356570	4232.95	1	37	0.00494503	0.0235027	0	-0.0182974	0.370242	0.220138	7.64687	6.82919e-06	7.23182e-06	8.51654e-06	7.86766e-06	6.87265e-06	5.95566e-06	0.172078	0.0431909	1.00333	1.10324e-05	3.27394e-05	5.13634e-06	1.74234e-05	6.05212e-06	7.91358e-06	4.72449	0.517843	4.75279	6.25511	4.23296e+06	3.8619e+07	3.88503e+07	-83.7449	0.0000000E+000	0.0000000E+000	0.0000000E+000	83.7449	0.0000000E+000	0.0000000E+000	0.0000000E+000	-83.7449	0.0000000E+000	0.0000000E+000	0.0000000E+000	-6.25511	0.0000000E+000	0.0000000E+000	0.0000000E+000	6.25511	9.12342	83.7449	-0.000266721
9.77784	0.214439	0.0140775	0.214901	-3.75597	107.318	-0.000176914	-0.80226	1.15625e+06	4961.68	1	37	0.0049336	0.0229576	0	-0.0196579	0.410697	0.203715	7.47381	9.39579e-06	5.49776e-06	9.14378e-06	5.50437e-06	9.71526e-06	5.65099e-06	0.320135	0.0547896	0.983318	6.28317e-06	2.40347e-05	8.19992e-06	6.72428e-05	9.47221e-06	6.28261e-06	4.64332	0.304826	4.65332	3.75597	4.96168e+06	7.55798e+07	7.57425e+07	-86.244	0.0000000E+000	0.0000000E+000	0.0000000E+000	86.244	0.0000000E+000	0.0000000E+000	0.0000000E+000	-86.244	0.0000000E+000	0.0000000E+000	0.0000000E+000	-3.75597	0.0000000E+000	0.0000000E+000	0.0000000E+000	3.75597	15.2327	86.244	-4.72989e-05
4.91352	0.217261	0.00907505	0.217451	-2.39187	115.529	-0.000166406	-0.771737	3.56926e+06	6216.62	1	37	0.00493638	0.0227011	0	-0.0215597	0.200884	0.1262	4.81362	3.83055e-06	2.18128e-06	1.33917e-06	7.13446e-06	3.65439e-06	2.99345e-06	0.128224	0.0777049	0.783218	7.64214e-06	2.10492e-05	5.98305e-06	1.5622e-05	4.14133e-06	3.16022e-06	4.59474	0.191923	4.59875	2.39187	6.21663e+06	1.48829e+08	1.48959e+08	-87.6081	0.0000000E+000	0.0000000E+000	0.0000000E+000	87.6081	0.0000000E+000	0.0000000E+000	0.0000000E+000	-87.6081	0.0000000E+000	0.0000000E+000	0.0000000E+000	-2.39187	0.0000000E+000	0.0000000E+000	0.0000000E+000	2.39187	23.9405	87.6081	-0.000361218
2.46646	0.218703	0.0069861	0.218815	-1.8296	129.168	-0.00017158	-0.812147	9.2366e+06	9415.2	1	37	0.00493438	0.0225505	0	-0.0242375	0.162102	0.0890044	2.64984	2.50392e-06	5.75751e-06	2.43894e-06	1.91328e-06	1.98432e-06	2.56806e-06	0.130194	0.0522538	0.694311	7.4809e-06	2.49702e-05	6.36181e-06	8.99101e-06	4.40597e-06	4.12161e-06	4.56775	0.145909	4.57008	1.8296	9.4152e+06	2.94747e+08	2.94897e+08	-88.1704	0.0000000E+000	0.0000000E+000	0.0000000E+000	88.1704	0.0000000E+000	0.0000000E+000	0.0000000E+000	-88.1704	0.0000000E+000	0.0000000E+000	0.0000000E+000	-1.8296	0.0000000E+000	0.0000000E+000	0.0000000E+000	1.8296	31.3054	88.1704	-0.000605622
1.2387	0.2198	0.00713774	0.219916	-1.85996	153.973	-0.000172742	-0.781844	1.80008e+07	18962.7	1	37	0.00493182	0.0224259	0	-0.0288392	0.149216	0.0913522	1.8674	2.0253e-06	4.01231e-06	3.35005e-06	3.58195e-06	1.61219e-06	1.57253e-06	0.122107	0.110365	0.65663	6.56749e-06	2.24049e-05	4.01831e-06	1.19173e-05	4.36271e-06	2.91777e-06	4.54479	0.147586	4.54719	1.85996	1.89626e+07	5.83938e+08	5.84246e+08	-88.14	0.0000000E+000	0.0000000E+000	0.0000000E+000	88.14	0.0000000E+000	0.0000000E+000	0.0000000E+000	-88.14	0.0000000E+000	0.0000000E+000	0.0000000E+000	-1.85996	0.0000000E+000	0.0000000E+000	0.0000000E+000	1.85996	30.7941	88.14	0.000320693
0.622163	0.221425	0.0109544	0.221696	-2.83223	202.858	-0.000157769	-0.720787	2.33523e+07	57014.9	1	38	0.00493387	0.0222552	0	-0.0413981	0.136035	0.0577494	1.21892	2.9987e-06	5.04946e-06	4.82267e-07	2.33979e-06	1.58608e-06	1.13017e-06	0.144494	0.0724775	0.594923	6.4515e-06	2.72598e-05	4.38763e-06	1.2163e-05	3.63638e-06	4.79227e-06	4.50518	0.222881	4.51069	2.83223	5.7015e+07	1.15247e+09	1.15387e+09	-87.1678	0.0000000E+000	0.0000000E+000	0.0000000E+000	87.1678	0.0000000E+000	0.0000000E+000	0.0000000E+000	-87.1678	0.0000000E+000	0.0000000E+000	0.0000000E+000	-2.83223	0.0000000E+000	0.0000000E+000	0.0000000E+000	2.83223	20.2134	87.1678	-0.00429088
0.3123	0.230797	0.0151711	0.231295	-3.76085	294.497	-0.000176127	-0.864377	3.35916e+07	144521	1	38	0.0049329	0.0213273	0	-0.0586607	0.101331	0.0705774	0.873231	1.24459e-06	3.88817e-06	9.77404e-07	2.20623e-06	8.58512e-07	4.37953e-07	0.143026	0.0926745	0.592905	5.02966e-06	1.7097e-05	6.8109e-06	1.52262e-05	5.4197e-06	1.63998e-05	4.31417	0.283586	4.32348	3.76085	1.44522e+08	2.19859e+09	2.20334e+09	-86.2392	0.0000000E+000	0.0000000E+000	0.0000000E+000	86.2392	0.0000000E+000	0.0000000E+000	0.0000000E+000	-86.2392	0.0000000E+000	0.0000000E+000	0.0000000E+000	-3.76085	0.0000000E+000	0.0000000E+000	0.0000000E+000	3.76085	15.2129	86.2392	-0.00231908
0.15689	0.239291	0.0115052	0.239568	-2.75267	475.014	-0.000180013	-0.888824	8.81724e+07	203358	1	38	0.00493039	0.0205804	0	-0.0984115	0.103735	0.0954211	0.6171	1.9489e-06	3.61279e-06	7.02479e-07	1.85389e-06	1.41768e-06	1.0885e-06	0.130405	0.155548	0.526801	7.11237e-06	1.93662e-05	2.54751e-06	1.57766e-05	4.36354e-06	2.1484e-06	4.16937	0.200464	4.17419	2.75267	2.03358e+08	4.22957e+09	4.23445e+09	-87.2473	0.0000000E+000	0.0000000E+000	0.0000000E+000	87.2473	0.0000000E+000	0.0000000E+000	0.0000000E+000	-87.2473	0.0000000E+000	0.0000000E+000	0.0000000E+000	-2.75267	0.0000000E+000	0.0000000E+000	0.0000000E+000	2.75267	20.7986	87.2473	-0.00829872
0.0787787	0.24251	0.00681413	0.242606	-1.60949	832.669	-0.000132555	-0.741608	2.96484e+08	233893	1	38	0.00492892	0.0203166	0	-0.175694	0.0968773	0.10773	0.445119	1.47808e-06	3.75604e-06	1.11166e-06	1.06133e-06	9.67812e-07	1.12644e-06	0.121471	0.179914	0.389524	6.42529e-06	1.90243e-05	4.35974e-06	1.18175e-05	3.99668e-06	2.89243e-06	4.12028	0.115773	4.12191	1.60949	2.33893e+08	8.32412e+09	8.3274e+09	-88.3905	0.0000000E+000	0.0000000E+000	0.0000000E+000	88.3905	0.0000000E+000	0.0000000E+000	0.0000000E+000	-88.3905	0.0000000E+000	0.0000000E+000	0.0000000E+000	-1.60949	0.0000000E+000	0.0000000E+000	0.0000000E+000	1.60949	35.5893	88.3905	-0.00837607
0.0395577	0.247294	0.00641936	0.247377	-1.48697	1542.99	-0.000123958	-0.701019	6.26754e+08	422048	1	38	0.00492876	0.0199241	0	-0.341543	0.111798	0.107851	0.331434	2.28996e-06	4.34547e-06	1.13166e-06	1.29298e-06	8.68509e-07	8.26127e-07	0.177996	0.174942	0.29644	2.11908e-05	2.05378e-05	1.06166e-05	1.42502e-05	3.7563e-06	4.10673e-06	4.04105	0.104899	4.04241	1.48697	4.22048e+08	1.62586e+10	1.62641e+10	-88.513	0.0000000E+000	0.0000000E+000	0.0000000E+000	88.513	0.0000000E+000	0.0000000E+000	0.0000000E+000	-88.513	0.0000000E+000	0.0000000E+000	0.0000000E+000	-1.48697	0.0000000E+000	0.0000000E+000	0.0000000E+000	1.48697	38.5231	88.513	-0.0198838
267462	0.0471512	-0.0429316	0.063768	42.3182	2376.08	-6.25718e-05	0.0810311	-13.8606	-6.28246	2	37	0.00169134	0.0265234	0	-0.485398	-1	-1	-1	0	0	0	0	0	0	-1	-1	-1	0	0	0	0	0	0	11.5954	-10.5578	15.6819	-42.3182	-6282.46	6899.93	9331.58	-132.318	0.0000000E+000	0.0000000E+000	0.0000000E+000	132.318	0.0000000E+000	0.0000000E+000	0.0000000E+000	-132.318	0.0000000E+000	0.0000000E+000	0.0000000E+000	42.3182	0.0000000E+000	0.0000000E+000	0.0000000E+000	-42.3182	1.09829	47.6818	2.17623e-05
134325	0.0538448	-0.0196044	0.0573027	20.0061	2382.97	-6.49018e-05	-0.266533	-60.438	-7.07404	2	37	0.00419891	0.073276	0	-0.485842	-1	-1	-1	0	0	0	0	0	0	-1	-1	-1	0	0	0	0	0	0	16.3981	-5.97041	17.4512	-20.0061	-7074.04	19429.3	20677.1	-110.006	0.0000000E+000	0.0000000E+000	0.0000000E+000	110.006	0.0000000E+000	0.0000000E+000	0.0000000E+000	-110.006	0.0000000E+000	0.0000000E+000	0.0000000E+000	20.0061	0.0000000E+000	0.0000000E+000	0.0000000E+000	-20.0061	2.74657	69.9939	-0.000163575
67454.7	0.0562097	-0.00682317	0.0566223	6.92115	2389.72	-6.11363e-05	-0.37405	-345.797	-5.02134	2	37	0.00509605	0.0900008	0	-0.487001	0.369912	0.266612	7.41561	5.61776e-06	3.76915e-06	6.50422e-06	4.56238e-06	8.31753e-06	1.18182e-05	0.156893	0.0455727	0.262733	3.30495e-05	0.000136337	8.44476e-06	7.76193e-06	5.01035e-06	3.44538e-06	17.5322	-2.1282	17.6609	-6.92115	-5021.34	41366.1	41669.7	-96.9211	0.0000000E+000	0.0000000E+000	0.0000000E+000	96.9211	0.0000000E+000	0.0000000E+000	0.0000000E+000	-96.9211	0.0000000E+000	0.0000000E+000	0.0000000E+000	6.92115	0.0000000E+000	0.0000000E+000	0.0000000E+000	-6.92115	8.23806	83.0789	-0.000173997
33875.8	0.058346	0.00149216	0.0583651	-1.46498	2396.62	-7.52101e-05	-0.362269	3148.59	2.05797	2	37	0.00509027	0.0872144	0	-0.487629	0.442094	0.293725	7.43863	1.17671e-05	8.88573e-06	8.81181e-06	6.33556e-06	4.59746e-06	1.00447e-05	0.178583	0.0133485	0.268313	5.7961e-06	0.000155119	4.92641e-06	1.04594e-05	4.41529e-06	3.22067e-06	17.1279	0.438034	17.1335	1.46498	2057.97	80470.3	80496.6	-88.535	0.0000000E+000	0.0000000E+000	0.0000000E+000	88.535	0.0000000E+000	0.0000000E+000	0.0000000E+000	-88.535	0.0000000E+000	0.0000000E+000	0.0000000E+000	-1.46498	0.0000000E+000	0.0000000E+000	0.0000000E+000	1.46498	39.1018	88.535	-0.000161666
17016.8	0.0618708	0.00770176	0.0623484	-7.09575	2403.51	-5.64761e-05	-0.286503	1214.38	18.5303	2	37	0.00508672	0.0815854	0	-0.488084	0.351167	0.200848	7.28032	1.15072e-05	6.78102e-06	4.86845e-06	5.75536e-06	6.83723e-06	4.39789e-06	0.174215	0.00754162	0.286288	1.26958e-05	0.000140904	8.7551e-06	8.07332e-06	3.31033e-06	3.80662e-06	15.9161	1.98125	16.0389	7.09575	18530.3	148860	150009	-82.9043	0.0000000E+000	0.0000000E+000	0.0000000E+000	82.9043	0.0000000E+000	0.0000000E+000	0.0000000E+000	-82.9043	0.0000000E+000	0.0000000E+000	0.0000000E+000	-7.09575	0.0000000E+000	0.0000000E+000	0.0000000E+000	7.09575	8.03334	82.9043	8.55605e-05
8544.66	0.0669414	0.0131238	0.0682158	-11.0921	2410.42	-0.000178405	-0.749775	1419.27	52.5311	2	37	0.00510699	0.0748653	0	-0.488843	0.404833	0.192416	7.25684	5.8614e-06	1.19996e-05	7.4512e-06	6.40423e-06	4.8326e-06	7.51471e-06	0.185471	0.0108121	0.313572	1.8761e-05	0.000136007	1.08927e-05	1.38429e-05	8.15632e-06	5.29903e-06	14.3855	2.82027	14.6594	11.0921	52531.1	267948	273049	-78.9079	0.0000000E+000	0.0000000E+000	0.0000000E+000	78.9079	0.0000000E+000	0.0000000E+000	0.0000000E+000	-78.9079	0.0000000E+000	0.0000000E+000	0.0000000E+000	-11.0921	0.0000000E+000	0.0000000E+000	0.0000000E+000	11.0921	5.10075	78.9079	-0.000205673
4291.37	0.0735637	0.0185511	0.0758668	-14.1536	2418	-0.000190988	-0.784597	1999.19	119.534	2	37	0.00508773	0.0670614	0	-0.490212	0.392626	0.219776	7.36173	8.10829e-06	7.14388e-06	8.89143e-06	7.47755e-06	8.47143e-06	4.27522e-06	0.146646	0.0764412	0.354694	2.15323e-05	9.52672e-05	3.16213e-06	9.04736e-06	1.90389e-06	5.48765e-06	12.7809	3.22304	13.181	14.1536	119534	474007	488846	-75.8464	0.0000000E+000	0.0000000E+000	0.0000000E+000	75.8464	0.0000000E+000	0.0000000E+000	0.0000000E+000	-75.8464	0.0000000E+000	0.0000000E+000	0.0000000E+000	-14.1536	0.0000000E+000	0.0000000E+000	0.0000000E+000	14.1536	3.96547	75.8464	-0.000302444
2154.31	0.0826275	0.0245032	0.0861842	-16.5177	2425.96	-0.000188881	-0.790683	3015	243.713	2	37	0.00510651	0.0592512	0	-0.492095	0.287723	0.166913	7.17239	3.58356e-06	6.13941e-06	5.61733e-06	2.76697e-06	6.06356e-06	7.89514e-06	0.094442	0.0711701	0.399887	2.26441e-05	5.03657e-05	4.41579e-06	4.38177e-06	2.65852e-06	4.13429e-06	11.1242	3.29889	11.6031	16.5177	243713	821828	857203	-73.4823	0.0000000E+000	0.0000000E+000	0.0000000E+000	73.4823	0.0000000E+000	0.0000000E+000	0.0000000E+000	-73.4823	0.0000000E+000	0.0000000E+000	0.0000000E+000	-16.5177	0.0000000E+000	0.0000000E+000	0.0000000E+000	16.5177	3.37211	73.4823	-0.000424232
1082.43	0.0945705	0.0310286	0.0995307	-18.1647	2433.93	-0.000189627	-0.780112	4738.7	460.542	2	37	0.00509621	0.0512024	0	-0.49369	0.386351	0.162231	7.42047	3.15659e-06	5.46824e-06	7.39117e-06	7.96777e-06	7.25557e-06	1.08826e-05	0.0481792	0.0931327	0.470341	1.21576e-05	1.53076e-05	4.28823e-06	1.19623e-05	6.80466e-06	3.84252e-06	9.54645	3.13219	10.0472	18.1647	460542	1.40366e+06	1.47728e+06	-71.8353	0.0000000E+000	0.0000000E+000	0.0000000E+000	71.8353	0.0000000E+000	0.0000000E+000	0.0000000E+000	-71.8353	0.0000000E+000	0.0000000E+000	0.0000000E+000	-18.1647	0.0000000E+000	0.0000000E+000	0.0000000E+000	18.1647	3.04785	71.8353	-0.000217968
543.435	0.109879	0.0375725	0.116125	-18.8778	2441.69	-0.000155365	-0.767549	7794.76	815.999	2	37	0.00524708	0.0451847	0	-0.495586	0.367281	0.148283	7.04372	5.42613e-06	6.41469e-06	7.43439e-06	6.38396e-06	8.40206e-06	5.31103e-06	0.0641544	0.0188998	0.512994	9.34928e-06	2.32934e-05	4.46109e-06	9.46083e-06	7.25407e-06	1.50047e-06	8.1482	2.78623	8.6114	18.8778	815999	2.38635e+06	2.52201e+06	-71.1222	0.0000000E+000	0.0000000E+000	0.0000000E+000	71.1222	0.0000000E+000	0.0000000E+000	0.0000000E+000	-71.1222	0.0000000E+000	0.0000000E+000	0.0000000E+000	-18.8778	0.0000000E+000	0.0000000E+000	0.0000000E+000	18.8778	2.92445	71.1222	-0.000209601
272.991	0.128507	0.0442714	0.135919	-19.0092	2448.55	-0.000160957	-0.793605	13168.9	1397.13	2	37	0.00538883	0.0396474	0	-0.497086	0.348247	0.204757	7.0138	5.7377e-06	8.45725e-06	3.61819e-06	8.63552e-06	9.17822e-06	5.72018e-06	0.103529	0.0204953	0.584074	6.64536e-06	3.12415e-05	4.08897e-06	1.78483e-05	8.58073e-06	1.53104e-05	6.95611	2.39643	7.35734	19.0092	1.39713e+06	4.05545e+06	4.28936e+06	-70.9908	0.0000000E+000	0.0000000E+000	0.0000000E+000	70.9908	0.0000000E+000	0.0000000E+000	0.0000000E+000	-70.9908	0.0000000E+000	0.0000000E+000	0.0000000E+000	-19.0092	0.0000000E+000	0.0000000E+000	0.0000000E+000	19.0092	2.9027	70.9908	-0.000197043
137.062	0.152863	0.0490276	0.160533	-17.7825	2455.19	-0.000170147	-0.846945	23684.5	2209.1	2	37	0.00527813	0.0328788	0	-0.4987	0.330561	0.176365	6.95266	7.77668e-06	6.33886e-06	4.87896e-06	5.8959e-06	5.60545e-06	9.57104e-06	0.15624	0.0582597	0.706169	7.32925e-06	3.89899e-05	9.68963e-06	2.81497e-05	6.32617e-06	3.05155e-06	5.93163	1.90244	6.22924	17.7825	2.2091e+06	6.88776e+06	7.23335e+06	-72.2175	0.0000000E+000	0.0000000E+000	0.0000000E+000	72.2175	0.0000000E+000	0.0000000E+000	0.0000000E+000	-72.2175	0.0000000E+000	0.0000000E+000	0.0000000E+000	-17.7825	0.0000000E+000	0.0000000E+000	0.0000000E+000	17.7825	3.1179	72.2175	-0.000262591
68.8326	0.180188	0.0452687	0.185787	-14.1026	2461.8	-0.000161852	-0.827236	51077.3	3032.43	2	37	0.00516871	0.0278205	0	-0.500274	0.387767	0.164745	7.09604	7.26682e-06	9.44861e-06	5.1584e-06	5.11056e-06	6.36898e-06	1.15974e-05	0.167439	0.0317944	0.842667	1.36254e-05	3.16528e-05	5.9991e-06	2.95374e-05	6.31822e-06	4.59942e-06	5.22027	1.31149	5.3825	14.1026	3.03243e+06	1.20703e+07	1.24454e+07	-75.8974	0.0000000E+000	0.0000000E+000	0.0000000E+000	75.8974	0.0000000E+000	0.0000000E+000	0.0000000E+000	-75.8974	0.0000000E+000	0.0000000E+000	0.0000000E+000	-14.1026	0.0000000E+000	0.0000000E+000	0.0000000E+000	14.1026	3.98041	75.8974	-0.000245199
34.5686	0.200097	0.0333826	0.202862	-9.47155	2468.48	-0.000152905	-0.769653	137917	3734.7	2	37	0.00511418	0.0252101	0	-0.501714	0.338853	0.315789	7.20284	8.26663e-06	5.41568e-06	5.36608e-06	3.44033e-06	7.70603e-06	6.28859e-06	0.17537	0.0312435	0.930308	2.70756e-06	2.76286e-05	1.33451e-05	2.87128e-05	3.2416e-06	1.1307e-05	4.86225	0.81118	4.92945	9.47155	3.7347e+06	2.2386e+07	2.26954e+07	-80.5285	0.0000000E+000	0.0000000E+000	0.0000000E+000	80.5285	0.0000000E+000	0.0000000E+000	0.0000000E+000	-80.5285	0.0000000E+000	0.0000000E+000	0.0000000E+000	-9.47155	0.0000000E+000	0.0000000E+000	0.0000000E+000	9.47155	5.99405	80.5285	-0.00025409
17.3611	0.210773	0.0214085	0.211857	-5.79971	2474.99	-0.000157788	-0.754615	428210	4372.61	2	37	0.00510126	0.0240787	0	-0.503026	0.367354	0.108555	7.27889	8.43525e-06	6.50595e-06	6.42945e-06	6.86898e-06	7.4534e-06	6.80358e-06	0.26194	0.0519626	0.940281	9.02741e-06	5.70116e-05	4.20568e-06	2.17227e-05	5.43141e-06	5.36194e-06	4.69599	0.476978	4.72016	5.79971	4.37261e+06	4.30497e+07	4.32712e+07	-84.2003	0.0000000E+000	0.0000000E+000	0.0000000E+000	84.2003	0.0000000E+000	0.0000000E+000	0.0000000E+000	-84.2003	0.0000000E+000	0.0000000E+000	0.0000000E+000	-5.79971	0.0000000E+000	0.0000000E+000	0.0000000E+000	5.79971	9.84531	84.2003	-0.00025469
8.71934	0.215516	0.0130595	0.215911	-3.46769	2481.58	-0.000150509	-0.739419	1.39768e+06	5113.46	2	37	0.00508927	0.0235712	0	-0.504243	0.32124	0.15831	5.00268	5.43004e-06	8.04818e-06	8.31255e-06	7.07575e-06	3.94894e-06	3.26205e-06	0.242742	0.085968	0.791048	7.26401e-06	2.70825e-05	8.98175e-06	1.57394e-05	4.42793e-05	9.17352e-06	4.62306	0.280142	4.63154	3.46769	5.11346e+06	8.43851e+07	8.45399e+07	-86.5323	0.0000000E+000	0.0000000E+000	0.0000000E+000	86.5323	0.0000000E+000	0.0000000E+000	0.0000000E+000	-86.5323	0.0000000E+000	0.0000000E+000	0.0000000E+000	-3.46769	0.0000000E+000	0.0000000E+000	0.0000000E+000	3.46769	16.5025	86.5323	-0.000164407
4.37921	0.217868	0.0087084	0.218042	-2.28895	2490.43	-0.00014439	-0.721715	4.17336e+06	6657.06	2	37	0.0050896	0.0233423	0	-0.506373	0.174876	0.11128	3.39827	4.11482e-06	3.59149e-06	8.36374e-07	3.45304e-06	2.68167e-06	4.28996e-06	0.126387	0.0482394	0.711198	8.53947e-06	2.27677e-05	5.69548e-06	1.37038e-05	4.72548e-06	3.17156e-06	4.58261	0.183171	4.58627	2.28895	6.65706e+06	1.66547e+08	1.6668e+08	-87.7111	0.0000000E+000	0.0000000E+000	0.0000000E+000	87.7111	0.0000000E+000	0.0000000E+000	0.0000000E+000	-87.7111	0.0000000E+000	0.0000000E+000	0.0000000E+000	-2.28895	0.0000000E+000	0.0000000E+000	0.0000000E+000	2.28895	25.0181	87.7111	-0.000589538
2.19946	0.219283	0.0068435	0.21939	-1.78754	2505.43	-0.000146007	-0.712951	1.05736e+07	10288.5	2	37	0.00509107	0.0232056	0	-0.508818	0.164194	0.0988693	2.44526	2.79001e-06	6.21261e-06	8.76075e-07	3.24227e-06	1.27709e-06	2.24411e-06	0.13412	0.115569	0.656564	9.0397e-06	2.52354e-05	4.88187e-06	1.2936e-05	2.94393e-06	4.17009e-06	4.55588	0.142183	4.5581	1.78754	1.02884e+07	3.29667e+08	3.29828e+08	-88.2125	0.0000000E+000	0.0000000E+000	0.0000000E+000	88.2125	0.0000000E+000	0.0000000E+000	0.0000000E+000	-88.2125	0.0000000E+000	0.0000000E+000	0.0000000E+000	-1.78754	0.0000000E+000	0.0000000E+000	0.0000000E+000	1.78754	32.0425	88.2125	-0.000597378
1.10471	0.220588	0.00750444	0.220716	-1.94846	2534.83	-0.000142498	-0.743381	1.9198e+07	22193.4	2	38	0.00508807	0.0230526	0	-0.514346	0.116055	0.0858414	1.60441	1.4542e-06	4.5518e-06	1.28916e-06	2.17589e-06	1.23038e-06	1.14358e-06	0.132059	0.0403066	0.580187	4.27721e-06	2.32181e-05	4.37695e-06	1.76244e-05	2.18305e-06	2.54899e-06	4.52809	0.154046	4.53071	1.94846	2.21934e+07	6.52362e+08	6.52739e+08	-88.0515	0.0000000E+000	0.0000000E+000	0.0000000E+000	88.0515	0.0000000E+000	0.0000000E+000	0.0000000E+000	-88.0515	0.0000000E+000	0.0000000E+000	0.0000000E+000	-1.94846	0.0000000E+000	0.0000000E+000	0.0000000E+000	1.94846	29.3944	88.0515	-3.65699e-05
0.554432	0.222863	0.0121767	0.223195	-3.1274	2587.31	-0.00014818	-0.696304	2.35745e+07	70166.8	2	38	0.00508569	0.0227858	0	-0.524044	0.124564	0.101824	1.14374	2.06416e-06	4.75173e-06	1.45475e-06	2.52958e-06	1.08608e-06	1.34231e-06	0.114167	0.0746991	0.576854	8.6633e-06	1.44424e-05	6.43197e-06	1.59312e-05	3.0074e-06	4.76621e-06	4.47371	0.244433	4.48038	3.1274	7.01668e+07	1.28422e+09	1.28614e+09	-86.8726	0.0000000E+000	0.0000000E+000	0.0000000E+000	86.8726	0.0000000E+000	0.0000000E+000	0.0000000E+000	-86.8726	0.0000000E+000	0.0000000E+000	0.0000000E+000	-3.1274	0.0000000E+000	0.0000000E+000	0.0000000E+000	3.1274	18.3024	86.8726	-0.00108079
0.278521	0.233155	0.0150548	0.23364	-3.69447	2689.85	-0.000135208	-0.668879	3.79566e+07	157596	2	38	0.00508605	0.0217688	0	-0.54933	0.0936993	0.0818961	0.797015	1.15575e-06	4.19919e-06	7.82609e-07	1.33588e-06	4.68464e-07	5.29414e-07	0.113928	0.0643866	0.57916	6.27474e-06	1.84246e-05	3.37353e-06	1.18701e-05	2.54016e-06	7.50403e-06	4.27119	0.275792	4.28009	3.69447	1.57596e+08	2.44069e+09	2.44577e+09	-86.3055	0.0000000E+000	0.0000000E+000	0.0000000E+000	86.3055	0.0000000E+000	0.0000000E+000	0.0000000E+000	-86.3055	0.0000000E+000	0.0000000E+000	0.0000000E+000	-3.69447	0.0000000E+000	0.0000000E+000	0.0000000E+000	3.69447	15.487	86.3055	-0.00674969
0.139919	0.240581	0.011315	0.240847	-2.69274	2892.08	-0.0001396	-0.713872	1.00529e+08	221878	2	38	0.00508457	0.0211112	0	-0.591349	0.103192	0.0550847	0.573941	1.13189e-06	4.51792e-06	7.51319e-07	1.52161e-06	1.12165e-06	1.10848e-06	0.130891	0.079649	0.488996	4.99799e-06	2.09851e-05	4.00836e-06	1.5862e-05	3.61175e-06	2.7504e-06	4.14743	0.195061	4.15201	2.69274	2.21878e+08	4.71761e+09	4.72283e+09	-87.3073	0.0000000E+000	0.0000000E+000	0.0000000E+000	87.3073	0.0000000E+000	0.0000000E+000	0.0000000E+000	-87.3073	0.0000000E+000	0.0000000E+000	0.0000000E+000	-2.69274	0.0000000E+000	0.0000000E+000	0.0000000E+000	2.69274	21.2622	87.3073	-0.01126
0.0702083	0.243378	0.00691095	0.243476	-1.62653	3293.07	-0.000131549	-0.661432	3.28015e+08	264276	2	38	0.00508405	0.0208811	0	-0.668735	0.124032	0.0942174	0.409671	2.64742e-06	4.7967e-06	5.43639e-07	2.6464e-06	1.23589e-06	4.71667e-07	0.144122	0.223188	0.357424	1.16859e-05	1.7772e-05	4.15545e-06	1.88404e-05	3.29263e-06	3.821e-06	4.10553	0.11658	4.10718	1.62653	2.64276e+08	9.30681e+09	9.31056e+09	-88.3735	0.0000000E+000	0.0000000E+000	0.0000000E+000	88.3735	0.0000000E+000	0.0000000E+000	0.0000000E+000	-88.3735	0.0000000E+000	0.0000000E+000	0.0000000E+000	-1.62653	0.0000000E+000	0.0000000E+000	0.0000000E+000	1.62653	35.2163	88.3735	-0.0260404
0.0352629	0.249916	0.00546178	0.249976	-1.25197	4089.57	-0.000152222	-0.649717	8.26357e+08	394493	2	38	0.00508373	0.0203369	0	-0.794171	0.108112	0.114291	0.307156	2.05492e-06	3.95682e-06	6.15427e-07	2.62471e-06	1.4569e-06	5.03654e-07	0.158374	0.23274	0.25817	1.09507e-05	2.39646e-05	6.03629e-06	1.27221e-05	5.37759e-06	5.7804e-06	3.99943	0.0874052	4.00038	1.25197	3.94493e+08	1.80509e+10	1.80552e+10	-88.748	0.0000000E+000	0.0000000E+000	0.0000000E+000	88.748	0.0000000E+000	0.0000000E+000	0.0000000E+000	-88.748	0.0000000E+000	0.0000000E+000	0.0000000E+000	-1.25197	0.0000000E+000	0.0000000E+000	0.0000000E+000	1.25197	45.7573	88.748	-0.0348203
238458	0.0489459	-0.0379169	0.0619144	37.7639	4750.34	-6.01671e-05	-0.475706	-17.6026	-6.60175	3	37	0.001963	0.0317051	0	-0.986719	-1	-1	-1	0	0	0	0	0	0	-1	-1	-1	0	0	0	0	0	0	12.7683	-9.89122	16.1513	-37.7639	-6601.75	8522.01	10780	-127.764	0.0000000E+000	0.0000000E+000	0.0000000E+000	127.764	0.0000000E+000	0.0000000E+000	0.0000000E+000	-127.764	0.0000000E+000	0.0000000E+000	0.0000000E+000	37.7639	0.0000000E+000	0.0000000E+000	0.0000000E+000	-37.7639	1.29087	52.2361	-0.000132545
119758	0.054352	-0.0168539	0.0569052	17.2281	4757.1	-5.50967e-05	-0.561056	-78.8525	-6.91695	3	37	0.00486401	0.0854757	0	-0.987942	-1	-1	-1	0	0	0	0	0	0	-1	-1	-1	0	0	0	0	0	0	16.7846	-5.20473	17.5731	-17.2281	-6916.95	22306.4	23354.2	-107.228	0.0000000E+000	0.0000000E+000	0.0000000E+000	107.228	0.0000000E+000	0.0000000E+000	0.0000000E+000	-107.228	0.0000000E+000	0.0000000E+000	0.0000000E+000	17.2281	0.0000000E+000	0.0000000E+000	0.0000000E+000	-17.2281	3.22489	72.7719	-0.00022413
60143.3	0.0565786	-0.00529672	0.056826	5.34827	4763.99	-3.53189e-05	-0.292105	-499.604	-4.34056	3	37	0.00510779	0.0898846	0	-0.988946	0.308175	0.202553	7.17636	6.67667e-06	5.83349e-06	4.91896e-06	5.38464e-06	7.70301e-06	5.63055e-06	0.149289	0.0305172	0.258021	1.66832e-05	0.000132045	1.09757e-05	3.0532e-06	8.84398e-06	5.93265e-06	17.521	-1.64026	17.5976	-5.34827	-4340.56	46365.1	46567.8	-95.3483	0.0000000E+000	0.0000000E+000	0.0000000E+000	95.3483	0.0000000E+000	0.0000000E+000	0.0000000E+000	-95.3483	0.0000000E+000	0.0000000E+000	0.0000000E+000	5.34827	0.0000000E+000	0.0000000E+000	0.0000000E+000	-5.34827	10.6818	84.6517	-0.000208333
30201.5	0.058937	0.0026969	0.0589987	-2.61997	4770.89	-4.83861e-05	-0.20947	1954.01	4.08292	3	37	0.00509355	0.0863333	0	-0.990463	0.409651	0.21306	7.25071	6.69315e-06	1.33438e-05	8.07216e-06	4.33142e-06	5.91887e-06	6.55882e-06	0.179688	0.0427083	0.272106	1.94914e-05	0.000153215	5.81653e-06	1.21692e-05	2.08354e-06	2.97612e-06	16.9318	0.774783	16.9495	2.61997	4082.92	89226.6	89320	-87.38	0.0000000E+000	0.0000000E+000	0.0000000E+000	87.38	0.0000000E+000	0.0000000E+000	0.0000000E+000	-87.38	0.0000000E+000	0.0000000E+000	0.0000000E+000	-2.61997	0.0000000E+000	0.0000000E+000	0.0000000E+000	2.61997	21.8536	87.38	-0.00014878
15170.4	0.0625852	0.0086109	0.0631748	-7.83396	4777.78	-6.2348e-05	-0.272191	1218.36	22.6353	3	37	0.00508241	0.08045	0	-0.991031	0.449472	0.18822	7.39628	5.18315e-06	1.50442e-05	7.13342e-06	6.31112e-06	6.96093e-06	1.03864e-05	0.174395	0.0442743	0.287344	1.11929e-05	0.000136742	7.68608e-06	2.75882e-05	3.70226e-06	2.79779e-06	15.6814	2.15755	15.8291	7.83396	22635.3	164516	166066	-82.166	0.0000000E+000	0.0000000E+000	0.0000000E+000	82.166	0.0000000E+000	0.0000000E+000	0.0000000E+000	-82.166	0.0000000E+000	0.0000000E+000	0.0000000E+000	-7.83396	0.0000000E+000	0.0000000E+000	0.0000000E+000	7.83396	7.26814	82.166	-0.000108202
7619.6	0.0679135	0.0139169	0.0693248	-11.5807	4784.71	-0.000167836	-0.713725	1500.88	60.4856	3	37	0.00509277	0.0734625	0	-0.991981	0.354471	0.213007	7.24462	1.09347e-05	4.36679e-06	4.93843e-06	5.50908e-06	6.28774e-06	7.49734e-06	0.175718	0.0376706	0.322451	1.17189e-05	0.00012743	5.41239e-06	1.40373e-05	5.22741e-06	3.90877e-06	14.1312	2.89577	14.4249	11.5807	60485.6	295167	301300	-78.4193	0.0000000E+000	0.0000000E+000	0.0000000E+000	78.4193	0.0000000E+000	0.0000000E+000	0.0000000E+000	-78.4193	0.0000000E+000	0.0000000E+000	0.0000000E+000	-11.5807	0.0000000E+000	0.0000000E+000	0.0000000E+000	11.5807	4.87995	78.4193	-0.000252797
3826.22	0.0749951	0.019558	0.0775034	-14.6166	4792.44	-0.000178237	-0.74516	2126.8	135.435	3	37	0.00509417	0.0657283	0	-0.993688	0.373286	0.158057	7.26024	9.52575e-06	8.58432e-06	5.85737e-06	5.42327e-06	7.96324e-06	5.85776e-06	0.131425	0.0313148	0.357804	1.89902e-05	8.35299e-05	4.8861e-06	6.36287e-06	3.84514e-06	4.87225e-06	12.4851	3.25598	12.9027	14.6166	135435	519327	536697	-75.3834	0.0000000E+000	0.0000000E+000	0.0000000E+000	75.3834	0.0000000E+000	0.0000000E+000	0.0000000E+000	-75.3834	0.0000000E+000	0.0000000E+000	0.0000000E+000	-14.6166	0.0000000E+000	0.0000000E+000	0.0000000E+000	14.6166	3.83451	75.3834	-0.000201914
1930.62	0.0843744	0.0255297	0.0881522	-16.8346	4800.42	-0.000195517	-0.796825	3229.08	270.834	3	37	0.00507217	0.0575388	0	-0.995172	0.320958	0.199364	7.11127	5.07068e-06	9.89707e-06	5.9111e-06	7.75452e-06	2.77972e-06	4.38267e-06	0.0829113	0.0243953	0.405883	1.44999e-05	4.39348e-05	5.76276e-06	3.54015e-06	6.93014e-06	4.28172e-06	10.8579	3.28533	11.344	16.8346	270834	895094	935171	-73.1655	0.0000000E+000	0.0000000E+000	0.0000000E+000	73.1655	0.0000000E+000	0.0000000E+000	0.0000000E+000	-73.1655	0.0000000E+000	0.0000000E+000	0.0000000E+000	-16.8346	0.0000000E+000	0.0000000E+000	0.0000000E+000	16.8346	3.30496	73.1655	-0.000390231
964.694	0.0970209	0.0321784	0.102218	-18.3489	4808.39	-0.000188825	-0.784095	5127.04	508.091	3	37	0.00508527	0.0497494	0	-0.997006	0.33298	0.203926	7.28958	3.4588e-06	7.39836e-06	7.56858e-06	7.55242e-06	2.7015e-06	7.96302e-06	0.0442518	0.0680961	0.469237	9.09879e-06	1.30891e-05	2.38933e-06	1.15178e-05	4.44747e-06	5.36862e-06	9.28563	3.07971	9.78302	18.3489	508091	1.53194e+06	1.614e+06	-71.6511	0.0000000E+000	0.0000000E+000	0.0000000E+000	71.6511	0.0000000E+000	0.0000000E+000	0.0000000E+000	-71.6511	0.0000000E+000	0.0000000E+000	0.0000000E+000	-18.3489	0.0000000E+000	0.0000000E+000	0.0000000E+000	18.3489	3.01509	71.6511	-0.000287281
484.535	0.112879	0.0389213	0.119401	-19.0244	4815.92	-0.000145989	-0.70228	8439.31	896.738	3	37	0.00502578	0.0420916	0	-0.998616	0.360344	0.182369	7.38329	5.63798e-06	5.80097e-06	6.32199e-06	8.60236e-06	8.3579e-06	5.75551e-06	0.0671728	0.024186	0.554545	5.46766e-06	2.55423e-05	4.84764e-06	5.1715e-06	7.14258e-06	2.70919e-06	7.91768	2.73005	8.37513	19.0244	896738	2.60071e+06	2.75097e+06	-70.9756	0.0000000E+000	0.0000000E+000	0.0000000E+000	70.9756	0.0000000E+000	0.0000000E+000	0.0000000E+000	-70.9756	0.0000000E+000	0.0000000E+000	0.0000000E+000	-19.0244	0.0000000E+000	0.0000000E+000	0.0000000E+000	19.0244	2.90019	70.9756	-0.000313419
243.364	0.132176	0.0455447	0.139803	-19.0127	4822.57	-0.000144311	-0.708384	14359	1523.94	3	37	0.00538655	0.0385296	0	-0.999795	0.401083	0.207815	6.88587	6.85849e-06	1.09257e-05	6.42868e-06	1.01119e-05	1.07466e-05	4.70381e-06	0.0976111	0.0807401	0.597279	6.50018e-06	3.00481e-05	3.01549e-06	1.93007e-05	6.00768e-06	4.63078e-06	6.76271	2.33027	7.15293	19.0127	1.52394e+06	4.42266e+06	4.67786e+06	-70.9873	0.0000000E+000	0.0000000E+000	0.0000000E+000	70.9873	0.0000000E+000	0.0000000E+000	0.0000000E+000	-70.9873	0.0000000E+000	0.0000000E+000	0.0000000E+000	-19.0127	0.0000000E+000	0.0000000E+000	0.0000000E+000	19.0127	2.90212	70.9873	-0.000174543
122.23	0.15758	0.0494607	0.16516	-17.4259	4829.19	-0.000147424	-0.755899	26325.9	2360.99	3	37	0.00525364	0.0318095	0	-1.00102	0.372082	0.196527	7.26039	3.70461e-06	7.76521e-06	7.79386e-06	7.27817e-06	6.22602e-06	9.57216e-06	0.153897	0.035696	0.744338	4.44951e-06	3.61083e-05	6.74849e-06	3.08465e-05	4.43799e-06	5.48004e-06	5.77686	1.81322	6.05475	17.4259	2.36099e+06	7.52204e+06	7.88386e+06	-72.5741	0.0000000E+000	0.0000000E+000	0.0000000E+000	72.5741	0.0000000E+000	0.0000000E+000	0.0000000E+000	-72.5741	0.0000000E+000	0.0000000E+000	0.0000000E+000	-17.4259	0.0000000E+000	0.0000000E+000	0.0000000E+000	17.4259	3.18596	72.5741	-0.000209158
61.3547	0.184401	0.0438298	0.189539	-13.3704	4835.8	-0.00013706	-0.714955	59183.7	3164.8	3	37	0.0051498	0.0271702	0	-1.00228	0.349071	0.158959	7.27386	7.74258e-06	7.56848e-06	5.99425e-06	7.73175e-06	6.09837e-06	6.69813e-06	0.153603	0.0576874	0.859679	7.35857e-06	2.48493e-05	1.95038e-06	3.17906e-05	2.88194e-06	5.26799e-06	5.13297	1.22004	5.27597	13.3704	3.1648e+06	1.3315e+07	1.36859e+07	-76.6296	0.0000000E+000	0.0000000E+000	0.0000000E+000	76.6296	0.0000000E+000	0.0000000E+000	0.0000000E+000	-76.6296	0.0000000E+000	0.0000000E+000	0.0000000E+000	-13.3704	0.0000000E+000	0.0000000E+000	0.0000000E+000	13.3704	4.20721	76.6296	-0.000206837
30.8185	0.203156	0.0312571	0.205546	-8.74682	4842.48	-0.000145579	-0.723348	165219	3820.66	3	37	0.00511212	0.0248709	0	-1.00369	0.341396	0.151744	7.19218	8.07747e-06	5.14708e-06	7.7855e-06	7.09685e-06	4.45047e-06	5.65641e-06	0.194483	0.0378799	0.944982	7.93689e-06	2.63644e-05	2.39782e-06	3.69417e-05	4.66526e-06	7.80273e-06	4.8085	0.739826	4.86508	8.74682	3.82066e+06	2.48324e+07	2.51246e+07	-81.2532	0.0000000E+000	0.0000000E+000	0.0000000E+000	81.2532	0.0000000E+000	0.0000000E+000	0.0000000E+000	-81.2532	0.0000000E+000	0.0000000E+000	0.0000000E+000	-8.74682	0.0000000E+000	0.0000000E+000	0.0000000E+000	8.74682	6.4995	81.2532	-0.000278044
15.4805	0.212657	0.0198901	0.213585	-5.34339	4849	-0.000134394	-0.621731	516890	4482.58	3	37	0.00509902	0.0238734	0	-1.00493	0.302359	0.137415	7.37281	5.82263e-06	5.69595e-06	6.0774e-06	6.73987e-06	4.61087e-06	6.74719e-06	0.184821	0.0638482	0.984014	1.2471e-05	3.61039e-05	5.80935e-06	1.49223e-05	5.81004e-06	4.30343e-06	4.66162	0.436007	4.68197	5.34339	4.48258e+06	4.79261e+07	4.81352e+07	-84.6566	0.0000000E+000	0.0000000E+000	0.0000000E+000	84.6566	0.0000000E+000	0.0000000E+000	0.0000000E+000	-84.6566	0.0000000E+000	0.0000000E+000	0.0000000E+000	-5.34339	0.0000000E+000	0.0000000E+000	0.0000000E+000	5.34339	10.6916	84.6566	-0.000218545
7.77364	0.216995	0.0122888	0.217343	-3.2413	4855.7	-0.000139968	-0.705174	1.66604e+06	5326.18	3	37	0.0050928	0.0234321	0	-1.00619	0.253116	0.138669	5.20961	5.46304e-06	8.51088e-06	3.87169e-06	4.7948e-06	3.30527e-06	2.3311e-06	0.161453	0.0918419	0.829226	6.60458e-06	2.96393e-05	4.00352e-06	1.57948e-05	1.23436e-05	6.96379e-06	4.59367	0.260148	4.60103	3.2413	5.32618e+06	9.40493e+07	9.42e+07	-86.7587	0.0000000E+000	0.0000000E+000	0.0000000E+000	86.7587	0.0000000E+000	0.0000000E+000	0.0000000E+000	-86.7587	0.0000000E+000	0.0000000E+000	0.0000000E+000	-3.2413	0.0000000E+000	0.0000000E+000	0.0000000E+000	3.2413	17.6579	86.7587	-0.000185892
3.90235	0.219033	0.0081335	0.219184	-2.12663	4865.29	-0.000127399	-0.632325	5.01438e+06	6904.86	3	37	0.00508945	0.02322	0	-1.00795	0.185278	0.112263	3.63805	2.37488e-06	5.42911e-06	3.09671e-06	4.0747e-06	2.4898e-06	2.28691e-06	0.139389	0.070703	0.727926	1.1359e-05	2.29316e-05	7.70818e-06	1.66613e-05	4.057e-06	3.81451e-06	4.55924	0.169301	4.56238	2.12663	6.90485e+06	1.85946e+08	1.86074e+08	-87.8734	0.0000000E+000	0.0000000E+000	0.0000000E+000	87.8734	0.0000000E+000	0.0000000E+000	0.0000000E+000	-87.8734	0.0000000E+000	0.0000000E+000	0.0000000E+000	-2.12663	0.0000000E+000	0.0000000E+000	0.0000000E+000	2.12663	26.9297	87.8734	-0.000684062
1.9595	0.220342	0.00685972	0.220448	-1.78317	4881.82	-0.000139152	-0.717164	1.18405e+07	11464.9	3	37	0.00509035	0.0230909	0	-1.01103	0.141304	0.106376	2.22188	2.83344e-06	4.03852e-06	1.90914e-06	3.88304e-06	1.6185e-06	1.49497e-06	0.124511	0.0733123	0.65875	9.02094e-06	2.2243e-05	1.81235e-06	1.46995e-05	2.94647e-06	2.93761e-06	4.53401	0.141154	4.53621	1.78317	1.14648e+07	3.68264e+08	3.68442e+08	-88.2168	0.0000000E+000	0.0000000E+000	0.0000000E+000	88.2168	0.0000000E+000	0.0000000E+000	0.0000000E+000	-88.2168	0.0000000E+000	0.0000000E+000	0.0000000E+000	-1.78317	0.0000000E+000	0.0000000E+000	0.0000000E+000	1.78317	32.1211	88.2168	-0.000390339
0.984192	0.221567	0.00768774	0.2217	-1.98721	4914.28	-0.000130897	-0.688099	2.1035e+07	25293.4	3	38	0.00508768	0.0229485	0	-1.01625	0.141586	0.068266	1.47981	2.22098e-06	4.9837e-06	1.83317e-06	1.88001e-06	3.11709e-06	1.81238e-06	0.11812	0.09188	0.581913	6.68727e-06	1.61589e-05	4.52848e-06	1.84833e-05	3.9532e-06	4.36433e-06	4.50789	0.156411	4.5106	1.98721	2.52934e+07	7.28976e+08	7.29415e+08	-88.0128	0.0000000E+000	0.0000000E+000	0.0000000E+000	88.0128	0.0000000E+000	0.0000000E+000	0.0000000E+000	-88.0128	0.0000000E+000	0.0000000E+000	0.0000000E+000	-1.98721	0.0000000E+000	0.0000000E+000	0.0000000E+000	1.98721	28.8208	88.0128	0.000499548
0.494494	0.224877	0.0132911	0.225269	-3.38246	4972.88	-0.0001479	-0.759841	2.42158e+07	84297.6	3	38	0.00508571	0.0225761	0	-1.0277	0.127328	0.0828139	1.0866	2.03054e-06	4.65598e-06	1.29044e-06	1.47563e-06	2.05086e-06	2.10647e-06	0.134757	0.0893049	0.585632	5.67024e-06	2.04684e-05	1.3722e-05	1.31408e-05	7.35596e-06	4.63859e-06	4.4314	0.261912	4.43913	3.38246	8.42976e+07	1.42626e+09	1.42875e+09	-86.6175	0.0000000E+000	0.0000000E+000	0.0000000E+000	86.6175	0.0000000E+000	0.0000000E+000	0.0000000E+000	-86.6175	0.0000000E+000	0.0000000E+000	0.0000000E+000	-3.38246	0.0000000E+000	0.0000000E+000	0.0000000E+000	3.38246	16.9194	86.6175	0.000147492
0.24841	0.235447	0.0146143	0.2359	-3.55182	5087.65	-0.000146531	-0.748602	4.38402e+07	168257	3	38	0.0050861	0.0215604	0	-1.05174	0.124521	0.110286	0.7551	1.73237e-06	5.17383e-06	1.09903e-06	2.23925e-06	1.22911e-06	7.85346e-07	0.131061	0.0927956	0.575001	4.49774e-06	1.94361e-05	3.02246e-06	1.83255e-05	3.13414e-06	3.09955e-06	4.23093	0.262616	4.23908	3.55182	1.68257e+08	2.71074e+09	2.71595e+09	-86.4482	0.0000000E+000	0.0000000E+000	0.0000000E+000	86.4482	0.0000000E+000	0.0000000E+000	0.0000000E+000	-86.4482	0.0000000E+000	0.0000000E+000	0.0000000E+000	-3.55182	0.0000000E+000	0.0000000E+000	0.0000000E+000	3.55182	16.1107	86.4482	-0.00734653
0.221474	0.23679	0.0141367	0.237211	-3.41658	5115.53	-0.000151278	-0.759965	5.08334e+07	180539	3	38	0.00508629	0.021442	0	-1.06182	0.111524	0.0428835	0.717558	2.16107e-06	4.24837e-06	1.06626e-06	2.06681e-06	1.11117e-06	1.10589e-06	0.122802	0.0420135	0.553764	5.5263e-06	1.85802e-05	3.08154e-06	1.68511e-05	3.2993e-06	2.49864e-06	4.20815	0.251232	4.21565	3.41658	1.8054e+08	3.02404e+09	3.02943e+09	-86.5834	0.0000000E+000	0.0000000E+000	0.0000000E+000	86.5834	0.0000000E+000	0.0000000E+000	0.0000000E+000	-86.5834	0.0000000E+000	0.0000000E+000	0.0000000E+000	-3.41658	0.0000000E+000	0.0000000E+000	0.0000000E+000	3.41658	16.75	86.5834	-0.0100827