File: Python/Experiments/IRFB/FirstCell/Data/240405-EIS-50mM_FeCl2FeCl3-1M_HCl-30mLmin-LowFreq_6ppd_C15.mpt
EC-Lab ASCII FILE
Nb header lines : 66

Potentio Electrochemical Impedance Spectroscopy

Run on channel : 15 (SN 19485)
User :
Electrode connection : standard
Potential control : Ewe
Ewe ctrl range : min = -1.00 V, max = 1.00 V
Ewe,I filtering : <None>
Safety Limits :
	Do not start on E overload
Channel : Floating
Acquisition started on : 04/05/2024 12:36:46.312
Loaded Setting File :  NONE
Saved on :
	File : 240405-EIS-50mM_FeCl2FeCl3-1M_HCl-30mLmin-LowFreq_6ppd_C15.mpr
	Directory : C:\Data\mathias\IRFB\
	Host : 192.168.0.1
Device : VMP-300 (SN 0826)
Address : USB
EC-Lab for windows v11.52 (software)
Internet server v11.52 (firmware)
Command interpretor v11.52 (firmware)
Electrode material :
Initial state :
Electrolyte :
Comments :
Cable : special
Electrode surface area : 0.001 cm²
Characteristic mass : 0.001 g
Equivalent Weight : 0.000 g/eq.
Density : 0.000 g/cm3
Volume (V) : 0.001 cm³
Record EIS quality indicators
Cycle Definition : Charge/Discharge alternance
Mode                Single sine
E (V)               0.0000
vs.                 Eoc
tE (h:m:s)          0:00:0.0000
record              0
dI                  0.000
unit dI             mA
dt (s)              0.000
fi                  920.000
unit fi             kHz
ff                  25.000
unit ff             mHz
Nd                  6
Points              per decade
spacing             Logarithmic
Va (mV)             5.0
pw                  0.10
Na                  3
corr                0
E range min (V)     -1.000
E range max (V)     1.000
I Range             Auto
Bandwidth           8
nc cycles           2
goto Ns'            0
nr cycles           0
inc. cycle          0

freq/Hz	Re(Z)/Ohm	-Im(Z)/Ohm	|Z|/Ohm	Phase(Z)/deg	time/s	<Ewe>/V	<I>/mA	Cs/µF	Cp/µF	cycle number	I Range	|Ewe|/V	|I|/A	Ns	(Q-Qo)/mA.h	THD Ewe/%	NSD Ewe/%	NSR Ewe/%	|Ewe h2|/V	|Ewe h3|/V	|Ewe h4|/V	|Ewe h5|/V	|Ewe h6|/V	|Ewe h7|/V	THD I/%	NSD I/%	NSR I/%	|I h2|/A	|I h3|/A	|I h4|/A	|I h5|/A	|I h6|/A	|I h7|/A	Re(Y)/Ohm-1	Im(Y)/Ohm-1	|Y|/Ohm-1	Phase(Y)/deg	Re(C)/nF	Im(C)/nF	|C|/nF	Phase(C)/deg	Re(M)	Im(M)	|M|	Phase(M)/deg	Re(Permittivity)	Im(Permittivity)	|Permittivity|	Phase(Permittivity)/deg	Re(Resistivity)/Ohm.cm	Im(Resistivity)/Ohm.cm	|Resistivity|/Ohm.cm	Phase(Resistivity)/deg	Re(Conductivity)/mS/cm	Im(Conductivity)/mS/cm	|Conductivity|/mS/cm	Phase(Conductivity)/deg	Tan(Delta)	Loss Angle(Delta)/deg	dq/mA.h
920001	-0.121266	-0.286685	0.311278	112.928	1.82249	-0.000105091	-0.619051	-0.60343	-0.511847	1	37	0.000907285	0.00291471	0	-0.000284302	-1	-1	-1	0	0	0	0	0	0	-1	-1	-1	0	0	0	0	0	0	-1.25154	-2.95875	3.21256	-112.928	-511.847	-216.509	555.755	157.072	0.0000000E+000	0.0000000E+000	0.0000000E+000	-157.072	0.0000000E+000	0.0000000E+000	0.0000000E+000	157.072	0.0000000E+000	0.0000000E+000	0.0000000E+000	112.928	0.0000000E+000	0.0000000E+000	0.0000000E+000	-112.928	0.422995	22.9281	-0.000284302
424158	0.0293533	-0.0709676	0.0767986	67.5292	4.11748	-0.000109677	-0.58274	-5.28729	-4.51489	1	37	0.000974971	0.0126952	0	-0.000658171	-1	-1	-1	0	0	0	0	0	0	-1	-1	-1	0	0	0	0	0	0	4.97681	-12.0325	13.0211	-67.5292	-4514.89	1867.43	4885.85	-157.529	0.0000000E+000	0.0000000E+000	0.0000000E+000	157.529	0.0000000E+000	0.0000000E+000	0.0000000E+000	-157.529	0.0000000E+000	0.0000000E+000	0.0000000E+000	67.5292	0.0000000E+000	0.0000000E+000	0.0000000E+000	-67.5292	0.413616	22.4708	-0.000183291
195554	0.0516031	-0.0304201	0.0599021	30.5194	6.41148	-0.000103563	-0.591859	-26.7543	-6.8997	1	37	0.00256466	0.0428143	0	-0.00106913	-1	-1	-1	0	0	0	0	0	0	-1	-1	-1	0	0	0	0	0	0	14.3811	-8.47767	16.6939	-30.5194	-6899.71	11704.3	13586.6	-120.519	0.0000000E+000	0.0000000E+000	0.0000000E+000	120.519	0.0000000E+000	0.0000000E+000	0.0000000E+000	-120.519	0.0000000E+000	0.0000000E+000	0.0000000E+000	30.5194	0.0000000E+000	0.0000000E+000	0.0000000E+000	-30.5194	1.69635	59.4806	-0.000206045
90159.2	0.0555707	-0.0113644	0.0567208	11.5578	8.70849	-0.000103768	-0.584469	-155.333	-6.23551	1	37	0.00522706	0.0921541	0	-0.00140196	0.482546	0.147165	7.12914	2.37071e-06	1.37622e-05	7.03584e-06	5.55718e-06	1.42454e-05	1.04004e-05	0.137582	0.0502502	0.258622	1.21269e-05	0.00012585	4.99959e-06	4.12917e-06	4.65e-06	3.61648e-06	17.2727	-3.53234	17.6302	-11.5578	-6235.51	30490.9	31122	-101.558	0.0000000E+000	0.0000000E+000	0.0000000E+000	101.558	0.0000000E+000	0.0000000E+000	0.0000000E+000	-101.558	0.0000000E+000	0.0000000E+000	0.0000000E+000	11.5578	0.0000000E+000	0.0000000E+000	0.0000000E+000	-11.5578	4.88989	78.4422	-0.000140702
41586.2	0.0577656	-0.0006746	0.0577696	0.669082	11.0055	-0.000106974	-0.579258	-5673.15	-0.773603	1	37	0.00538616	0.0932353	0	-0.00183925	0.361314	0.111083	6.9296	7.94809e-06	1.00419e-05	4.8533e-06	8.11948e-06	5.64612e-06	4.12429e-06	0.201273	0.0457794	0.255686	1.02301e-05	0.000187013	5.64091e-06	7.98125e-06	5.07894e-06	2.49617e-06	17.309	-0.202138	17.3101	-0.669082	-773.604	66243.2	66247.8	-90.6691	0.0000000E+000	0.0000000E+000	0.0000000E+000	90.6691	0.0000000E+000	0.0000000E+000	0.0000000E+000	-90.6691	0.0000000E+000	0.0000000E+000	0.0000000E+000	0.669082	0.0000000E+000	0.0000000E+000	0.0000000E+000	-0.669082	85.6295	89.3309	-0.000243525
19160.1	0.0612649	0.00671626	0.061632	-6.25616	13.3025	-0.000107216	-0.59424	1236.79	14.6872	1	37	0.00537244	0.0871697	0	-0.002382	0.479136	0.278782	6.80047	6.75752e-06	1.29579e-05	1.06297e-05	8.48088e-06	4.62973e-06	1.35725e-05	0.21161	0.044237	0.267583	1.83653e-05	0.000182686	9.12232e-06	9.6301e-06	6.76322e-06	7.19058e-06	16.1287	1.76814	16.2253	6.25616	14687.2	133974	134777	-83.7438	0.0000000E+000	0.0000000E+000	0.0000000E+000	83.7438	0.0000000E+000	0.0000000E+000	0.0000000E+000	-83.7438	0.0000000E+000	0.0000000E+000	0.0000000E+000	-6.25616	0.0000000E+000	0.0000000E+000	0.0000000E+000	6.25616	9.12188	83.7438	-0.000238726
8836.39	0.0666657	0.0129416	0.0679103	-10.986	15.6069	-0.000217681	-1.0462	1391.73	50.5433	1	37	0.00545038	0.0802585	0	-0.00286562	0.31435	0.143094	6.96364	4.45799e-06	8.16953e-06	7.60359e-06	5.05044e-06	5.49484e-06	7.83956e-06	0.209519	0.0587978	0.292542	1.82366e-05	0.000165924	1.05365e-05	1.60859e-05	5.10482e-06	1.63101e-06	14.4554	2.8062	14.7253	10.986	50543.3	260362	265222	-79.014	0.0000000E+000	0.0000000E+000	0.0000000E+000	79.014	0.0000000E+000	0.0000000E+000	0.0000000E+000	-79.014	0.0000000E+000	0.0000000E+000	0.0000000E+000	-10.986	0.0000000E+000	0.0000000E+000	0.0000000E+000	10.986	5.15126	79.014	-0.000132983
4073.69	0.0743536	0.0189472	0.0767297	-14.2962	18.2248	-0.00023004	-1.06948	2061.99	125.733	1	37	0.00538869	0.0702296	0	-0.00367741	0.556736	0.330554	6.90296	1.47408e-05	1.65702e-05	1.59314e-05	6.07314e-06	6.84035e-06	2.50713e-06	0.158556	0.058852	0.335853	2.12174e-05	0.00010827	6.77911e-06	8.81771e-06	7.68281e-06	2.90345e-06	12.6292	3.21824	13.0328	14.2962	125733	493408	509176	-75.7038	0.0000000E+000	0.0000000E+000	0.0000000E+000	75.7038	0.0000000E+000	0.0000000E+000	0.0000000E+000	-75.7038	0.0000000E+000	0.0000000E+000	0.0000000E+000	-14.2962	0.0000000E+000	0.0000000E+000	0.0000000E+000	14.2962	3.92425	75.7038	-0.000559336
1878.19	0.0850301	0.0257113	0.0888324	-16.8242	20.882	-0.000221875	-1.05731	3295.76	276.096	1	37	0.00538456	0.0606148	0	-0.00431362	0.374431	0.136468	6.89883	1.14118e-05	4.44119e-06	6.69227e-06	4.59869e-06	9.17675e-06	8.07586e-06	0.0952859	0.0683169	0.38964	1.91821e-05	5.2964e-05	2.65061e-06	8.94176e-06	6.07705e-06	4.36386e-06	10.7753	3.25822	11.2572	16.8242	276096	913082	953912	-73.1758	0.0000000E+000	0.0000000E+000	0.0000000E+000	73.1758	0.0000000E+000	0.0000000E+000	0.0000000E+000	-73.1758	0.0000000E+000	0.0000000E+000	0.0000000E+000	-16.8242	0.0000000E+000	0.0000000E+000	0.0000000E+000	16.8242	3.30712	73.1758	-0.000240096
865.832	0.0994791	0.0331087	0.104844	-18.4085	23.5386	-0.000228977	-1.10242	5551.93	553.658	1	37	0.00532114	0.0507529	0	-0.00503939	0.308003	0.196852	6.90269	4.96328e-06	6.94043e-06	9.96036e-06	6.67495e-06	5.04734e-06	3.1938e-06	0.050052	0.0332608	0.45816	1.58525e-05	1.5512e-05	3.75069e-06	9.26595e-06	5.44345e-06	2.90534e-06	9.04991	3.012	9.53798	18.4085	553658	1.66353e+06	1.75325e+06	-71.5915	0.0000000E+000	0.0000000E+000	0.0000000E+000	71.5915	0.0000000E+000	0.0000000E+000	0.0000000E+000	-71.5915	0.0000000E+000	0.0000000E+000	0.0000000E+000	-18.4085	0.0000000E+000	0.0000000E+000	0.0000000E+000	18.4085	3.00462	71.5915	-0.000368553
399.106	0.117928	0.0403676	0.124646	-18.8964	26.1972	-0.000205154	-1.05299	9878.67	1036.11	1	37	0.00507982	0.0407539	0	-0.00590148	0.332973	0.130736	7.32369	9.89834e-06	3.09033e-06	5.86756e-06	5.72713e-06	7.9729e-06	5.33753e-06	0.067678	0.0150732	0.575374	7.94224e-06	2.24267e-05	2.73605e-06	1.03768e-05	6.12526e-06	5.36148e-06	7.59033	2.59822	8.02271	18.8964	1.03611e+06	3.02686e+06	3.19929e+06	-71.1036	0.0000000E+000	0.0000000E+000	0.0000000E+000	71.1036	0.0000000E+000	0.0000000E+000	0.0000000E+000	-71.1036	0.0000000E+000	0.0000000E+000	0.0000000E+000	-18.8964	0.0000000E+000	0.0000000E+000	0.0000000E+000	18.8964	2.92136	71.1036	-0.000399698
183.999	0.141844	0.047118	0.149465	-18.3756	28.4129	-0.000211604	-1.07968	18357.7	1824.37	1	37	0.00517369	0.0346147	0	-0.00649861	0.669382	0.150943	7.2225	8.2968e-06	2.79657e-05	9.0462e-06	7.91667e-06	8.78459e-06	6.01316e-06	0.129296	0.0329455	0.667788	4.65947e-06	3.54726e-05	2.54055e-06	2.45562e-05	7.04151e-06	5.02861e-06	6.34938	2.10915	6.69052	18.3756	1.82437e+06	5.49207e+06	5.78716e+06	-71.6244	0.0000000E+000	0.0000000E+000	0.0000000E+000	71.6244	0.0000000E+000	0.0000000E+000	0.0000000E+000	-71.6244	0.0000000E+000	0.0000000E+000	0.0000000E+000	-18.3756	0.0000000E+000	0.0000000E+000	0.0000000E+000	18.3756	3.0104	71.6244	-0.000321614
84.8643	0.172122	0.0464623	0.178282	-15.1063	30.6271	-0.000176653	-1.0352	40364	2741.44	1	37	0.00503558	0.028245	0	-0.00714086	0.350559	0.273138	7.54273	7.12602e-06	5.68917e-06	5.02541e-06	5.92076e-06	8.97137e-06	6.22581e-06	0.174962	0.0204945	0.836773	1.00402e-05	3.5078e-05	6.40359e-06	3.05886e-05	7.06405e-06	6.38706e-06	5.41525	1.46179	5.60908	15.1063	2.74144e+06	1.01558e+07	1.05193e+07	-74.8937	0.0000000E+000	0.0000000E+000	0.0000000E+000	74.8937	0.0000000E+000	0.0000000E+000	0.0000000E+000	-74.8937	0.0000000E+000	0.0000000E+000	0.0000000E+000	-15.1063	0.0000000E+000	0.0000000E+000	0.0000000E+000	15.1063	3.70454	74.8937	-0.000312534
39.1114	0.196211	0.0346859	0.199254	-10.0251	32.8713	-0.000204241	-1.10348	117318	3555.15	1	37	0.00495846	0.0248852	0	-0.00775766	0.414249	0.187088	7.49448	5.27875e-06	7.093e-06	5.3017e-06	1.13516e-05	5.93283e-06	8.26609e-06	0.178119	0.063408	0.937524	9.39113e-06	2.27307e-05	2.30529e-05	2.68817e-05	3.89073e-06	8.60364e-06	4.9421	0.873657	5.01873	10.0251	3.55515e+06	2.01108e+07	2.04226e+07	-79.9749	0.0000000E+000	0.0000000E+000	0.0000000E+000	79.9749	0.0000000E+000	0.0000000E+000	0.0000000E+000	-79.9749	0.0000000E+000	0.0000000E+000	0.0000000E+000	-10.0251	0.0000000E+000	0.0000000E+000	0.0000000E+000	10.0251	5.6568	79.9749	-0.000301545
18.0427	0.208987	0.0213492	0.210075	-5.83284	35.1155	-0.000206786	-1.07479	413178	4267.28	1	37	0.00494069	0.0235187	0	-0.00853548	0.237761	0.192275	5.18349	6.93303e-06	5.54501e-06	3.01279e-06	4.49964e-06	2.20786e-06	3.16754e-06	0.129535	0.0316781	0.833813	4.87805e-06	2.13709e-05	5.03534e-06	1.75462e-05	4.63473e-06	7.63263e-06	4.73556	0.483763	4.7602	5.83284	4.26728e+06	4.17724e+07	4.19898e+07	-84.1672	0.0000000E+000	0.0000000E+000	0.0000000E+000	84.1672	0.0000000E+000	0.0000000E+000	0.0000000E+000	-84.1672	0.0000000E+000	0.0000000E+000	0.0000000E+000	-5.83284	0.0000000E+000	0.0000000E+000	0.0000000E+000	5.83284	9.789	84.1672	-0.000415104
8.3112	0.214353	0.012268	0.214704	-3.27562	37.3334	-0.000202862	-1.09435	1.56093e+06	5096.26	1	37	0.00493677	0.0229934	0	-0.00911367	0.30634	0.0810865	5.3362	4.30992e-06	8.51182e-06	4.59543e-06	4.36713e-06	5.53628e-06	6.61187e-06	0.35343	0.0499071	0.777788	8.17129e-06	2.34691e-05	2.86899e-06	1.29583e-05	7.57594e-05	6.12542e-06	4.64997	0.266131	4.65758	3.27562	5.09625e+06	8.90444e+07	8.91902e+07	-86.7244	0.0000000E+000	0.0000000E+000	0.0000000E+000	86.7244	0.0000000E+000	0.0000000E+000	0.0000000E+000	-86.7244	0.0000000E+000	0.0000000E+000	0.0000000E+000	-3.27562	0.0000000E+000	0.0000000E+000	0.0000000E+000	3.27562	17.4725	86.7244	-0.000180223
3.83341	0.216852	0.00799826	0.216999	-2.11231	40.8107	-0.000202876	-1.09128	5.19086e+06	7052.03	1	37	0.00493582	0.0227458	0	-0.0100429	0.169361	0.1187	3.97985	4.97629e-06	3.34936e-06	2.00025e-06	3.58386e-06	2.00725e-06	2.2373e-06	0.122288	0.0885007	0.733261	5.98002e-06	2.21947e-05	4.0693e-06	1.30646e-05	3.21295e-06	3.32997e-06	4.60518	0.169855	4.60831	2.11231	7.05202e+06	1.91197e+08	1.91327e+08	-87.8877	0.0000000E+000	0.0000000E+000	0.0000000E+000	87.8877	0.0000000E+000	0.0000000E+000	0.0000000E+000	-87.8877	0.0000000E+000	0.0000000E+000	0.0000000E+000	-2.11231	0.0000000E+000	0.0000000E+000	0.0000000E+000	2.11231	27.1124	87.8877	-0.000283702
1.76753	0.218244	0.00666434	0.218345	-1.74906	47.3488	-0.000200569	-1.0742	1.35113e+07	12587	1	37	0.00493595	0.0226062	0	-0.0114964	0.167902	0.0798915	2.15712	1.96418e-06	5.47718e-06	2.72923e-06	2.31815e-06	2.87543e-06	1.86935e-06	0.118293	0.0997945	0.669384	9.50545e-06	1.96096e-05	6.69237e-06	1.23437e-05	3.12784e-06	3.59651e-06	4.57777	0.139788	4.5799	1.74906	1.2587e+07	4.12199e+08	4.12391e+08	-88.2509	0.0000000E+000	0.0000000E+000	0.0000000E+000	88.2509	0.0000000E+000	0.0000000E+000	0.0000000E+000	-88.2509	0.0000000E+000	0.0000000E+000	0.0000000E+000	-1.74906	0.0000000E+000	0.0000000E+000	0.0000000E+000	1.74906	32.748	88.2509	-0.000502797
0.814483	0.219443	0.00859001	0.219611	-2.24168	63.1299	-0.000191659	-0.990615	2.27481e+07	34803.5	1	38	0.00493514	0.0224722	0	-0.015493	0.108467	0.0678791	1.38821	2.92003e-06	3.03986e-06	1.1675e-06	1.06644e-06	1.84027e-06	1.52586e-06	0.127441	0.0582225	0.595178	1.2006e-05	1.72006e-05	5.75371e-06	1.64682e-05	4.72762e-06	5.17089e-06	4.55002	0.178109	4.5535	2.24168	3.48035e+07	8.89102e+08	8.89782e+08	-87.7583	0.0000000E+000	0.0000000E+000	0.0000000E+000	87.7583	0.0000000E+000	0.0000000E+000	0.0000000E+000	-87.7583	0.0000000E+000	0.0000000E+000	0.0000000E+000	-2.24168	0.0000000E+000	0.0000000E+000	0.0000000E+000	2.24168	25.5463	87.7583	-0.000851476
0.375592	0.226755	0.014855	0.227241	-3.74815	91.0617	-0.000196124	-0.98388	2.85254e+07	121899	1	38	0.00493056	0.0216975	0	-0.0269835	0.103782	0.0700372	0.945551	1.33641e-06	3.80042e-06	1.71559e-06	1.68954e-06	1.43573e-06	1.04179e-06	0.149694	0.110971	0.612752	1.38684e-05	1.50065e-05	6.6863e-06	1.74918e-05	5.3583e-06	5.87882e-06	4.3912	0.287672	4.40061	3.74815	1.21899e+08	1.86075e+09	1.86473e+09	-86.2518	0.0000000E+000	0.0000000E+000	0.0000000E+000	86.2518	0.0000000E+000	0.0000000E+000	0.0000000E+000	-86.2518	0.0000000E+000	0.0000000E+000	0.0000000E+000	-3.74815	0.0000000E+000	0.0000000E+000	0.0000000E+000	3.74815	15.2646	86.2518	-0.0066115
0.173225	0.237788	0.0122918	0.238106	-2.9591	150.883	-0.000189131	-0.967989	7.47475e+07	199198	1	38	0.00493003	0.0207052	0	-0.0362471	0.112778	0.0504629	0.657461	2.21348e-06	3.85127e-06	8.86077e-07	2.21001e-06	1.34551e-06	1.6322e-06	0.138668	0.0727761	0.535966	6.66427e-06	1.91447e-05	5.36516e-06	1.82021e-05	4.1588e-06	3.04672e-06	4.19421	0.216807	4.19981	2.9591	1.99198e+08	3.85355e+09	3.8587e+09	-87.0409	0.0000000E+000	0.0000000E+000	0.0000000E+000	87.0409	0.0000000E+000	0.0000000E+000	0.0000000E+000	-87.0409	0.0000000E+000	0.0000000E+000	0.0000000E+000	-2.9591	0.0000000E+000	0.0000000E+000	0.0000000E+000	2.9591	19.3453	87.0409	-0.00483818
0.0798926	0.242044	0.00662506	0.242135	-1.56787	279.84	-0.000186464	-0.937016	3.00693e+08	225107	1	38	0.00492946	0.0203583	0	-0.071461	0.115227	0.121885	0.450277	1.9051e-06	4.43335e-06	7.91351e-07	2.08922e-06	1.27255e-06	6.59875e-07	0.137035	0.214456	0.386003	1.14056e-05	1.69398e-05	5.2242e-06	1.56225e-05	2.99113e-06	1.96759e-06	4.12838	0.112999	4.12993	1.56787	2.25106e+08	8.2242e+09	8.22728e+09	-88.4321	0.0000000E+000	0.0000000E+000	0.0000000E+000	88.4321	0.0000000E+000	0.0000000E+000	0.0000000E+000	-88.4321	0.0000000E+000	0.0000000E+000	0.0000000E+000	-1.56787	0.0000000E+000	0.0000000E+000	0.0000000E+000	1.56787	36.5347	88.4321	-0.023471
0.0368053	0.247571	0.00590445	0.247642	-1.36622	559.031	-0.000207144	-1.0316	7.3237e+08	416335	1	38	0.00493103	0.019912	0	-0.176591	0.109339	0.122635	0.322409	2.34515e-06	4.17298e-06	9.8109e-07	1.5511e-06	9.16305e-07	5.27795e-07	0.146914	0.247183	0.276099	1.95284e-05	8.76639e-06	9.05907e-06	1.5328e-05	4.43015e-06	4.26088e-06	4.03695	0.0962792	4.0381	1.36622	4.16335e+08	1.74567e+10	1.74617e+10	-88.6338	0.0000000E+000	0.0000000E+000	0.0000000E+000	88.6338	0.0000000E+000	0.0000000E+000	0.0000000E+000	-88.6338	0.0000000E+000	0.0000000E+000	0.0000000E+000	-1.36622	0.0000000E+000	0.0000000E+000	0.0000000E+000	1.36622	41.9296	88.6338	-0.0621625
920001	-0.12007	-0.2856	0.309813	112.802	805.094	-9.05515e-05	-0.579968	-0.605723	-0.514744	2	37	0.000902968	0.00291456	0	-0.252668	-1	-1	-1	0	0	0	0	0	0	-1	-1	-1	0	0	0	0	0	0	-1.25093	-2.97549	3.22775	-112.802	-514.744	-216.405	558.383	157.198	0.0000000E+000	0.0000000E+000	0.0000000E+000	-157.198	0.0000000E+000	0.0000000E+000	0.0000000E+000	157.198	0.0000000E+000	0.0000000E+000	0.0000000E+000	112.802	0.0000000E+000	0.0000000E+000	0.0000000E+000	-112.802	0.420412	22.8025	-0.000255386
424158	0.0296247	-0.0707528	0.0767045	67.2806	807.388	-9.00109e-05	-0.679016	-5.30334	-4.51227	2	37	0.000973458	0.012691	0	-0.253109	-1	-1	-1	0	0	0	0	0	0	-1	-1	-1	0	0	0	0	0	0	5.03515	-12.0255	13.0371	-67.2806	-4512.27	1889.32	4891.84	-157.281	0.0000000E+000	0.0000000E+000	0.0000000E+000	157.281	0.0000000E+000	0.0000000E+000	0.0000000E+000	-157.281	0.0000000E+000	0.0000000E+000	0.0000000E+000	67.2806	0.0000000E+000	0.0000000E+000	0.0000000E+000	-67.2806	0.418707	22.7194	-0.000230802
195554	0.0515081	-0.0304725	0.059847	30.6088	809.684	-8.84264e-05	-0.758523	-26.7083	-6.92432	2	37	0.00256109	0.042794	0	-0.253608	-1	-1	-1	0	0	0	0	0	0	-1	-1	-1	0	0	0	0	0	0	14.3811	-8.50792	16.7093	-30.6088	-6924.32	11704.3	13599.2	-120.609	0.0000000E+000	0.0000000E+000	0.0000000E+000	120.609	0.0000000E+000	0.0000000E+000	0.0000000E+000	-120.609	0.0000000E+000	0.0000000E+000	0.0000000E+000	30.6088	0.0000000E+000	0.0000000E+000	0.0000000E+000	-30.6088	1.69032	59.3912	-0.000247161
90159.2	0.0555729	-0.0113217	0.0567144	11.5151	811.98	-9.62181e-05	-0.759973	-155.919	-6.21347	2	37	0.00522844	0.0921889	0	-0.254056	0.617982	0.187516	7.15962	3.60206e-06	1.05158e-05	8.39704e-06	8.02521e-06	2.69819e-05	4.37306e-06	0.13876	0.0540588	0.258675	1.92518e-05	0.000126032	3.42689e-06	8.42364e-06	2.5764e-06	2.44113e-06	17.2773	-3.51985	17.6322	-11.5151	-6213.47	30499	31125.5	-101.515	0.0000000E+000	0.0000000E+000	0.0000000E+000	101.515	0.0000000E+000	0.0000000E+000	0.0000000E+000	-101.515	0.0000000E+000	0.0000000E+000	0.0000000E+000	11.5151	0.0000000E+000	0.0000000E+000	0.0000000E+000	-11.5151	4.90853	78.4849	-7.7036e-05
41586.2	0.0577119	-0.000709905	0.0577163	0.704751	814.277	-9.62368e-05	-0.646761	-5391.01	-0.815594	2	37	0.00538939	0.0933774	0	-0.254707	0.395464	0.185958	6.8205	1.14703e-05	9.86608e-06	6.68173e-06	6.36023e-06	5.78721e-06	8.55885e-06	0.19822	0.0485727	0.254165	3.51825e-06	0.000184551	2.79063e-06	1.15718e-05	3.4575e-06	4.9622e-06	17.3248	-0.21311	17.3261	-0.704751	-815.594	66303.9	66309	-90.7048	0.0000000E+000	0.0000000E+000	0.0000000E+000	90.7048	0.0000000E+000	0.0000000E+000	0.0000000E+000	-90.7048	0.0000000E+000	0.0000000E+000	0.0000000E+000	0.704751	0.0000000E+000	0.0000000E+000	0.0000000E+000	-0.704751	81.2953	89.2952	-0.000127029
19160.1	0.0612894	0.00676056	0.0616611	-6.29459	816.573	-9.10547e-05	-0.607287	1228.68	14.7701	2	37	0.00537442	0.0871606	0	-0.25503	0.406498	0.280506	6.90151	8.05741e-06	1.01865e-05	8.52998e-06	7.69739e-06	4.82721e-06	7.82257e-06	0.205765	0.0478552	0.267568	9.56151e-06	0.000178646	6.60345e-06	1.01021e-05	1.91428e-06	2.36296e-06	16.1199	1.77812	16.2177	6.29459	14770.1	133901	134713	-83.7054	0.0000000E+000	0.0000000E+000	0.0000000E+000	83.7054	0.0000000E+000	0.0000000E+000	0.0000000E+000	-83.7054	0.0000000E+000	0.0000000E+000	0.0000000E+000	-6.29459	0.0000000E+000	0.0000000E+000	0.0000000E+000	6.29459	9.06573	83.7054	-0.00013849
8836.39	0.0667868	0.0128809	0.0680176	-10.9163	818.875	-0.000188098	-0.997453	1398.3	50.1473	2	37	0.00546011	0.0802749	0	-0.255569	0.440792	0.212778	6.71584	6.8045e-06	1.3551e-05	8.74591e-06	8.79039e-06	1.04041e-05	7.72155e-06	0.205017	0.0621854	0.294173	1.05785e-05	0.000163569	6.50261e-06	1.19122e-05	2.13251e-06	3.63758e-06	14.436	2.78421	14.7021	10.9163	50147.3	260012	264804	-79.0837	0.0000000E+000	0.0000000E+000	0.0000000E+000	79.0837	0.0000000E+000	0.0000000E+000	0.0000000E+000	-79.0837	0.0000000E+000	0.0000000E+000	0.0000000E+000	-10.9163	0.0000000E+000	0.0000000E+000	0.0000000E+000	10.9163	5.18496	79.0837	-0.000273968
4073.69	0.0744861	0.0189555	0.0768602	-14.2778	821.493	-0.00020357	-0.979829	2061.09	125.361	2	37	0.00539988	0.0702558	0	-0.256407	0.48912	0.348939	6.83265	9.49248e-06	1.23589e-05	1.34041e-05	8.31253e-06	8.03694e-06	6.72027e-06	0.160264	0.0608695	0.33511	1.71132e-05	0.00011024	3.99099e-06	9.91851e-06	7.87549e-06	6.89821e-06	12.6088	3.20872	13.0106	14.2778	125361	492611	508312	-75.7222	0.0000000E+000	0.0000000E+000	0.0000000E+000	75.7222	0.0000000E+000	0.0000000E+000	0.0000000E+000	-75.7222	0.0000000E+000	0.0000000E+000	0.0000000E+000	-14.2778	0.0000000E+000	0.0000000E+000	0.0000000E+000	14.2778	3.92953	75.7222	-0.000425744
1878.19	0.0850178	0.0258043	0.0888475	-16.8839	824.15	-0.000222397	-0.975084	3283.88	277.001	2	37	0.00538694	0.0606313	0	-0.257298	0.339442	0.23776	6.85359	6.22173e-06	8.90415e-06	6.11862e-06	5.50223e-06	7.53994e-06	5.97831e-06	0.0922751	0.0646947	0.39158	1.7917e-05	5.19088e-05	3.6087e-06	5.56338e-06	4.3444e-06	5.69141e-06	10.7701	3.2689	11.2552	16.8839	277001	912638	953749	-73.1161	0.0000000E+000	0.0000000E+000	0.0000000E+000	73.1161	0.0000000E+000	0.0000000E+000	0.0000000E+000	-73.1161	0.0000000E+000	0.0000000E+000	0.0000000E+000	-16.8839	0.0000000E+000	0.0000000E+000	0.0000000E+000	16.8839	3.29472	73.1161	-0.000503793
865.832	0.0995264	0.0331866	0.104914	-18.4407	826.807	-0.000219582	-0.957217	5538.91	554.225	2	37	0.00532486	0.0507547	0	-0.25823	0.30911	0.176972	7.12023	4.05341e-06	9.02704e-06	4.21236e-06	5.97561e-06	8.60257e-06	4.87464e-06	0.049759	0.0224261	0.456949	1.34096e-05	1.70266e-05	2.68109e-06	1.03593e-05	5.18877e-06	3.76589e-06	9.04222	3.01508	9.53166	18.4407	554225	1.66212e+06	1.75208e+06	-71.5593	0.0000000E+000	0.0000000E+000	0.0000000E+000	71.5593	0.0000000E+000	0.0000000E+000	0.0000000E+000	-71.5593	0.0000000E+000	0.0000000E+000	0.0000000E+000	-18.4407	0.0000000E+000	0.0000000E+000	0.0000000E+000	18.4407	2.999	71.5593	-0.000400349
399.106	0.117987	0.0404211	0.124719	-18.9109	829.465	-0.000196356	-0.939573	9865.61	1036.27	2	37	0.00508179	0.0407459	0	-0.258866	0.340284	0.216203	7.21859	9.55834e-06	4.49214e-06	6.70685e-06	7.73795e-06	4.5373e-06	5.1005e-06	0.077292	0.023578	0.575758	8.66885e-06	2.70176e-05	4.34037e-06	6.88692e-06	7.30581e-06	7.09797e-06	7.58524	2.59862	8.01802	18.9109	1.03627e+06	3.02483e+06	3.19742e+06	-71.0891	0.0000000E+000	0.0000000E+000	0.0000000E+000	71.0891	0.0000000E+000	0.0000000E+000	0.0000000E+000	-71.0891	0.0000000E+000	0.0000000E+000	0.0000000E+000	-18.9109	0.0000000E+000	0.0000000E+000	0.0000000E+000	18.9109	2.91895	71.0891	-0.000335775
183.999	0.141931	0.047197	0.149572	-18.3938	831.681	-0.0001963	-0.918878	18327	1824.81	2	37	0.00517226	0.0345803	0	-0.259477	0.452897	0.209588	7.30312	5.1314e-06	1.51284e-05	8.68756e-06	7.54649e-06	6.72288e-06	5.40344e-06	0.113685	0.0244479	0.679056	4.93906e-06	2.909e-05	9.84149e-06	2.28112e-05	4.11905e-06	4.2495e-06	6.34415	2.10965	6.68572	18.3938	1.82481e+06	5.48755e+06	5.783e+06	-71.6062	0.0000000E+000	0.0000000E+000	0.0000000E+000	71.6062	0.0000000E+000	0.0000000E+000	0.0000000E+000	-71.6062	0.0000000E+000	0.0000000E+000	0.0000000E+000	-18.3938	0.0000000E+000	0.0000000E+000	0.0000000E+000	18.3938	3.0072	71.6062	-0.000293666
84.8643	0.171995	0.0468699	0.178266	-15.2434	833.895	-0.000163511	-0.913034	40013	2765.98	2	37	0.00502995	0.0282159	0	-0.260059	0.387692	0.159806	7.14509	5.32971e-06	8.588e-06	8.17123e-06	8.87231e-06	6.70721e-06	5.5612e-06	0.170377	0.036213	0.824671	9.83871e-06	3.14768e-05	6.37638e-06	3.28606e-05	5.30861e-06	5.06119e-06	5.41222	1.47487	5.60958	15.2434	2.76598e+06	1.01501e+07	1.05202e+07	-74.7566	0.0000000E+000	0.0000000E+000	0.0000000E+000	74.7566	0.0000000E+000	0.0000000E+000	0.0000000E+000	-74.7566	0.0000000E+000	0.0000000E+000	0.0000000E+000	-15.2434	0.0000000E+000	0.0000000E+000	0.0000000E+000	15.2434	3.66962	74.7566	-0.00031178
39.1114	0.196736	0.0346975	0.199772	-10.0022	836.14	-0.000202321	-0.975457	117279	3537.91	2	37	0.00496212	0.0248389	0	-0.26072	0.35941	0.222727	7.54914	4.77485e-06	8.07737e-06	1.94337e-06	9.78731e-06	8.54708e-06	2.36289e-06	0.191506	0.0586951	0.94025	7.67777e-06	2.87282e-05	2.28189e-05	2.7485e-05	4.44759e-06	4.93983e-06	4.92963	0.86942	5.00571	10.0022	3.53791e+06	2.006e+07	2.03696e+07	-79.9978	0.0000000E+000	0.0000000E+000	0.0000000E+000	79.9978	0.0000000E+000	0.0000000E+000	0.0000000E+000	-79.9978	0.0000000E+000	0.0000000E+000	0.0000000E+000	-10.0022	0.0000000E+000	0.0000000E+000	0.0000000E+000	10.0022	5.67002	79.9978	-0.000346888
18.0427	0.209372	0.021526	0.210476	-5.87007	838.384	-0.000200774	-0.960735	409784	4286.25	2	37	0.0049426	0.0234829	0	-0.261274	0.255641	0.145138	5.13651	3.96303e-06	6.53798e-06	4.8691e-06	5.89626e-06	5.07547e-06	2.08594e-06	0.159346	0.043259	0.827602	6.01327e-06	2.80607e-05	5.39934e-06	1.96736e-05	6.80658e-06	7.40122e-06	4.72622	0.485913	4.75114	5.87007	4.28624e+06	4.16901e+07	4.19098e+07	-84.1299	0.0000000E+000	0.0000000E+000	0.0000000E+000	84.1299	0.0000000E+000	0.0000000E+000	0.0000000E+000	-84.1299	0.0000000E+000	0.0000000E+000	0.0000000E+000	-5.87007	0.0000000E+000	0.0000000E+000	0.0000000E+000	5.87007	9.72648	84.1299	-0.000260841
8.3112	0.214674	0.0126447	0.215046	-3.37092	840.602	-0.000196114	-0.957767	1.51443e+06	5236	2	37	0.00493482	0.0229477	0	-0.261822	0.24136	0.12605	5.21771	4.19605e-06	3.57895e-06	5.07566e-06	4.32881e-06	6.56622e-06	3.33212e-06	0.331844	0.060542	0.777803	7.28324e-06	2.11762e-05	2.52595e-06	1.4823e-05	7.09047e-05	5.69028e-06	4.64211	0.273428	4.65016	3.37092	5.236e+06	8.8894e+07	8.9048e+07	-86.6291	0.0000000E+000	0.0000000E+000	0.0000000E+000	86.6291	0.0000000E+000	0.0000000E+000	0.0000000E+000	-86.6291	0.0000000E+000	0.0000000E+000	0.0000000E+000	-3.37092	0.0000000E+000	0.0000000E+000	0.0000000E+000	3.37092	16.9775	86.6291	-0.000409801
3.83341	0.217191	0.00791347	0.217336	-2.08667	844.08	-0.000197116	-0.996352	5.24648e+06	6955.68	2	37	0.00493633	0.0227129	0	-0.262773	0.197658	0.145595	3.94636	4.63403e-06	4.29126e-06	2.80541e-06	4.65603e-06	2.82084e-06	2.50721e-06	0.115689	0.0671966	0.73471	5.80763e-06	2.10615e-05	3.82063e-06	1.31952e-05	2.47201e-06	1.76209e-06	4.59813	0.167535	4.60118	2.08667	6.95569e+06	1.90904e+08	1.91031e+08	-87.9133	0.0000000E+000	0.0000000E+000	0.0000000E+000	87.9133	0.0000000E+000	0.0000000E+000	0.0000000E+000	-87.9133	0.0000000E+000	0.0000000E+000	0.0000000E+000	-2.08667	0.0000000E+000	0.0000000E+000	0.0000000E+000	2.08667	27.4458	87.9133	-0.000562748
1.76753	0.218604	0.00674165	0.218708	-1.76641	850.618	-0.000183876	-0.924932	1.33563e+07	12690.8	2	37	0.00493483	0.0225635	0	-0.26515	0.137802	0.0643178	2.17442	2.58445e-06	3.63022e-06	1.49553e-06	1.44061e-06	1.83809e-06	3.34328e-06	0.118541	0.066325	0.666607	6.04147e-06	2.05626e-05	3.9666e-06	1.34241e-05	3.32034e-06	3.73616e-06	4.57013	0.14094	4.5723	1.76641	1.26908e+07	4.11511e+08	4.11706e+08	-88.2336	0.0000000E+000	0.0000000E+000	0.0000000E+000	88.2336	0.0000000E+000	0.0000000E+000	0.0000000E+000	-88.2336	0.0000000E+000	0.0000000E+000	0.0000000E+000	-1.76641	0.0000000E+000	0.0000000E+000	0.0000000E+000	1.76641	32.4259	88.2336	-0.00178726
0.814483	0.219776	0.00848659	0.21994	-2.21136	866.398	-0.000197228	-0.944942	2.30253e+07	34281.9	2	38	0.00493265	0.0224273	0	-0.269761	0.136339	0.077655	1.41663	2.02832e-06	3.47412e-06	3.25352e-06	2.70211e-06	2.15999e-06	1.39653e-06	0.119055	0.0452704	0.591094	9.07167e-06	1.94159e-05	4.77296e-06	1.31316e-05	5.14104e-06	3.51891e-06	4.54332	0.175439	4.5467	2.21136	3.42819e+07	8.87792e+08	8.88454e+08	-87.7886	0.0000000E+000	0.0000000E+000	0.0000000E+000	87.7886	0.0000000E+000	0.0000000E+000	0.0000000E+000	-87.7886	0.0000000E+000	0.0000000E+000	0.0000000E+000	-2.21136	0.0000000E+000	0.0000000E+000	0.0000000E+000	2.21136	25.8968	87.7886	-0.00419159
0.375592	0.227207	0.0149208	0.227696	-3.75725	894.33	-0.000205116	-1.01163	2.83996e+07	121951	2	38	0.00493156	0.0216585	0	-0.27452	0.105165	0.0455279	0.953236	1.94749e-06	3.18038e-06	5.74197e-07	2.60128e-06	1.82346e-06	1.10464e-06	0.156395	0.107095	0.60381	1.25707e-05	2.05517e-05	6.3161e-06	2.05758e-05	3.48753e-06	3.72924e-06	4.38237	0.287793	4.39181	3.75725	1.21951e+08	1.85701e+09	1.86101e+09	-86.2428	0.0000000E+000	0.0000000E+000	0.0000000E+000	86.2428	0.0000000E+000	0.0000000E+000	0.0000000E+000	-86.2428	0.0000000E+000	0.0000000E+000	0.0000000E+000	-3.75725	0.0000000E+000	0.0000000E+000	0.0000000E+000	3.75725	15.2275	86.2428	-0.0042653
0.173225	0.238047	0.0123448	0.238367	-2.96861	954.149	-0.000198661	-1.0303	7.44265e+07	199619	2	38	0.00492999	0.0206823	0	-0.298748	0.10625	0.0963574	0.665698	1.78377e-06	3.49118e-06	1.49958e-06	2.46094e-06	1.16466e-06	7.87056e-07	0.127886	0.0817134	0.540634	5.59069e-06	1.59e-05	3.81e-06	1.90257e-05	3.59777e-06	3.18362e-06	4.18958	0.217265	4.19521	2.96861	1.99619e+08	3.8493e+09	3.85447e+09	-87.0314	0.0000000E+000	0.0000000E+000	0.0000000E+000	87.0314	0.0000000E+000	0.0000000E+000	0.0000000E+000	-87.0314	0.0000000E+000	0.0000000E+000	0.0000000E+000	-2.96861	0.0000000E+000	0.0000000E+000	0.0000000E+000	2.96861	19.2832	87.0314	-0.0136427
0.0798926	0.242	0.0065926	0.24209	-1.56047	1083.11	-0.000203845	-1.01083	3.02174e+08	224087	2	38	0.00493019	0.0203651	0	-0.325637	0.0913607	0.0790904	0.449549	9.44043e-07	3.23541e-06	1.09668e-06	2.0344e-06	1.14451e-06	9.53998e-07	0.159566	0.223377	0.38266	2.04927e-05	1.20566e-05	4.28263e-06	1.76975e-05	2.52443e-06	1.69696e-06	4.12916	0.112487	4.13069	1.56047	2.24087e+08	8.22575e+09	8.2288e+09	-88.4395	0.0000000E+000	0.0000000E+000	0.0000000E+000	88.4395	0.0000000E+000	0.0000000E+000	0.0000000E+000	-88.4395	0.0000000E+000	0.0000000E+000	0.0000000E+000	-1.56047	0.0000000E+000	0.0000000E+000	0.0000000E+000	1.56047	36.7079	88.4395	-0.0144867
0.0368053	0.248859	0.00809002	0.248991	-1.86194	1362.3	-0.000210856	-0.984965	5.34516e+08	564279	2	38	0.00492858	0.0197942	0	-0.385222	0.107497	0.100449	0.321051	1.72313e-06	3.81595e-06	1.38433e-06	2.29124e-06	9.88567e-07	9.65458e-07	0.167077	0.207417	0.28604	1.79461e-05	1.71062e-05	9.74823e-06	1.60014e-05	4.08254e-06	4.44365e-06	4.01409	0.130492	4.01622	1.86194	5.64278e+08	1.73579e+10	1.73671e+10	-88.1381	0.0000000E+000	0.0000000E+000	0.0000000E+000	88.1381	0.0000000E+000	0.0000000E+000	0.0000000E+000	-88.1381	0.0000000E+000	0.0000000E+000	0.0000000E+000	-1.86194	0.0000000E+000	0.0000000E+000	0.0000000E+000	1.86194	30.7613	88.1381	-0.0394171
920001	-0.121486	-0.287271	0.311903	112.923	1608.36	-0.000128802	-0.219579	-0.602199	-0.510839	3	37	0.000908147	0.00291163	0	-0.462602	-1	-1	-1	0	0	0	0	0	0	-1	-1	-1	0	0	0	0	0	0	-1.24878	-2.95293	3.20612	-112.923	-510.839	-216.032	554.641	157.077	0.0000000E+000	0.0000000E+000	0.0000000E+000	-157.077	0.0000000E+000	0.0000000E+000	0.0000000E+000	157.077	0.0000000E+000	0.0000000E+000	0.0000000E+000	112.923	0.0000000E+000	0.0000000E+000	0.0000000E+000	-112.923	0.422897	22.9234	4.75223e-05
424158	0.0291787	-0.0714188	0.0771494	67.7771	1610.66	-0.000119967	-0.294917	-5.25389	-4.50235	3	37	0.000979145	0.0126915	0	-0.462766	-1	-1	-1	0	0	0	0	0	0	-1	-1	-1	0	0	0	0	0	0	4.90231	-11.999	12.9619	-67.7771	-4502.35	1839.47	4863.63	-157.777	0.0000000E+000	0.0000000E+000	0.0000000E+000	157.777	0.0000000E+000	0.0000000E+000	0.0000000E+000	-157.777	0.0000000E+000	0.0000000E+000	0.0000000E+000	67.7771	0.0000000E+000	0.0000000E+000	0.0000000E+000	-67.7771	0.408558	22.2229	-6.89549e-05
195554	0.0515314	-0.0303633	0.0598115	30.5074	1612.95	-0.000104625	-0.302193	-26.8043	-6.9077	3	37	0.00255948	0.0427924	0	-0.463016	-1	-1	-1	0	0	0	0	0	0	-1	-1	-1	0	0	0	0	0	0	14.4046	-8.4875	16.7192	-30.5074	-6907.7	11723.5	13607.2	-120.507	0.0000000E+000	0.0000000E+000	0.0000000E+000	120.507	0.0000000E+000	0.0000000E+000	0.0000000E+000	-120.507	0.0000000E+000	0.0000000E+000	0.0000000E+000	30.5074	0.0000000E+000	0.0000000E+000	0.0000000E+000	-30.5074	1.69716	59.4926	-0.00012098
90159.2	0.0555861	-0.0112893	0.0567209	11.4804	1615.25	-0.00011635	-0.419201	-156.366	-6.19428	3	37	0.00522811	0.0921725	0	-0.46334	0.539412	0.190996	7.13196	8.95902e-06	1.14807e-05	7.80863e-06	4.90725e-06	2.11203e-05	5.14107e-06	0.138409	0.0511767	0.261134	1.62114e-05	0.000125932	6.04007e-06	6.59367e-06	7.36046e-06	2.95561e-06	17.2774	-3.50898	17.6302	-11.4804	-6194.28	30499.3	31121.9	-101.48	0.0000000E+000	0.0000000E+000	0.0000000E+000	101.48	0.0000000E+000	0.0000000E+000	0.0000000E+000	-101.48	0.0000000E+000	0.0000000E+000	0.0000000E+000	11.4804	0.0000000E+000	0.0000000E+000	0.0000000E+000	-11.4804	4.92378	78.5196	-0.000114978
41586.2	0.057812	-0.000611471	0.0578153	0.605988	1617.55	-0.000138887	-0.56154	-6258.85	-0.700102	3	37	0.00539225	0.0932669	0	-0.463656	0.459729	0.137717	7.01164	8.06962e-06	1.72839e-05	5.54257e-06	1.06723e-05	4.35281e-06	2.94576e-06	0.201688	0.0468209	0.253811	2.26414e-06	0.000187197	5.50581e-06	1.51685e-05	5.79754e-06	3.86456e-06	17.2955	-0.182932	17.2965	-0.605988	-700.101	66191.7	66195.4	-90.606	0.0000000E+000	0.0000000E+000	0.0000000E+000	90.606	0.0000000E+000	0.0000000E+000	0.0000000E+000	-90.606	0.0000000E+000	0.0000000E+000	0.0000000E+000	0.605988	0.0000000E+000	0.0000000E+000	0.0000000E+000	-0.605988	94.5459	89.394	-0.000193874
19160.1	0.0613531	0.00684283	0.0617335	-6.364	1619.84	-0.000126845	-0.547768	1213.91	14.9147	3	37	0.00537795	0.0871156	0	-0.463627	0.392456	0.265669	6.87145	4.14024e-06	1.52262e-05	6.56458e-06	7.75406e-06	5.41353e-06	6.18298e-06	0.208736	0.048172	0.270024	1.62999e-05	0.000180632	4.73448e-06	1.04843e-05	3.02785e-06	4.10404e-06	16.0988	1.79553	16.1987	6.364	14914.7	133726	134555	-83.636	0.0000000E+000	0.0000000E+000	0.0000000E+000	83.636	0.0000000E+000	0.0000000E+000	0.0000000E+000	-83.636	0.0000000E+000	0.0000000E+000	0.0000000E+000	-6.364	0.0000000E+000	0.0000000E+000	0.0000000E+000	6.364	8.96605	83.636	6.27447e-05
8836.39	0.0668327	0.0129195	0.06807	-10.941	1622.15	-0.000223627	-0.947184	1394.12	50.2204	3	37	0.0054708	0.0803703	0	-0.464173	0.360306	0.242152	6.85496	8.06648e-06	7.16455e-06	1.08068e-05	9.79363e-06	4.95465e-06	2.17218e-06	0.206826	0.060328	0.293561	1.54093e-05	0.000164111	1.19652e-05	1.2546e-05	4.60774e-06	4.07606e-06	14.4237	2.78827	14.6908	10.941	50220.4	259790	264600	-79.059	0.0000000E+000	0.0000000E+000	0.0000000E+000	79.059	0.0000000E+000	0.0000000E+000	0.0000000E+000	-79.059	0.0000000E+000	0.0000000E+000	0.0000000E+000	-10.941	0.0000000E+000	0.0000000E+000	0.0000000E+000	10.941	5.173	79.059	-0.000330469
4073.69	0.0745255	0.0189848	0.0769056	-14.2917	1624.76	-0.000245213	-1.03002	2057.91	125.407	3	37	0.00540285	0.070253	0	-0.464809	0.52776	0.315191	6.99835	1.31675e-05	1.56667e-05	1.20531e-05	7.06646e-06	1.01823e-05	6.71053e-06	0.158367	0.0538482	0.33394	1.82685e-05	0.000108877	5.54249e-06	7.99744e-06	5.65724e-06	4.96917e-06	12.6005	3.20989	13.003	14.2917	125407	492290	508012	-75.7083	0.0000000E+000	0.0000000E+000	0.0000000E+000	75.7083	0.0000000E+000	0.0000000E+000	0.0000000E+000	-75.7083	0.0000000E+000	0.0000000E+000	0.0000000E+000	-14.2917	0.0000000E+000	0.0000000E+000	0.0000000E+000	14.2917	3.92553	75.7083	-0.000199482
1878.19	0.0850892	0.0257062	0.0888875	-16.81	1627.42	-0.000249501	-1.03339	3296.41	275.7	3	37	0.00538942	0.060632	0	-0.465764	0.322884	0.172062	6.88792	7.52495e-06	6.26176e-06	4.29266e-06	7.32889e-06	7.81659e-06	6.87932e-06	0.0910871	0.0658736	0.389251	1.64865e-05	5.15582e-05	5.69422e-06	4.46916e-06	4.53047e-06	5.42829e-06	10.7694	3.25354	11.2502	16.81	275700	912584	953321	-73.19	0.0000000E+000	0.0000000E+000	0.0000000E+000	73.19	0.0000000E+000	0.0000000E+000	0.0000000E+000	-73.19	0.0000000E+000	0.0000000E+000	0.0000000E+000	-16.81	0.0000000E+000	0.0000000E+000	0.0000000E+000	16.81	3.31007	73.19	-0.000554512
865.832	0.0995224	0.033281	0.10494	-18.4903	1630.08	-0.000241728	-1.02682	5523.19	555.525	3	37	0.00532607	0.0507537	0	-0.466682	0.312376	0.147862	6.87982	5.26705e-06	1.01172e-05	3.55147e-06	3.88054e-06	4.84446e-06	8.18245e-06	0.052737	0.0246027	0.463364	1.22613e-05	1.96107e-05	4.47174e-06	1.07706e-05	5.04568e-06	3.01142e-06	9.03735	3.02216	9.52928	18.4903	555525	1.66122e+06	1.75165e+06	-71.5097	0.0000000E+000	0.0000000E+000	0.0000000E+000	71.5097	0.0000000E+000	0.0000000E+000	0.0000000E+000	-71.5097	0.0000000E+000	0.0000000E+000	0.0000000E+000	-18.4903	0.0000000E+000	0.0000000E+000	0.0000000E+000	18.4903	2.99037	71.5097	-0.000404575
399.106	0.118143	0.0406447	0.124939	-18.9848	1632.74	-0.000225622	-1.05507	9811.32	1038.35	3	37	0.00508791	0.0407232	0	-0.467364	0.330884	0.264035	7.17371	6.91015e-06	7.76938e-06	6.23039e-06	4.39627e-06	6.85504e-06	3.32998e-06	0.0731559	0.022797	0.58065	5.50638e-06	2.74035e-05	3.28496e-06	6.2868e-06	4.44887e-06	3.67379e-06	7.56855	2.60382	8.00393	18.9848	1.03835e+06	3.01818e+06	3.19179e+06	-71.0152	0.0000000E+000	0.0000000E+000	0.0000000E+000	71.0152	0.0000000E+000	0.0000000E+000	0.0000000E+000	-71.0152	0.0000000E+000	0.0000000E+000	0.0000000E+000	-18.9848	0.0000000E+000	0.0000000E+000	0.0000000E+000	18.9848	2.90671	71.0152	-0.000373438
183.999	0.142068	0.0473537	0.149752	-18.4341	1634.95	-0.000221502	-1.03464	18266.3	1826.47	3	37	0.00517734	0.0345727	0	-0.468041	0.546482	0.181854	7.03358	7.99831e-06	2.11448e-05	6.61473e-06	5.61645e-06	9.37894e-06	6.59752e-06	0.121091	0.0362261	0.673517	5.76944e-06	3.25716e-05	3.80253e-06	2.41656e-05	4.27443e-06	3.67625e-06	6.33504	2.11157	6.67769	18.4341	1.82647e+06	5.47967e+06	5.77605e+06	-71.5659	0.0000000E+000	0.0000000E+000	0.0000000E+000	71.5659	0.0000000E+000	0.0000000E+000	0.0000000E+000	-71.5659	0.0000000E+000	0.0000000E+000	0.0000000E+000	-18.4341	0.0000000E+000	0.0000000E+000	0.0000000E+000	18.4341	3.00015	71.5659	-0.000312484
84.8643	0.172112	0.0470442	0.178425	-15.2875	1637.17	-0.000209982	-1.01882	39864.7	2771.32	3	37	0.00503032	0.0281928	0	-0.468669	0.259363	0.226419	7.33426	3.15405e-06	3.93191e-06	6.09781e-06	7.05929e-06	4.89718e-06	3.90814e-06	0.166017	0.0281955	0.844392	4.89482e-06	3.48597e-05	2.00583e-06	2.96486e-05	4.2302e-06	6.18405e-06	5.40626	1.47772	5.60458	15.2875	2.77132e+06	1.01389e+07	1.05109e+07	-74.7125	0.0000000E+000	0.0000000E+000	0.0000000E+000	74.7125	0.0000000E+000	0.0000000E+000	0.0000000E+000	-74.7125	0.0000000E+000	0.0000000E+000	0.0000000E+000	-15.2875	0.0000000E+000	0.0000000E+000	0.0000000E+000	15.2875	3.65851	74.7125	-0.000319812
39.1114	0.197001	0.0349798	0.200082	-10.0686	1639.41	-0.000216358	-1.01389	116332	3555.64	3	37	0.00496479	0.0248137	0	-0.469357	0.353812	0.264605	7.58221	7.98914e-06	3.8085e-06	3.79563e-06	8.43917e-06	8.99087e-06	4.22026e-06	0.190286	0.0646939	0.938031	5.98273e-06	3.02597e-05	2.25859e-05	2.46023e-05	5.74561e-06	8.99371e-06	4.92098	0.873778	4.99795	10.0686	3.55564e+06	2.00248e+07	2.0338e+07	-79.9314	0.0000000E+000	0.0000000E+000	0.0000000E+000	79.9314	0.0000000E+000	0.0000000E+000	0.0000000E+000	-79.9314	0.0000000E+000	0.0000000E+000	0.0000000E+000	-10.0686	0.0000000E+000	0.0000000E+000	0.0000000E+000	10.0686	5.63184	79.9314	-0.00034982
18.0427	0.209629	0.0215934	0.210738	-5.88116	1641.66	-0.000211912	-1.02946	408505	4288.96	3	37	0.0049414	0.023448	0	-0.469878	0.289387	0.126531	5.08485	5.95865e-06	6.19523e-06	5.93086e-06	6.83182e-06	3.2504e-06	3.85208e-06	0.15126	0.0450913	0.820527	6.78508e-06	2.83826e-05	5.04738e-06	1.64338e-05	4.88076e-06	6.51768e-06	4.72025	0.486221	4.74522	5.88116	4.28896e+06	4.16374e+07	4.18577e+07	-84.1188	0.0000000E+000	0.0000000E+000	0.0000000E+000	84.1188	0.0000000E+000	0.0000000E+000	0.0000000E+000	-84.1188	0.0000000E+000	0.0000000E+000	0.0000000E+000	-5.88116	0.0000000E+000	0.0000000E+000	0.0000000E+000	5.88116	9.70802	84.1188	-0.000254482
8.3112	0.215092	0.0125349	0.215457	-3.33524	1643.87	-0.000213785	-1.03895	1.52769e+06	5170.78	3	37	0.00493751	0.0229164	0	-0.470609	0.244372	0.218522	5.2757	2.90822e-06	4.9284e-06	2.41035e-06	3.40326e-06	7.9498e-06	3.93973e-06	0.348586	0.113976	0.788041	5.61304e-06	2.30411e-05	6.12871e-06	1.37482e-05	7.44996e-05	2.24398e-06	4.63344	0.270022	4.6413	3.33524	5.17077e+06	8.87278e+07	8.88784e+07	-86.6648	0.0000000E+000	0.0000000E+000	0.0000000E+000	86.6648	0.0000000E+000	0.0000000E+000	0.0000000E+000	-86.6648	0.0000000E+000	0.0000000E+000	0.0000000E+000	-3.33524	0.0000000E+000	0.0000000E+000	0.0000000E+000	3.33524	17.1595	86.6648	-0.000516309
3.83341	0.21753	0.00794617	0.217675	-2.09203	1647.35	-0.000208281	-1.02888	5.22489e+06	6962.68	3	37	0.00493631	0.0226775	0	-0.471728	0.172856	0.142768	3.93273	3.40164e-06	3.99477e-06	3.48065e-06	2.7723e-06	3.63826e-06	1.78656e-06	0.125594	0.120571	0.755722	1.13161e-05	2.13917e-05	4.1005e-06	1.32016e-05	2.14782e-06	3.88358e-06	4.59095	0.167703	4.59401	2.09203	6.96267e+06	1.90606e+08	1.90733e+08	-87.908	0.0000000E+000	0.0000000E+000	0.0000000E+000	87.908	0.0000000E+000	0.0000000E+000	0.0000000E+000	-87.908	0.0000000E+000	0.0000000E+000	0.0000000E+000	-2.09203	0.0000000E+000	0.0000000E+000	0.0000000E+000	2.09203	27.3754	87.908	-0.000904916
1.76753	0.218836	0.00673816	0.218939	-1.76363	1653.89	-0.000212683	-1.01544	1.33632e+07	12657.4	3	37	0.00493466	0.0225389	0	-0.474046	0.150813	0.128758	2.20108	3.87199e-06	3.90445e-06	2.78544e-06	3.03533e-06	1.40803e-06	1.54626e-06	0.113132	0.0655238	0.679822	7.71839e-06	2.14445e-05	2.76696e-06	9.50138e-06	3.413e-06	1.97776e-06	4.56531	0.14057	4.56747	1.76363	1.26574e+07	4.11077e+08	4.11272e+08	-88.2364	0.0000000E+000	0.0000000E+000	0.0000000E+000	88.2364	0.0000000E+000	0.0000000E+000	0.0000000E+000	-88.2364	0.0000000E+000	0.0000000E+000	0.0000000E+000	-1.76363	0.0000000E+000	0.0000000E+000	0.0000000E+000	1.76363	32.4771	88.2364	-0.00169149
0.814483	0.220006	0.00858774	0.220173	-2.23536	1669.67	-0.000216897	-0.988754	2.27541e+07	34616.8	3	38	0.00493231	0.022402	0	-0.478952	0.144843	0.079713	1.39503	2.90491e-06	5.13472e-06	1.81321e-06	2.0707e-06	1.26494e-06	1.95843e-06	0.142772	0.0769072	0.591722	1.38283e-05	1.78538e-05	7.73927e-06	2.03917e-05	3.45528e-06	3.24247e-06	4.53842	0.177153	4.54187	2.23536	3.46169e+07	8.86835e+08	8.8751e+08	-87.7646	0.0000000E+000	0.0000000E+000	0.0000000E+000	87.7646	0.0000000E+000	0.0000000E+000	0.0000000E+000	-87.7646	0.0000000E+000	0.0000000E+000	0.0000000E+000	-2.23536	0.0000000E+000	0.0000000E+000	0.0000000E+000	2.23536	25.6186	87.7646	-0.00491933
0.375592	0.227371	0.0148767	0.227857	-3.7435	1697.6	-0.000211166	-1.02812	2.84837e+07	121419	3	38	0.00493195	0.0216449	0	-0.48285	0.106928	0.0871935	0.938197	1.50983e-06	4.04769e-06	1.00106e-06	1.7733e-06	1.33802e-06	1.21175e-06	0.144237	0.134286	0.611371	1.52984e-05	1.30793e-05	6.46692e-06	1.56671e-05	7.03892e-06	5.39082e-06	4.37936	0.286539	4.38872	3.7435	1.21419e+08	1.85573e+09	1.85969e+09	-86.2565	0.0000000E+000	0.0000000E+000	0.0000000E+000	86.2565	0.0000000E+000	0.0000000E+000	0.0000000E+000	-86.2565	0.0000000E+000	0.0000000E+000	0.0000000E+000	-3.7435	0.0000000E+000	0.0000000E+000	0.0000000E+000	3.7435	15.2836	86.2565	-0.00246379
0.173225	0.238429	0.0122441	0.238744	-2.93974	1757.42	-0.00021413	-1.0375	7.50383e+07	197367	3	38	0.00493038	0.0206514	0	-0.506541	0.113197	0.0975724	0.659945	1.77903e-06	4.39385e-06	8.63614e-07	2.22023e-06	1.243e-06	4.87758e-07	0.132748	0.123607	0.536456	7.07312e-06	1.88249e-05	2.81425e-06	1.76234e-05	1.79525e-06	2.03208e-06	4.18308	0.214815	4.18859	2.93974	1.97367e+08	3.84333e+09	3.84839e+09	-87.0603	0.0000000E+000	0.0000000E+000	0.0000000E+000	87.0603	0.0000000E+000	0.0000000E+000	0.0000000E+000	-87.0603	0.0000000E+000	0.0000000E+000	0.0000000E+000	-2.93974	0.0000000E+000	0.0000000E+000	0.0000000E+000	2.93974	19.473	87.0603	-0.0147686
0.0798926	0.242409	0.00616967	0.242487	-1.45795	1886.38	-0.000206531	-1.0485	3.22888e+08	209025	3	38	0.00492743	0.0203204	0	-0.544963	0.105725	0.0758198	0.44981	1.81861e-06	4.10893e-06	1.19799e-06	1.56714e-06	1.04409e-06	9.01393e-07	0.148244	0.218129	0.388362	1.28022e-05	1.45535e-05	7.14931e-06	1.568e-05	2.52676e-06	3.95735e-06	4.12259	0.104926	4.12393	1.45795	2.09024e+08	8.21267e+09	8.21533e+09	-88.5421	0.0000000E+000	0.0000000E+000	0.0000000E+000	88.5421	0.0000000E+000	0.0000000E+000	0.0000000E+000	-88.5421	0.0000000E+000	0.0000000E+000	0.0000000E+000	-1.45795	0.0000000E+000	0.0000000E+000	0.0000000E+000	1.45795	39.2904	88.5421	-0.019957
0.0368053	0.248275	0.00633338	0.248355	-1.46127	2165.57	-0.000196029	-1.03863	6.8277e+08	444016	3	38	0.00492817	0.0198432	0	-0.595091	0.136099	0.0993015	0.328231	2.99716e-06	4.93586e-06	8.13813e-07	2.11609e-06	1.56303e-06	1.1002e-06	0.215385	0.245085	0.307051	2.23146e-05	2.07508e-05	1.06982e-05	1.95709e-05	1.18306e-05	6.30486e-06	4.02518	0.102681	4.02649	1.46127	4.44015e+08	1.74058e+10	1.74115e+10	-88.5387	0.0000000E+000	0.0000000E+000	0.0000000E+000	88.5387	0.0000000E+000	0.0000000E+000	0.0000000E+000	-88.5387	0.0000000E+000	0.0000000E+000	0.0000000E+000	-1.46127	0.0000000E+000	0.0000000E+000	0.0000000E+000	1.46127	39.201	88.5387	-0.0309188
0.0250094	0.249623	0.00146234	0.249627	-0.335647	2410.03	-0.000191953	-0.945623	4.35178e+09	149342	3	38	0.00492948	0.0197474	0	-0.651174	0.106534	0.104636	0.297528	2.18858e-06	4.05484e-06	8.36311e-07	1.53668e-06	4.89184e-07	7.8973e-07	0.191693	0.28539	0.285078	2.22721e-05	1.62977e-05	1.02725e-05	1.91302e-05	7.93715e-06	4.32626e-06	4.00591	0.0234675	4.00598	0.335647	1.49342e+08	2.54928e+10	2.54932e+10	-89.6644	0.0000000E+000	0.0000000E+000	0.0000000E+000	89.6644	0.0000000E+000	0.0000000E+000	0.0000000E+000	-89.6644	0.0000000E+000	0.0000000E+000	0.0000000E+000	-0.335647	0.0000000E+000	0.0000000E+000	0.0000000E+000	0.335647	170.7	89.6644	-0.0560832