File: Python/Experiments/IRFB/FirstCell/Data/240415-EIS-50mM_FeCl2FeCl3-1M_HCl-40mLmin_Dampened-25mHz_20ppd_C15.mpt
EC-Lab ASCII FILE
Nb header lines : 66

Potentio Electrochemical Impedance Spectroscopy

Run on channel : 15 (SN 19485)
User :
Electrode connection : standard
Potential control : Ewe
Ewe ctrl range : min = -1.00 V, max = 1.00 V
Ewe,I filtering : <None>
Safety Limits :
	Do not start on E overload
Channel : Floating
Acquisition started on : 04/15/2024 10:35:43.840
Loaded Setting File :  NONE
Saved on :
	File : 240415-EIS-50mM_FeCl2FeCl3-1M_HCl-40mLmin_Dampened-25mHz_20ppd_C15.mpr
	Directory : C:\Data\mathias\IRFB\
	Host : 192.168.0.1
Device : VMP-300 (SN 0826)
Address : USB
EC-Lab for windows v11.52 (software)
Internet server v11.52 (firmware)
Command interpretor v11.52 (firmware)
Electrode material :
Initial state :
Electrolyte :
Comments :
Cable : special
Electrode surface area : 0.001 cm²
Characteristic mass : 0.001 g
Equivalent Weight : 0.000 g/eq.
Density : 0.000 g/cm3
Volume (V) : 0.001 cm³
Record EIS quality indicators
Cycle Definition : Charge/Discharge alternance
Mode                Single sine
E (V)               0.0000
vs.                 Eoc
tE (h:m:s)          0:00:0.0000
record              0
dI                  0.000
unit dI             mA
dt (s)              0.000
fi                  920.000
unit fi             kHz
ff                  25.000
unit ff             mHz
Nd                  20
Points              per decade
spacing             Logarithmic
Va (mV)             5.0
pw                  0.10
Na                  3
corr                0
E range min (V)     -1.000
E range max (V)     1.000
I Range             Auto
Bandwidth           8
nc cycles           0
goto Ns'            0
nr cycles           0
inc. cycle          1

freq/Hz	Re(Z)/Ohm	-Im(Z)/Ohm	|Z|/Ohm	Phase(Z)/deg	time/s	<Ewe>/V	<I>/mA	Cs/µF	Cp/µF	cycle number	I Range	|Ewe|/V	|I|/A	Ns	(Q-Qo)/mA.h	THD Ewe/%	NSD Ewe/%	NSR Ewe/%	|Ewe h2|/V	|Ewe h3|/V	|Ewe h4|/V	|Ewe h5|/V	|Ewe h6|/V	|Ewe h7|/V	THD I/%	NSD I/%	NSR I/%	|I h2|/A	|I h3|/A	|I h4|/A	|I h5|/A	|I h6|/A	|I h7|/A	Re(Y)/Ohm-1	Im(Y)/Ohm-1	|Y|/Ohm-1	Phase(Y)/deg	Re(C)/nF	Im(C)/nF	|C|/nF	Phase(C)/deg	Re(M)	Im(M)	|M|	Phase(M)/deg	Re(Permittivity)	Im(Permittivity)	|Permittivity|	Phase(Permittivity)/deg	Re(Resistivity)/Ohm.cm	Im(Resistivity)/Ohm.cm	|Resistivity|/Ohm.cm	Phase(Resistivity)/deg	Re(Conductivity)/mS/cm	Im(Conductivity)/mS/cm	|Conductivity|/mS/cm	Phase(Conductivity)/deg	Tan(Delta)	Loss Angle(Delta)/deg	dq/mA.h
920001	-0.128795	0.0138334	0.129535	-173.87	2.1675	-2.6763e-05	-0.0425856	12.5055	0.142622	1	37	0.00035826	0.00276573	0	-2.17145e-05	-1	-1	-1	0	0	0	0	0	0	-1	-1	-1	0	0	0	0	0	0	-7.67576	0.82443	7.7199	173.87	142.622	-1327.86	1335.5	83.8695	0.0000000E+000	0.0000000E+000	0.0000000E+000	-83.8695	0.0000000E+000	0.0000000E+000	0.0000000E+000	83.8695	0.0000000E+000	0.0000000E+000	0.0000000E+000	-173.87	0.0000000E+000	0.0000000E+000	0.0000000E+000	173.87	9.31039	83.8695	-2.17145e-05
730432	-0.0398988	0.0566844	0.0693183	-125.141	4.4615	-3.80965e-05	-0.0625555	3.84395	2.57044	1	37	0.000269713	0.00389093	0	-5.92138e-05	-1	-1	-1	0	0	0	0	0	0	-1	-1	-1	0	0	0	0	0	0	-8.30354	11.7969	14.4262	125.141	2570.44	-1809.27	3143.35	35.1408	0.0000000E+000	0.0000000E+000	0.0000000E+000	-35.1408	0.0000000E+000	0.0000000E+000	0.0000000E+000	35.1408	0.0000000E+000	0.0000000E+000	0.0000000E+000	-125.141	0.0000000E+000	0.0000000E+000	0.0000000E+000	125.141	0.703876	35.1408	-2.27586e-05
579916	0.0124462	0.0606974	0.0619603	-78.4119	6.75548	-4.23466e-05	-0.0634674	4.52153	4.33908	1	37	0.000369178	0.0059583	0	-9.93295e-05	-1	-1	-1	0	0	0	0	0	0	-1	-1	-1	0	0	0	0	0	0	3.24198	15.8104	16.1394	78.4119	4339.08	889.745	4429.37	-11.5881	0.0000000E+000	0.0000000E+000	0.0000000E+000	11.5881	0.0000000E+000	0.0000000E+000	0.0000000E+000	-11.5881	0.0000000E+000	0.0000000E+000	0.0000000E+000	-78.4119	0.0000000E+000	0.0000000E+000	0.0000000E+000	78.4119	0.205054	11.5881	-3.10824e-05
460427	0.0410963	0.0533834	0.0673698	-52.4097	9.04949	-2.50853e-05	-0.0464565	6.4752	4.06569	1	37	0.000643817	0.00955646	0	-0.000124051	-1	-1	-1	0	0	0	0	0	0	-1	-1	-1	0	0	0	0	0	0	9.05466	11.7618	14.8434	52.4097	4065.69	3129.91	5130.9	-37.5903	0.0000000E+000	0.0000000E+000	0.0000000E+000	37.5903	0.0000000E+000	0.0000000E+000	0.0000000E+000	-37.5903	0.0000000E+000	0.0000000E+000	0.0000000E+000	-52.4097	0.0000000E+000	0.0000000E+000	0.0000000E+000	52.4097	0.769833	37.5903	-6.35736e-07
365554	0.0570718	0.0439463	0.072031	-37.597	11.3435	-3.21128e-05	-0.0537892	9.90707	3.68767	1	37	0.0010669	0.0148117	0	-0.000151366	-1	-1	-1	0	0	0	0	0	0	-1	-1	-1	0	0	0	0	0	0	10.9997	8.47	13.8829	37.597	3687.67	4789.06	6044.33	-52.403	0.0000000E+000	0.0000000E+000	0.0000000E+000	52.403	0.0000000E+000	0.0000000E+000	0.0000000E+000	-52.403	0.0000000E+000	0.0000000E+000	0.0000000E+000	-37.597	0.0000000E+000	0.0000000E+000	0.0000000E+000	37.597	1.29867	52.403	-8.46839e-06
290232	0.0647767	0.035565	0.0738978	-28.7685	13.6375	-2.06674e-05	-0.0245879	15.4189	3.57137	1	37	0.00164575	0.0222706	0	-0.000156946	-1	-1	-1	0	0	0	0	0	0	-1	-1	-1	0	0	0	0	0	0	11.8619	6.51267	13.5322	28.7685	3571.37	6504.75	7420.68	-61.2315	0.0000000E+000	0.0000000E+000	0.0000000E+000	61.2315	0.0000000E+000	0.0000000E+000	0.0000000E+000	-61.2315	0.0000000E+000	0.0000000E+000	0.0000000E+000	-28.7685	0.0000000E+000	0.0000000E+000	0.0000000E+000	28.7685	1.82136	61.2315	-1.52167e-05
230422	0.0699781	0.0293537	0.0758852	-22.7566	15.9325	-2.10961e-05	-0.0291659	23.5306	3.52082	1	37	0.00247326	0.0325921	0	-0.000132744	-1	-1	-1	0	0	0	0	0	0	-1	-1	-1	0	0	0	0	0	0	12.152	5.0974	13.1778	22.7566	3520.82	8393.5	9102.03	-67.2434	0.0000000E+000	0.0000000E+000	0.0000000E+000	67.2434	0.0000000E+000	0.0000000E+000	0.0000000E+000	-67.2434	0.0000000E+000	0.0000000E+000	0.0000000E+000	-22.7566	0.0000000E+000	0.0000000E+000	0.0000000E+000	22.7566	2.38396	67.2434	2.70545e-05
182944	0.0728731	0.0245541	0.0768986	-18.6209	18.2265	-2.86083e-05	-0.018278	35.4305	3.61233	1	37	0.0035916	0.0467057	0	-0.000118946	-1	-1	-1	0	0	0	0	0	0	-1	-1	-1	0	0	0	0	0	0	12.3234	4.15228	13.0041	18.6209	3612.34	10720.9	11313.1	-71.3791	0.0000000E+000	0.0000000E+000	0.0000000E+000	71.3791	0.0000000E+000	0.0000000E+000	0.0000000E+000	-71.3791	0.0000000E+000	0.0000000E+000	0.0000000E+000	-18.6209	0.0000000E+000	0.0000000E+000	0.0000000E+000	18.6209	2.96786	71.3791	7.05429e-05
145246	0.0748935	0.0211281	0.0778167	-15.7542	20.3875	-2.41718e-05	-0.0219439	51.8627	3.82325	1	37	0.00507384	0.0652025	0	-0.00012049	-1	-1	-1	0	0	0	0	0	0	-1	-1	-1	0	0	0	0	0	0	12.368	3.48912	12.8507	15.7542	3823.25	13552.4	14081.3	-74.2458	0.0000000E+000	0.0000000E+000	0.0000000E+000	74.2458	0.0000000E+000	0.0000000E+000	0.0000000E+000	-74.2458	0.0000000E+000	0.0000000E+000	0.0000000E+000	-15.7542	0.0000000E+000	0.0000000E+000	0.0000000E+000	15.7542	3.54473	74.2458	-5.85259e-05
115323	0.0762937	0.018815	0.0785794	-13.8535	22.6835	-3.21687e-05	-0.0177192	73.3502	4.20526	1	37	0.00511643	0.0651116	0	-5.59207e-05	-1	-1	-1	0	0	0	0	0	0	-1	-1	-1	0	0	0	0	0	0	12.3558	3.0471	12.726	13.8535	4205.26	17052.1	17562.9	-76.1465	0.0000000E+000	0.0000000E+000	0.0000000E+000	76.1465	0.0000000E+000	0.0000000E+000	0.0000000E+000	-76.1465	0.0000000E+000	0.0000000E+000	0.0000000E+000	-13.8535	0.0000000E+000	0.0000000E+000	0.0000000E+000	13.8535	4.05494	76.1465	1.34028e-05
91560.3	0.0777437	0.016818	0.079542	-12.2065	24.9815	-2.79186e-05	-0.0167329	103.357	4.62055	1	37	0.00511671	0.0643272	0	3.07621e-06	0.333828	0.226976	6.25692	4.9355e-06	6.03674e-06	5.77411e-06	6.40407e-06	6.8334e-06	8.42978e-06	0.102263	0.019583	0.297391	1.35616e-05	6.39252e-05	4.14546e-06	3.11837e-06	3.75557e-06	3.02067e-06	12.2877	2.65816	12.572	12.2065	4620.55	21359.2	21853.3	-77.7935	0.0000000E+000	0.0000000E+000	0.0000000E+000	77.7935	0.0000000E+000	0.0000000E+000	0.0000000E+000	-77.7935	0.0000000E+000	0.0000000E+000	0.0000000E+000	-12.2065	0.0000000E+000	0.0000000E+000	0.0000000E+000	12.2065	4.62265	77.7935	0.000108541
72687.8	0.0789116	0.0157138	0.0804609	-11.2621	27.2775	-3.3138e-05	-0.0334831	139.341	5.31458	1	37	0.00509707	0.0633484	0	9.78105e-06	0.367113	0.1554	6.27385	5.69798e-06	1.27749e-05	4.34744e-06	3.88777e-06	5.37113e-06	7.22101e-06	0.110004	0.00974198	0.301183	1.24646e-05	6.81444e-05	4.75985e-06	5.09886e-06	2.36236e-06	2.23129e-06	12.1891	2.42723	12.4284	11.2621	5314.58	26688.8	27212.8	-78.7379	0.0000000E+000	0.0000000E+000	0.0000000E+000	78.7379	0.0000000E+000	0.0000000E+000	0.0000000E+000	-78.7379	0.0000000E+000	0.0000000E+000	0.0000000E+000	-11.2621	0.0000000E+000	0.0000000E+000	0.0000000E+000	11.2621	5.02181	78.7379	-2.8226e-05
57712.3	0.0803194	0.0153281	0.0817689	-10.8044	29.5735	-3.15722e-05	-0.0332972	179.913	6.32214	1	37	0.00509599	0.0623219	0	-3.68249e-05	0.318134	0.217798	6.31176	6.75138e-06	5.18532e-06	6.49707e-06	8.05609e-06	3.5996e-06	6.40441e-06	0.088857	0.0340021	0.310946	5.6069e-06	5.44678e-05	5.43153e-06	4.75596e-06	1.59734e-06	2.97387e-06	12.0128	2.29251	12.2296	10.8044	6322.14	33128	33725.9	-79.1956	0.0000000E+000	0.0000000E+000	0.0000000E+000	79.1956	0.0000000E+000	0.0000000E+000	0.0000000E+000	-79.1956	0.0000000E+000	0.0000000E+000	0.0000000E+000	-10.8044	0.0000000E+000	0.0000000E+000	0.0000000E+000	10.8044	5.24001	79.1956	-1.07232e-05
45817.2	0.0814197	0.0151272	0.0828131	-10.5252	31.8695	-3.46292e-05	-0.0322922	229.631	7.66219	1	37	0.00509274	0.0614968	0	0.000165234	0.464645	0.249	6.36383	5.58594e-06	7.21064e-06	1.4921e-05	9.8618e-06	7.53939e-06	5.16381e-06	0.119354	0.0329513	0.31834	3.44297e-06	7.25733e-05	3.47458e-06	5.01134e-06	4.57157e-06	5.87975e-06	11.8722	2.20578	12.0754	10.5252	7662.19	41240.4	41946.1	-79.4748	0.0000000E+000	0.0000000E+000	0.0000000E+000	79.4748	0.0000000E+000	0.0000000E+000	0.0000000E+000	-79.4748	0.0000000E+000	0.0000000E+000	0.0000000E+000	-10.5252	0.0000000E+000	0.0000000E+000	0.0000000E+000	10.5252	5.38233	79.4748	0.00011643
36381	0.0827468	0.0153933	0.0841664	-10.5382	34.1645	-3.42191e-05	-0.0276394	284.193	9.50605	1	37	0.0050841	0.0604053	0	7.82656e-05	0.356406	0.199667	6.28062	3.96933e-06	6.91724e-06	1.00203e-05	6.75338e-06	5.69168e-06	7.29167e-06	0.129227	0.0225282	0.317751	6.39846e-06	7.70853e-05	4.72273e-06	7.92676e-06	1.40696e-06	4.43896e-06	11.6808	2.17298	11.8812	10.5382	9506.05	51099.8	51976.4	-79.4618	0.0000000E+000	0.0000000E+000	0.0000000E+000	79.4618	0.0000000E+000	0.0000000E+000	0.0000000E+000	-79.4618	0.0000000E+000	0.0000000E+000	0.0000000E+000	-10.5382	0.0000000E+000	0.0000000E+000	0.0000000E+000	10.5382	5.3755	79.4618	-7.21621e-05
28884	0.0845326	0.0159799	0.0860298	-10.7048	36.4605	-3.78914e-05	-0.0463438	344.818	11.897	1	37	0.0051001	0.059283	0	0.000181856	0.297024	0.2158	6.32022	5.69703e-06	5.27616e-06	5.20574e-06	6.24682e-06	8.07589e-06	3.86826e-06	0.124674	0.0445409	0.326774	1.2741e-05	7.19937e-05	3.52656e-06	7.40458e-06	5.35546e-06	4.65116e-06	11.4216	2.15911	11.6239	10.7048	11897	62934.7	64049.3	-79.2952	0.0000000E+000	0.0000000E+000	0.0000000E+000	79.2952	0.0000000E+000	0.0000000E+000	0.0000000E+000	-79.2952	0.0000000E+000	0.0000000E+000	0.0000000E+000	-10.7048	0.0000000E+000	0.0000000E+000	0.0000000E+000	10.7048	5.28995	79.2952	6.32367e-06
22927.2	0.0864641	0.0167553	0.0880726	-10.967	38.7565	-3.51512e-05	-0.0311941	414.302	14.9948	1	37	0.00508892	0.057781	0	0.000141133	0.402626	0.266739	6.37112	8.89566e-06	7.22577e-06	1.1804e-05	7.57755e-06	4.684e-06	4.36947e-06	0.128644	0.0491994	0.332128	5.32519e-06	7.33937e-05	4.75613e-06	6.43956e-06	5.65631e-06	3.39851e-06	11.1469	2.16009	11.3543	10.967	14994.8	77379.1	78818.6	-79.033	0.0000000E+000	0.0000000E+000	0.0000000E+000	79.033	0.0000000E+000	0.0000000E+000	0.0000000E+000	-79.033	0.0000000E+000	0.0000000E+000	0.0000000E+000	-10.967	0.0000000E+000	0.0000000E+000	0.0000000E+000	10.967	5.1604	79.033	-9.3869e-06
18204.4	0.0882235	0.0177529	0.089992	-11.3775	41.0525	-4.16195e-05	-0.0509408	492.462	19.1649	1	37	0.00508891	0.0565485	0	8.54669e-05	0.373732	0.227631	6.31307	6.10196e-06	5.71055e-06	6.60026e-06	9.59547e-06	7.6557e-06	8.83192e-06	0.116133	0.052365	0.345795	1.4985e-06	6.42646e-05	4.37863e-06	9.35541e-06	5.24056e-06	4.43009e-06	10.8937	2.19211	11.1121	11.3775	19164.9	95240.1	97149.2	-78.6225	0.0000000E+000	0.0000000E+000	0.0000000E+000	78.6225	0.0000000E+000	0.0000000E+000	0.0000000E+000	-78.6225	0.0000000E+000	0.0000000E+000	0.0000000E+000	-11.3775	0.0000000E+000	0.0000000E+000	0.0000000E+000	11.3775	4.96952	78.6225	-5.94373e-05
14455.9	0.0906925	0.0189651	0.0926542	-11.8112	43.3495	-4.62051e-05	-0.0505685	580.523	24.322	1	37	0.00508084	0.0548366	0	8.65267e-05	0.27621	0.147416	6.32029	5.80021e-06	5.8214e-06	3.46478e-06	5.89e-06	6.15892e-06	2.86831e-06	0.105166	0.0197119	0.3505	4.65444e-06	5.64678e-05	2.9599e-06	8.74564e-06	1.99531e-06	3.86945e-06	10.5643	2.20915	10.7928	11.8112	24322	116310	118826	-78.1888	0.0000000E+000	0.0000000E+000	0.0000000E+000	78.1888	0.0000000E+000	0.0000000E+000	0.0000000E+000	-78.1888	0.0000000E+000	0.0000000E+000	0.0000000E+000	-11.8112	0.0000000E+000	0.0000000E+000	0.0000000E+000	11.8112	4.78207	78.1888	5.66265e-05
11477.5	0.0930974	0.0202081	0.0952654	-12.2469	45.6455	-4.03146e-05	-0.0473488	686.195	30.8764	1	37	0.00507939	0.0533183	0	0.000100307	0.294765	0.160252	6.29626	3.15972e-06	7.12937e-06	4.69969e-06	5.38258e-06	6.4963e-06	7.11018e-06	0.0989299	0.0212655	0.362823	7.19252e-06	5.08376e-05	5.23961e-06	7.61556e-06	4.84493e-06	4.4794e-06	10.2581	2.22666	10.497	12.2469	30876.4	142246	145558	-77.7531	0.0000000E+000	0.0000000E+000	0.0000000E+000	77.7531	0.0000000E+000	0.0000000E+000	0.0000000E+000	-77.7531	0.0000000E+000	0.0000000E+000	0.0000000E+000	-12.2469	0.0000000E+000	0.0000000E+000	0.0000000E+000	12.2469	4.60694	77.7531	-6.17213e-05
9107.2	0.0957366	0.0216217	0.0981478	-12.7265	47.9455	-0.000151842	-0.278594	808.251	39.2251	1	37	0.00517926	0.05277	0	3.62541e-05	0.277598	0.191613	6.18212	7.08702e-06	7.46001e-06	3.12427e-06	4.57507e-06	4.83786e-06	4.68e-06	0.121827	0.0218615	0.366272	4.51742e-06	6.30669e-05	3.64854e-06	9.89998e-06	3.49534e-06	2.51849e-06	9.93841	2.24455	10.1887	12.7265	39225.1	173681	178055	-77.2735	0.0000000E+000	0.0000000E+000	0.0000000E+000	77.2735	0.0000000E+000	0.0000000E+000	0.0000000E+000	-77.2735	0.0000000E+000	0.0000000E+000	0.0000000E+000	-12.7265	0.0000000E+000	0.0000000E+000	0.0000000E+000	12.7265	4.4278	77.2735	-7.60155e-05
7234.84	0.0989601	0.023413	0.101692	-13.3109	50.2947	-0.000152327	-0.274481	939.579	49.8052	1	37	0.00509701	0.050122	0	-0.00017324	0.383815	0.269454	6.3223	4.26235e-06	4.50683e-06	9.7258e-06	1.1139e-05	4.60187e-06	7.51212e-06	0.107793	0.0355634	0.393262	5.43096e-06	5.26183e-05	3.78289e-06	7.78865e-06	4.65794e-06	2.71602e-06	9.56943	2.26404	9.83361	13.3109	49805.2	210512	216324	-76.6891	0.0000000E+000	0.0000000E+000	0.0000000E+000	76.6891	0.0000000E+000	0.0000000E+000	0.0000000E+000	-76.6891	0.0000000E+000	0.0000000E+000	0.0000000E+000	-13.3109	0.0000000E+000	0.0000000E+000	0.0000000E+000	13.3109	4.22671	76.6891	-9.69841e-05
5743.33	0.101825	0.0249062	0.104827	-13.7446	52.7866	-0.000167388	-0.290766	1112.62	62.8088	1	37	0.00507959	0.0484571	0	-0.000401084	0.43759	0.919958	6.40824	6.95371e-06	9.13047e-06	9.60878e-06	8.8689e-06	8.7433e-06	9.28326e-06	0.10154	0.0610755	0.39798	5.20618e-06	4.74919e-05	3.86128e-06	7.51529e-06	6.65645e-06	2.72886e-06	9.26639	2.26655	9.53957	13.7446	62808.8	256783	264353	-76.2554	0.0000000E+000	0.0000000E+000	0.0000000E+000	76.2554	0.0000000E+000	0.0000000E+000	0.0000000E+000	-76.2554	0.0000000E+000	0.0000000E+000	0.0000000E+000	-13.7446	0.0000000E+000	0.0000000E+000	0.0000000E+000	13.7446	4.08833	76.2554	-0.000115414
4558.54	0.105212	0.0269936	0.10862	-14.3896	55.4518	-0.000164797	-0.283712	1293.4	79.8797	1	37	0.00508821	0.0468441	0	-0.000567703	0.259873	0.223909	6.3771	6.87113e-06	4.56111e-06	4.98703e-06	4.515e-06	6.55782e-06	1.88039e-06	0.0773116	0.0139932	0.417124	3.51755e-06	3.44048e-05	4.06839e-06	5.03083e-06	5.54842e-06	3.16311e-06	8.91759	2.28793	9.20641	14.3896	79879.7	311345	321429	-75.6104	0.0000000E+000	0.0000000E+000	0.0000000E+000	75.6104	0.0000000E+000	0.0000000E+000	0.0000000E+000	-75.6104	0.0000000E+000	0.0000000E+000	0.0000000E+000	-14.3896	0.0000000E+000	0.0000000E+000	0.0000000E+000	14.3896	3.89767	75.6104	-4.01495e-06
3621.16	0.108945	0.0289233	0.112719	-14.8683	58.1097	-0.000156968	-0.267371	1519.58	100.053	1	37	0.00508383	0.045102	0	-0.000807741	0.337484	0.219334	6.36844	5.05448e-06	1.12278e-05	6.21749e-06	4.75391e-06	6.32713e-06	5.09838e-06	0.0739537	0.0652328	0.433124	4.04359e-06	3.0675e-05	4.39892e-06	5.40945e-06	5.97583e-06	6.86334e-06	8.57462	2.27645	8.87166	14.8683	100053	376866	389921	-75.1317	0.0000000E+000	0.0000000E+000	0.0000000E+000	75.1317	0.0000000E+000	0.0000000E+000	0.0000000E+000	-75.1317	0.0000000E+000	0.0000000E+000	0.0000000E+000	-14.8683	0.0000000E+000	0.0000000E+000	0.0000000E+000	14.8683	3.76666	75.1317	-0.000102767
2874.08	0.113036	0.0312565	0.117278	-15.4571	60.7678	-0.000151059	-0.279748	1771.66	125.843	1	37	0.0051088	0.0435616	0	-0.000932256	0.307069	0.27088	6.24664	6.30205e-06	4.33993e-06	3.31077e-06	6.04095e-06	1.01792e-05	3.39283e-06	0.0546351	0.0909208	0.450552	3.69503e-06	2.04397e-05	4.43466e-06	7.2145e-06	4.32959e-06	4.52544e-06	8.21836	2.27253	8.52677	15.4571	125843	455099	472177	-74.5429	0.0000000E+000	0.0000000E+000	0.0000000E+000	74.5429	0.0000000E+000	0.0000000E+000	0.0000000E+000	-74.5429	0.0000000E+000	0.0000000E+000	0.0000000E+000	-15.4571	0.0000000E+000	0.0000000E+000	0.0000000E+000	15.4571	3.61639	74.5429	-2.75078e-05
2282.19	0.117704	0.0337036	0.122435	-15.9786	63.4246	-0.000141813	-0.254883	2069.16	156.797	1	37	0.00507608	0.0414595	0	-0.00110366	0.379429	0.161009	6.25691	4.99165e-06	9.95404e-06	7.10685e-06	7.17106e-06	8.35678e-06	6.85495e-06	0.0405978	0.0779808	0.479288	3.98953e-06	1.40971e-05	3.53032e-06	2.55033e-06	5.57624e-06	1.67098e-06	7.85207	2.24837	8.16763	15.9786	156797	547587	569593	-74.0214	0.0000000E+000	0.0000000E+000	0.0000000E+000	74.0214	0.0000000E+000	0.0000000E+000	0.0000000E+000	-74.0214	0.0000000E+000	0.0000000E+000	0.0000000E+000	-15.9786	0.0000000E+000	0.0000000E+000	0.0000000E+000	15.9786	3.49234	74.0214	-7.6655e-05
1811.74	0.122446	0.0361014	0.127657	-16.4274	66.0806	-0.000143174	-0.243605	2433.32	194.607	1	37	0.00505488	0.0395974	0	-0.00121659	0.343952	0.245359	6.37607	5.9453e-06	6.6029e-06	8.08487e-06	6.75474e-06	8.84158e-06	2.73566e-06	0.0403337	0.142094	0.50305	4.09701e-06	1.03788e-05	3.60173e-06	5.45734e-06	6.29282e-06	5.27215e-06	7.51372	2.21532	7.8335	16.4274	194607	660053	688144	-73.5726	0.0000000E+000	0.0000000E+000	0.0000000E+000	73.5726	0.0000000E+000	0.0000000E+000	0.0000000E+000	-73.5726	0.0000000E+000	0.0000000E+000	0.0000000E+000	-16.4274	0.0000000E+000	0.0000000E+000	0.0000000E+000	16.4274	3.39172	73.5726	-4.29645e-05
1438.62	0.127124	0.0388353	0.132924	-16.9874	68.7369	-0.000144087	-0.229926	2848.71	243.162	1	37	0.00513911	0.038662	0	-0.00134126	0.342625	0.188712	6.34711	4.90551e-06	8.36631e-06	8.4135e-06	6.02643e-06	5.54452e-06	7.50861e-06	0.0272909	0.0607866	0.500936	3.12173e-06	4.98437e-06	4.03905e-06	4.41072e-06	4.72182e-06	1.6999e-06	7.19486	2.19796	7.5231	16.9874	243162	795971	832284	-73.0126	0.0000000E+000	0.0000000E+000	0.0000000E+000	73.0126	0.0000000E+000	0.0000000E+000	0.0000000E+000	-73.0126	0.0000000E+000	0.0000000E+000	0.0000000E+000	-16.9874	0.0000000E+000	0.0000000E+000	0.0000000E+000	16.9874	3.27342	73.0126	-2.49563e-05
1141.82	0.132815	0.0417334	0.139218	-17.4438	71.3924	-0.00014899	-0.247402	3339.93	300.134	1	37	0.00507084	0.0364238	0	-0.00156363	0.365918	0.240709	6.39704	7.96147e-06	7.92664e-06	4.21082e-06	9.03426e-06	7.17468e-06	4.99414e-06	0.0376795	0.0536016	0.537434	3.41939e-06	5.17286e-06	4.42193e-06	6.24295e-06	6.84486e-06	3.29801e-06	6.85266	2.15325	7.18299	17.4438	300134	955169	1.00121e+06	-72.5562	0.0000000E+000	0.0000000E+000	0.0000000E+000	72.5562	0.0000000E+000	0.0000000E+000	0.0000000E+000	-72.5562	0.0000000E+000	0.0000000E+000	0.0000000E+000	-17.4438	0.0000000E+000	0.0000000E+000	0.0000000E+000	17.4438	3.18247	72.5562	-0.000120562
907.034	0.138625	0.0447686	0.145675	-17.8977	73.8283	-0.000151059	-0.270796	3919.43	370.169	1	37	0.00544168	0.037355	0	-0.00173473	0.315163	0.160801	6.05175	9.88323e-06	4.36727e-06	2.75408e-06	5.24214e-06	8.36515e-06	7.42429e-06	0.0445838	0.0797443	0.524037	3.67674e-06	8.74346e-06	6.76002e-06	8.32651e-06	5.79686e-06	3.69592e-06	6.5324	2.10962	6.8646	17.8977	370169	1.14622e+06	1.20451e+06	-72.1023	0.0000000E+000	0.0000000E+000	0.0000000E+000	72.1023	0.0000000E+000	0.0000000E+000	0.0000000E+000	-72.1023	0.0000000E+000	0.0000000E+000	0.0000000E+000	-17.8977	0.0000000E+000	0.0000000E+000	0.0000000E+000	17.8977	3.09649	72.1023	-5.02135e-05
719.771	0.144738	0.0479832	0.152484	-18.3413	76.2658	-0.000153948	-0.263947	4608.26	456.315	1	37	0.00532358	0.0349123	0	-0.00192925	0.317479	0.164834	6.08864	6.76933e-06	7.22496e-06	5.72494e-06	7.88379e-06	6.43906e-06	5.19615e-06	0.0597148	0.091526	0.553674	4.61938e-06	1.44928e-05	7.8566e-06	8.94234e-06	5.86186e-06	2.02991e-06	6.22489	2.06366	6.55805	18.3413	456315	1.37644e+06	1.45011e+06	-71.6587	0.0000000E+000	0.0000000E+000	0.0000000E+000	71.6587	0.0000000E+000	0.0000000E+000	0.0000000E+000	-71.6587	0.0000000E+000	0.0000000E+000	0.0000000E+000	-18.3413	0.0000000E+000	0.0000000E+000	0.0000000E+000	18.3413	3.01643	71.6587	-0.000112056
571.647	0.151032	0.0515358	0.159583	-18.8409	78.6992	-0.000125018	-0.250491	5402.36	563.416	1	37	0.00528153	0.0330959	0	-0.00209443	0.326805	0.139315	6.08663	4.2917e-06	1.03007e-05	6.83401e-06	7.04496e-06	6.23038e-06	3.46299e-06	0.061115	0.0793689	0.587198	5.73407e-06	1.4719e-05	4.63652e-06	9.72587e-06	3.44271e-06	3.7813e-06	5.93058	2.02366	6.26634	18.8409	563416	1.65116e+06	1.74464e+06	-71.1591	0.0000000E+000	0.0000000E+000	0.0000000E+000	71.1591	0.0000000E+000	0.0000000E+000	0.0000000E+000	-71.1591	0.0000000E+000	0.0000000E+000	0.0000000E+000	-18.8409	0.0000000E+000	0.0000000E+000	0.0000000E+000	18.8409	2.93063	71.1591	-8.67926e-05
453.693	0.157944	0.0552908	0.167342	-19.2934	80.9153	-0.000109658	-0.224994	6344.61	692.63	1	37	0.00548973	0.0328055	0	-0.00224925	0.307713	0.229627	5.84081	6.54694e-06	5.90714e-06	3.95704e-06	4.9072e-06	8.49229e-06	8.52193e-06	0.0640823	0.0894456	0.596487	4.3522e-06	1.56302e-05	6.54467e-06	7.85255e-06	4.55855e-06	5.91763e-06	5.64018	1.97444	5.97579	19.2934	692630	1.97857e+06	2.0963e+06	-70.7066	0.0000000E+000	0.0000000E+000	0.0000000E+000	70.7066	0.0000000E+000	0.0000000E+000	0.0000000E+000	-70.7066	0.0000000E+000	0.0000000E+000	0.0000000E+000	-19.2934	0.0000000E+000	0.0000000E+000	0.0000000E+000	19.2934	2.8566	70.7066	-4.87316e-05
360.346	0.165071	0.0598372	0.175581	-19.9253	83.3536	-0.000110273	-0.215577	7381.25	857.263	1	37	0.00508113	0.0289388	0	-0.00239208	0.364585	0.243773	6.37044	8.99662e-06	6.07553e-06	7.16181e-06	6.33161e-06	6.34383e-06	8.32234e-06	0.108839	0.178995	0.688372	6.57746e-06	2.52092e-05	8.44566e-06	1.29296e-05	4.82558e-06	5.31941e-06	5.35442	1.94095	5.69536	19.9253	857263	2.3649e+06	2.51549e+06	-70.0747	0.0000000E+000	0.0000000E+000	0.0000000E+000	70.0747	0.0000000E+000	0.0000000E+000	0.0000000E+000	-70.0747	0.0000000E+000	0.0000000E+000	0.0000000E+000	-19.9253	0.0000000E+000	0.0000000E+000	0.0000000E+000	19.9253	2.75867	70.0747	-7.95346e-05
286.007	0.172435	0.0648265	0.184218	-20.6036	85.562	-0.000118717	-0.222463	8584.03	1063	1	37	0.00507258	0.0275357	0	-0.00255885	0.362537	0.148639	6.37466	5.92088e-06	1.13453e-05	7.74186e-06	6.5071e-06	5.21221e-06	4.13166e-06	0.112915	0.119842	0.718585	6.86162e-06	2.47971e-05	4.09659e-06	1.41342e-05	6.46634e-06	3.12311e-06	5.08114	1.91024	5.42835	20.6036	1.063e+06	2.82751e+06	3.02073e+06	-69.3964	0.0000000E+000	0.0000000E+000	0.0000000E+000	69.3964	0.0000000E+000	0.0000000E+000	0.0000000E+000	-69.3964	0.0000000E+000	0.0000000E+000	0.0000000E+000	-20.6036	0.0000000E+000	0.0000000E+000	0.0000000E+000	20.6036	2.65995	69.3964	-7.97195e-05
227.108	0.181598	0.0711373	0.195034	-21.3917	87.7719	-0.000109397	-0.20495	9851.24	1310.58	1	37	0.00504756	0.0258804	0	-0.00269671	0.373764	0.199387	6.33538	3.87701e-06	9.05436e-06	7.02191e-06	4.33044e-06	6.95327e-06	8.24746e-06	0.114986	0.131602	0.754926	7.30356e-06	2.30014e-05	5.46739e-06	1.42836e-05	4.23261e-06	5.07503e-06	4.77408	1.87015	5.12731	21.3917	1.31058e+06	3.34563e+06	3.59317e+06	-68.6083	0.0000000E+000	0.0000000E+000	0.0000000E+000	68.6083	0.0000000E+000	0.0000000E+000	0.0000000E+000	-68.6083	0.0000000E+000	0.0000000E+000	0.0000000E+000	-21.3917	0.0000000E+000	0.0000000E+000	0.0000000E+000	21.3917	2.55278	68.6083	-0.000101967
180.288	0.189902	0.0783774	0.20544	-22.4272	89.9805	-0.000133705	-0.228493	11263.2	1639.35	1	37	0.00501113	0.0243922	0	-0.00276678	0.357408	0.133713	6.43667	1.22644e-05	5.57641e-06	5.62691e-06	6.8666e-06	5.24638e-06	3.4686e-06	0.148097	0.0886285	0.793846	5.23314e-06	2.69965e-05	5.03194e-06	2.17031e-05	5.50913e-06	2.97039e-06	4.49943	1.85703	4.86759	22.4272	1.63935e+06	3.97201e+06	4.29701e+06	-67.5728	0.0000000E+000	0.0000000E+000	0.0000000E+000	67.5728	0.0000000E+000	0.0000000E+000	0.0000000E+000	-67.5728	0.0000000E+000	0.0000000E+000	0.0000000E+000	-22.4272	0.0000000E+000	0.0000000E+000	0.0000000E+000	22.4272	2.42291	67.5728	-4.88231e-05
143.122	0.200919	0.0867989	0.218867	-23.3648	92.1984	-0.000107757	-0.226018	12811.5	2014.97	1	37	0.00496275	0.0226748	0	-0.00292884	0.327693	0.184851	6.50734	4.14032e-06	7.33384e-06	9.10946e-06	7.15706e-06	4.48324e-06	3.90859e-06	0.156541	0.0952	0.863236	9.15851e-06	2.42437e-05	3.57369e-06	2.22935e-05	3.69988e-06	3.49131e-06	4.19433	1.81199	4.56899	23.3648	2.01497e+06	4.66419e+06	5.08083e+06	-66.6352	0.0000000E+000	0.0000000E+000	0.0000000E+000	66.6352	0.0000000E+000	0.0000000E+000	0.0000000E+000	-66.6352	0.0000000E+000	0.0000000E+000	0.0000000E+000	-23.3648	0.0000000E+000	0.0000000E+000	0.0000000E+000	23.3648	2.31477	66.6352	-8.96144e-05
113.654	0.215232	0.0957398	0.235566	-23.9805	94.4281	-0.000125186	-0.255293	14626.6	2416.04	1	37	0.00492799	0.0209198	0	-0.00306829	0.401453	0.16865	6.62152	3.40753e-06	8.15463e-06	5.26839e-06	8.22094e-06	1.25677e-05	7.05518e-06	0.169955	0.054118	0.931929	9.55171e-06	2.27171e-05	6.47611e-06	2.39367e-05	4.57914e-06	1.86538e-06	3.87868	1.72532	4.2451	23.9805	2.41604e+06	5.43149e+06	5.94461e+06	-66.0195	0.0000000E+000	0.0000000E+000	0.0000000E+000	66.0195	0.0000000E+000	0.0000000E+000	0.0000000E+000	-66.0195	0.0000000E+000	0.0000000E+000	0.0000000E+000	-23.9805	0.0000000E+000	0.0000000E+000	0.0000000E+000	23.9805	2.2481	66.0195	-8.60347e-05
90.2601	0.230795	0.104591	0.253389	-24.3789	96.6332	-0.00011965	-0.235603	16858.9	2872.4	1	37	0.00488245	0.0192686	0	-0.00320765	0.285556	0.201304	6.62224	5.7907e-06	8.85544e-06	3.8238e-06	2.11877e-06	2.84974e-06	4.73287e-06	0.186243	0.0768372	1.01679	1.13555e-05	2.05052e-05	3.6049e-06	2.58807e-05	5.95271e-06	2.50975e-06	3.59462	1.629	3.94651	24.3789	2.8724e+06	6.33837e+06	6.95885e+06	-65.6211	0.0000000E+000	0.0000000E+000	0.0000000E+000	65.6211	0.0000000E+000	0.0000000E+000	0.0000000E+000	-65.6211	0.0000000E+000	0.0000000E+000	0.0000000E+000	-24.3789	0.0000000E+000	0.0000000E+000	0.0000000E+000	24.3789	2.20665	65.6211	-7.51212e-05
71.6276	0.250521	0.112369	0.274568	-24.1582	98.8342	-0.000128597	-0.242954	19773.9	3311.96	1	37	0.00485577	0.0176851	0	-0.00338508	0.358632	0.169357	6.63528	8.24693e-06	8.09297e-06	4.75595e-06	7.32581e-06	5.11662e-06	3.24715e-06	0.183827	0.0605524	1.09897	6.50799e-06	2.15517e-05	8.58418e-06	2.09034e-05	1.29453e-06	3.04285e-06	3.3231	1.49055	3.64208	24.1582	3.31196e+06	7.38385e+06	8.09261e+06	-65.8418	0.0000000E+000	0.0000000E+000	0.0000000E+000	65.8418	0.0000000E+000	0.0000000E+000	0.0000000E+000	-65.8418	0.0000000E+000	0.0000000E+000	0.0000000E+000	-24.1582	0.0000000E+000	0.0000000E+000	0.0000000E+000	24.1582	2.22945	65.8418	-9.19981e-05
56.8746	0.272215	0.118326	0.296819	-23.4935	101.042	-0.00011937	-0.238897	23649.6	3758.34	1	37	0.0048311	0.0162762	0	-0.00352808	0.390493	0.0974891	6.76776	8.78583e-06	7.82364e-06	7.28055e-06	5.44842e-06	3.88517e-06	7.18598e-06	0.186109	0.103649	1.17976	6.51048e-06	1.66377e-05	2.03429e-06	2.2453e-05	6.18365e-06	5.19896e-06	3.08978	1.34306	3.36905	23.4935	3.75834e+06	8.64627e+06	9.42778e+06	-66.5065	0.0000000E+000	0.0000000E+000	0.0000000E+000	66.5065	0.0000000E+000	0.0000000E+000	0.0000000E+000	-66.5065	0.0000000E+000	0.0000000E+000	0.0000000E+000	-23.4935	0.0000000E+000	0.0000000E+000	0.0000000E+000	23.4935	2.30056	66.5065	-6.71172e-05
45.1589	0.295904	0.121184	0.319758	-22.271	103.25	-0.000126994	-0.24234	29082.5	4177.15	1	37	0.00481025	0.0150434	0	-0.0036544	0.349395	0.183999	6.72237	7.47674e-06	5.32047e-06	5.2755e-06	7.24322e-06	7.57004e-06	4.75374e-06	0.187818	0.157325	1.28999	8.20762e-06	1.46129e-05	5.75995e-06	1.92573e-05	6.88503e-06	4.3628e-06	2.89407	1.18523	3.12737	22.271	4.17715e+06	1.01997e+07	1.10219e+07	-67.729	0.0000000E+000	0.0000000E+000	0.0000000E+000	67.729	0.0000000E+000	0.0000000E+000	0.0000000E+000	-67.729	0.0000000E+000	0.0000000E+000	0.0000000E+000	-22.271	0.0000000E+000	0.0000000E+000	0.0000000E+000	22.271	2.44178	67.729	-6.28306e-05
35.8607	0.319363	0.120101	0.341199	-20.6095	105.45	-0.000123061	-0.234914	36953.5	4578.58	1	37	0.00479664	0.0140582	0	-0.00380455	0.302496	0.14806	6.71604	6.81888e-06	3.71224e-06	6.89325e-06	6.73674e-06	5.93703e-06	3.20785e-06	0.204392	0.0786705	1.37963	7.25596e-06	1.52623e-05	7.33878e-06	1.92246e-05	5.97065e-06	6.67896e-06	2.74327	1.03164	2.93084	20.6095	4.57858e+06	1.2175e+07	1.30075e+07	-69.3905	0.0000000E+000	0.0000000E+000	0.0000000E+000	69.3905	0.0000000E+000	0.0000000E+000	0.0000000E+000	-69.3905	0.0000000E+000	0.0000000E+000	0.0000000E+000	-20.6095	0.0000000E+000	0.0000000E+000	0.0000000E+000	20.6095	2.65912	69.3905	-6.03062e-05
28.4608	0.342778	0.114957	0.361541	-18.5398	107.666	-0.000114896	-0.214237	48644.9	4918.04	1	37	0.00478364	0.0132313	0	-0.00396733	0.299722	0.208514	6.78168	6.45277e-06	6.07713e-06	5.98828e-06	4.76382e-06	4.5889e-06	4.46564e-06	0.213764	0.0996051	1.47895	7.96584e-06	1.40507e-05	5.44656e-06	2.05192e-05	8.01983e-06	2.67441e-06	2.6224	0.879468	2.76594	18.5398	4.91805e+06	1.46646e+07	1.54673e+07	-71.4602	0.0000000E+000	0.0000000E+000	0.0000000E+000	71.4602	0.0000000E+000	0.0000000E+000	0.0000000E+000	-71.4602	0.0000000E+000	0.0000000E+000	0.0000000E+000	-18.5398	0.0000000E+000	0.0000000E+000	0.0000000E+000	18.5398	2.9818	71.4602	-6.53232e-05
22.6056	0.363499	0.107415	0.379038	-16.4626	109.927	-0.000111093	-0.207965	65544.7	5263.87	1	37	0.00477666	0.0126021	0	-0.00412641	0.245853	0.120692	4.68082	5.13498e-06	3.96514e-06	3.95316e-06	3.90836e-06	4.0186e-06	5.45041e-06	0.189392	0.0591705	1.12765	6.34857e-06	1.25001e-05	4.44645e-06	1.63527e-05	5.6513e-06	6.45437e-06	2.5301	0.747655	2.63826	16.4626	5.26387e+06	1.78132e+07	1.85747e+07	-73.5374	0.0000000E+000	0.0000000E+000	0.0000000E+000	73.5374	0.0000000E+000	0.0000000E+000	0.0000000E+000	-73.5374	0.0000000E+000	0.0000000E+000	0.0000000E+000	-16.4626	0.0000000E+000	0.0000000E+000	0.0000000E+000	16.4626	3.38405	73.5374	-6.56496e-05
17.9391	0.381839	0.0980216	0.394219	-14.3975	112.195	-0.000109257	-0.203582	90510	5595.83	1	37	0.00477509	0.0121128	0	-0.00422645	0.247189	0.133318	4.71878	2.88626e-06	5.48647e-06	3.19493e-06	2.21595e-06	5.51239e-06	6.35748e-06	0.16473	0.0722615	1.17247	5.49156e-06	1.14619e-05	1.97444e-06	1.39937e-05	2.1653e-06	3.22651e-06	2.45699	0.630734	2.53666	14.3975	5.59583e+06	2.17983e+07	2.25051e+07	-75.6025	0.0000000E+000	0.0000000E+000	0.0000000E+000	75.6025	0.0000000E+000	0.0000000E+000	0.0000000E+000	-75.6025	0.0000000E+000	0.0000000E+000	0.0000000E+000	-14.3975	0.0000000E+000	0.0000000E+000	0.0000000E+000	14.3975	3.89545	75.6025	-2.55621e-05
14.2477	0.397793	0.0874538	0.407293	-12.3991	114.403	-0.000112771	-0.214181	127731	5888.97	1	37	0.0047739	0.0117211	0	-0.00438903	0.311352	0.212217	6.76099	5.49539e-06	5.86907e-06	6.70564e-06	5.37575e-06	2.92966e-06	6.67946e-06	0.183575	0.0755399	1.66948	5.81516e-06	1.0271e-05	5.61296e-06	1.56515e-05	4.40616e-06	2.81424e-06	2.39797	0.527188	2.45524	12.3991	5.88898e+06	2.67866e+07	2.74263e+07	-77.6009	0.0000000E+000	0.0000000E+000	0.0000000E+000	77.6009	0.0000000E+000	0.0000000E+000	0.0000000E+000	-77.6009	0.0000000E+000	0.0000000E+000	0.0000000E+000	-12.3991	0.0000000E+000	0.0000000E+000	0.0000000E+000	12.3991	4.5486	77.6009	-6.78666e-05
11.3142	0.410198	0.0765686	0.417283	-10.5733	116.647	-0.000120227	-0.226856	183715	6185.63	1	37	0.00477071	0.0114328	0	-0.00455251	0.32602	0.171449	6.80964	5.07962e-06	8.83833e-06	4.65658e-06	3.43933e-06	6.25464e-06	6.5025e-06	0.157059	0.0912849	1.69421	7.45043e-06	7.96827e-06	5.06189e-06	1.14617e-05	4.38203e-06	2.66031e-06	2.35576	0.439733	2.39645	10.5733	6.18563e+06	3.3138e+07	3.37104e+07	-79.4267	0.0000000E+000	0.0000000E+000	0.0000000E+000	79.4267	0.0000000E+000	0.0000000E+000	0.0000000E+000	-79.4267	0.0000000E+000	0.0000000E+000	0.0000000E+000	-10.5733	0.0000000E+000	0.0000000E+000	0.0000000E+000	10.5733	5.35726	79.4267	-9.86927e-05
8.97989	0.419102	0.0661948	0.424298	-8.9754	118.896	-0.000124738	-0.228577	267748	6516.76	1	37	0.00476603	0.0112328	0	-0.00466012	0.24267	0.204908	4.6555	5.37878e-06	2.87395e-06	2.30834e-06	6.02494e-06	3.89352e-06	3.87158e-06	0.1719	0.110539	1.25106	7.73398e-06	7.39163e-06	5.55028e-06	1.29303e-05	5.78938e-06	3.20868e-06	2.32798	0.367691	2.35684	8.9754	6.51676e+06	4.12599e+07	4.17714e+07	-81.0246	0.0000000E+000	0.0000000E+000	0.0000000E+000	81.0246	0.0000000E+000	0.0000000E+000	0.0000000E+000	-81.0246	0.0000000E+000	0.0000000E+000	0.0000000E+000	-8.9754	0.0000000E+000	0.0000000E+000	0.0000000E+000	8.9754	6.33135	81.0246	-6.09914e-05
7.12819	0.426425	0.0568616	0.430199	-7.5953	121.375	-0.000119603	-0.220258	392665	6859.94	1	37	0.00476348	0.0110727	0	-0.00492732	0.188934	0.199447	5.13467	3.36874e-06	3.93364e-06	3.40257e-06	3.91485e-06	2.40524e-06	4.22918e-06	0.218276	0.0808948	1.29884	8.53789e-06	9.17214e-06	5.2625e-06	8.72294e-06	1.46365e-06	1.72412e-05	2.30411	0.307242	2.3245	7.5953	6.85994e+06	5.14451e+07	5.19004e+07	-82.4047	0.0000000E+000	0.0000000E+000	0.0000000E+000	82.4047	0.0000000E+000	0.0000000E+000	0.0000000E+000	-82.4047	0.0000000E+000	0.0000000E+000	0.0000000E+000	-7.5953	0.0000000E+000	0.0000000E+000	0.0000000E+000	7.5953	7.49935	82.4047	-7.79742e-05
5.66123	0.432292	0.0486372	0.435019	-6.41936	124.234	-0.000118177	-0.22492	578016	7225.38	1	37	0.00476632	0.0109566	0	-0.00503777	0.233654	0.132207	3.78176	6.04935e-06	4.2411e-06	3.07148e-06	4.43796e-06	2.36052e-06	4.85547e-06	0.133089	0.0686804	1.08268	4.45742e-06	7.15127e-06	3.98992e-06	8.86798e-06	3.88675e-06	3.67747e-06	2.28434	0.257011	2.29875	6.41936	7.22538e+06	6.42198e+07	6.4625e+07	-83.5806	0.0000000E+000	0.0000000E+000	0.0000000E+000	83.5806	0.0000000E+000	0.0000000E+000	0.0000000E+000	-83.5806	0.0000000E+000	0.0000000E+000	0.0000000E+000	-6.41936	0.0000000E+000	0.0000000E+000	0.0000000E+000	6.41936	8.88809	83.5806	-3.19194e-05
4.49511	0.436429	0.0414771	0.438396	-5.42894	127.595	-0.000126421	-0.242229	853634	7641.1	1	37	0.00476014	0.0108581	0	-0.00529727	0.201039	0.102024	3.2303	4.26208e-06	3.04518e-06	3.53763e-06	3.44086e-06	3.34231e-06	3.92438e-06	0.14737	0.095965	0.958623	6.87632e-06	8.27129e-06	4.30857e-06	8.35078e-06	2.78471e-06	3.60146e-06	2.27081	0.215812	2.28104	5.42894	7.6411e+06	8.0401e+07	8.07632e+07	-84.5711	0.0000000E+000	0.0000000E+000	0.0000000E+000	84.5711	0.0000000E+000	0.0000000E+000	0.0000000E+000	-84.5711	0.0000000E+000	0.0000000E+000	0.0000000E+000	-5.42894	0.0000000E+000	0.0000000E+000	0.0000000E+000	5.42894	10.5222	84.5711	-0.000205701
3.56735	0.439788	0.0357404	0.441238	-4.64606	131.598	-0.000121633	-0.240717	1.24829e+06	8190.06	1	37	0.00476745	0.0108047	0	-0.00546444	0.190461	0.185102	2.9152	3.53012e-06	3.61032e-06	2.76771e-06	4.53465e-06	3.60413e-06	3.32601e-06	0.119639	0.127662	0.901564	5.61517e-06	5.10962e-06	3.16779e-06	7.41235e-06	3.86773e-06	3.82468e-06	2.2589	0.183575	2.26635	4.64606	8.19006e+06	1.00779e+08	1.01112e+08	-85.3539	0.0000000E+000	0.0000000E+000	0.0000000E+000	85.3539	0.0000000E+000	0.0000000E+000	0.0000000E+000	-85.3539	0.0000000E+000	0.0000000E+000	0.0000000E+000	-4.64606	0.0000000E+000	0.0000000E+000	0.0000000E+000	4.64606	12.3051	85.3539	7.2431e-05
2.83369	0.442503	0.0309476	0.443584	-4.00061	136.426	-0.000121374	-0.243913	1.81485e+06	8833.68	1	37	0.00476508	0.0107422	0	-0.00600498	0.153763	0.115951	2.5994	2.76835e-06	4.93473e-06	2.2872e-06	1.55479e-06	2.28687e-06	1.68059e-06	0.133003	0.0772126	0.842001	4.92963e-06	7.45405e-06	5.78413e-06	7.66213e-06	1.8562e-06	4.58775e-06	2.24887	0.15728	2.25436	4.00061	8.83368e+06	1.26308e+08	1.26617e+08	-85.9994	0.0000000E+000	0.0000000E+000	0.0000000E+000	85.9994	0.0000000E+000	0.0000000E+000	0.0000000E+000	-85.9994	0.0000000E+000	0.0000000E+000	0.0000000E+000	-4.00061	0.0000000E+000	0.0000000E+000	0.0000000E+000	4.00061	14.2985	85.9994	-0.000313643
2.25014	0.444733	0.0269925	0.445551	-3.47323	142.296	-0.000117669	-0.24251	2.6204e+06	9617.4	1	37	0.00476306	0.0106903	0	-0.00636277	0.141927	0.0591049	2.23819	2.66199e-06	4.37033e-06	1.28794e-06	2.0953e-06	1.34873e-06	2.22947e-06	0.132324	0.0894107	0.759205	4.21812e-06	9.63164e-06	4.82379e-06	5.73502e-06	2.02366e-06	3.78993e-06	2.24029	0.135971	2.24441	3.47323	9.61739e+06	1.58458e+08	1.5875e+08	-86.5268	0.0000000E+000	0.0000000E+000	0.0000000E+000	86.5268	0.0000000E+000	0.0000000E+000	0.0000000E+000	-86.5268	0.0000000E+000	0.0000000E+000	0.0000000E+000	-3.47323	0.0000000E+000	0.0000000E+000	0.0000000E+000	3.47323	16.4762	86.5268	-0.000143684
1.78572	0.447304	0.0242142	0.447959	-3.09861	150.659	-0.000108808	-0.224021	3.68076e+06	10754.8	1	38	0.00476326	0.0106333	0	-0.0064189	0.118337	0.0899792	1.98257	2.79422e-06	2.01793e-06	1.49901e-06	2.56531e-06	1.91671e-06	1.82771e-06	0.128088	0.104981	0.416086	6.47329e-06	7.35776e-06	2.13627e-06	8.41236e-06	1.11938e-06	1.47116e-06	2.22909	0.120669	2.23235	3.09861	1.07548e+07	1.98671e+08	1.98962e+08	-86.9014	0.0000000E+000	0.0000000E+000	0.0000000E+000	86.9014	0.0000000E+000	0.0000000E+000	0.0000000E+000	-86.9014	0.0000000E+000	0.0000000E+000	0.0000000E+000	-3.09861	0.0000000E+000	0.0000000E+000	0.0000000E+000	3.09861	18.4728	86.9014	-6.12946e-05
1.41736	0.449151	0.0220725	0.449693	-2.81341	159.526	-0.00011936	-0.213825	5.0873e+06	12256.3	1	38	0.00476317	0.010592	0	-0.00743453	0.120699	0.0573432	1.79678	1.52874e-06	3.86658e-06	8.03959e-07	2.80685e-06	1.39039e-06	1.64942e-06	0.126976	0.086429	0.40456	3.66173e-06	9.10976e-06	1.95303e-06	8.56464e-06	9.61846e-07	7.22406e-07	2.22106	0.109149	2.22374	2.81341	1.22563e+07	2.49402e+08	2.49703e+08	-87.1866	0.0000000E+000	0.0000000E+000	0.0000000E+000	87.1866	0.0000000E+000	0.0000000E+000	0.0000000E+000	-87.1866	0.0000000E+000	0.0000000E+000	0.0000000E+000	-2.81341	0.0000000E+000	0.0000000E+000	0.0000000E+000	2.81341	20.3489	87.1866	-0.00044871
1.12508	0.449843	0.0205155	0.450311	-2.61121	170.495	-0.000122055	-0.214443	6.89536e+06	14311.8	1	38	0.00476278	0.0105766	0	-0.00825947	0.0990314	0.0987198	1.54986	2.91064e-06	1.98794e-06	1.39584e-06	2.02572e-06	2.21959e-07	1.45082e-06	0.125505	0.0572721	0.414348	4.2801e-06	7.84133e-06	3.84126e-06	8.55754e-06	1.75473e-06	1.19408e-06	2.21838	0.101171	2.22069	2.61121	1.43118e+07	3.13816e+08	3.14142e+08	-87.3888	0.0000000E+000	0.0000000E+000	0.0000000E+000	87.3888	0.0000000E+000	0.0000000E+000	0.0000000E+000	-87.3888	0.0000000E+000	0.0000000E+000	0.0000000E+000	-2.61121	0.0000000E+000	0.0000000E+000	0.0000000E+000	2.61121	21.927	87.3888	-0.00104699
0.893876	0.451487	0.0203037	0.451943	-2.5749	184.098	-0.000128232	-0.223456	8.76936e+06	17699.1	1	38	0.00476413	0.0105414	0	-0.00883397	0.132688	0.0851554	1.37604	2.67549e-06	3.91232e-06	1.92946e-06	2.45904e-06	1.15053e-06	1.78491e-06	0.149809	0.117067	0.415377	7.28012e-06	9.30818e-06	2.85403e-06	9.30175e-06	1.5966e-06	1.48699e-06	2.21044	0.0994049	2.21267	2.5749	1.76991e+07	3.93569e+08	3.93967e+08	-87.4251	0.0000000E+000	0.0000000E+000	0.0000000E+000	87.4251	0.0000000E+000	0.0000000E+000	0.0000000E+000	-87.4251	0.0000000E+000	0.0000000E+000	0.0000000E+000	-2.5749	0.0000000E+000	0.0000000E+000	0.0000000E+000	2.5749	22.2367	87.4251	-0.000926898
0.709519	0.45363	0.0207277	0.454103	-2.61619	201.013	-0.000131997	-0.253358	1.08219e+07	22547.5	1	38	0.00476495	0.0104931	0	-0.00917577	0.133046	0.0576715	1.21502	2.43648e-06	4.6717e-06	1.2523e-06	2.09634e-06	1.64058e-06	8.38684e-07	0.133454	0.0808818	0.415846	5.09455e-06	9.96825e-06	3.50342e-06	6.72101e-06	2.10424e-06	1.53896e-06	2.19985	0.100517	2.20214	2.61619	2.25475e+07	4.93456e+08	4.93971e+08	-87.3838	0.0000000E+000	0.0000000E+000	0.0000000E+000	87.3838	0.0000000E+000	0.0000000E+000	0.0000000E+000	-87.3838	0.0000000E+000	0.0000000E+000	0.0000000E+000	-2.61619	0.0000000E+000	0.0000000E+000	0.0000000E+000	2.61619	21.8852	87.3838	0.000413847
0.563185	0.45584	0.0212364	0.456334	-2.66734	222.149	-0.000132886	-0.255381	1.33072e+07	28819.4	1	38	0.00476255	0.0104366	0	-0.0119461	0.105715	0.0714229	1.09228	2.00754e-06	2.59255e-06	1.20222e-06	1.11261e-06	1.28932e-06	2.29393e-06	0.129592	0.120498	0.411891	3.27341e-06	9.05839e-06	2.57019e-06	7.85872e-06	2.20315e-06	3.58511e-06	2.189	0.10198	2.19138	2.66734	2.88194e+07	6.18608e+08	6.19279e+08	-87.3327	0.0000000E+000	0.0000000E+000	0.0000000E+000	87.3327	0.0000000E+000	0.0000000E+000	0.0000000E+000	-87.3327	0.0000000E+000	0.0000000E+000	0.0000000E+000	-2.66734	0.0000000E+000	0.0000000E+000	0.0000000E+000	2.66734	21.465	87.3327	-0.00117648
0.447298	0.45958	0.021572	0.460086	-2.68741	248.602	-0.000119171	-0.266496	1.64943e+07	36260.7	1	38	0.00476326	0.010353	0	-0.0125248	0.0969709	0.0866391	0.99979	1.33283e-06	3.20505e-06	7.1117e-07	1.76569e-06	1.73827e-06	7.91752e-07	0.147082	0.101775	0.403187	5.94917e-06	1.06135e-05	1.81714e-06	6.96428e-06	4.04161e-06	2.61069e-06	2.17112	0.101909	2.17351	2.68741	3.62607e+07	7.72515e+08	7.73365e+08	-87.3126	0.0000000E+000	0.0000000E+000	0.0000000E+000	87.3126	0.0000000E+000	0.0000000E+000	0.0000000E+000	-87.3126	0.0000000E+000	0.0000000E+000	0.0000000E+000	-2.68741	0.0000000E+000	0.0000000E+000	0.0000000E+000	2.68741	21.3044	87.3126	-0.00100374
0.355178	0.463108	0.0211634	0.463592	-2.61652	281.74	-0.000107907	-0.222458	2.11733e+07	44125.3	1	38	0.00476226	0.0102725	0	-0.0164687	0.114276	0.0684677	0.863059	1.41298e-06	4.07737e-06	9.02053e-07	2.42363e-06	7.7489e-07	9.50522e-07	0.132922	0.0790643	0.396221	2.745e-06	9.9969e-06	2.89444e-06	7.32342e-06	2.32458e-06	2.49371e-06	2.15482	0.0984723	2.15707	2.61652	4.41253e+07	9.65574e+08	9.66581e+08	-87.3835	0.0000000E+000	0.0000000E+000	0.0000000E+000	87.3835	0.0000000E+000	0.0000000E+000	0.0000000E+000	-87.3835	0.0000000E+000	0.0000000E+000	0.0000000E+000	-2.61652	0.0000000E+000	0.0000000E+000	0.0000000E+000	2.61652	21.8825	87.3835	-0.00133178
0.281811	0.465713	0.0203406	0.466157	-2.50087	323.324	-0.000110662	-0.231917	2.77651e+07	52864	1	38	0.00476169	0.0102148	0	-0.0166028	0.102459	0.109515	0.800454	1.34721e-06	3.31796e-06	1.25639e-06	2.08234e-06	8.83218e-07	1.67476e-06	0.139458	0.0851882	0.383806	4.78021e-06	1.02966e-05	2.03238e-06	7.13526e-06	2.11297e-06	2.04122e-06	2.14316	0.0936047	2.1452	2.50087	5.28641e+07	1.21036e+09	1.21152e+09	-87.4991	0.0000000E+000	0.0000000E+000	0.0000000E+000	87.4991	0.0000000E+000	0.0000000E+000	0.0000000E+000	-87.4991	0.0000000E+000	0.0000000E+000	0.0000000E+000	-2.50087	0.0000000E+000	0.0000000E+000	0.0000000E+000	2.50087	22.8958	87.4991	-0.000427454
0.223912	0.468163	0.0194196	0.468566	-2.37529	375.527	-0.000120012	-0.215212	3.66018e+07	62870	1	38	0.00476287	0.0101648	0	-0.0231625	0.120932	0.0629131	0.708105	1.85021e-06	3.9867e-06	8.12753e-07	2.86094e-06	1.08424e-06	1.21226e-06	0.168128	0.0986361	0.382591	7.16405e-06	8.10091e-06	2.75155e-06	1.09491e-05	2.35273e-06	2.11704e-06	2.13234	0.0884504	2.13417	2.37529	6.28699e+07	1.51565e+09	1.51696e+09	-87.6247	0.0000000E+000	0.0000000E+000	0.0000000E+000	87.6247	0.0000000E+000	0.0000000E+000	0.0000000E+000	-87.6247	0.0000000E+000	0.0000000E+000	0.0000000E+000	-2.37529	0.0000000E+000	0.0000000E+000	0.0000000E+000	2.37529	24.1077	87.6247	-0.00375066
0.177799	0.470802	0.0183251	0.471158	-2.22901	441.096	-0.000127768	-0.236672	4.88476e+07	73893	1	38	0.0047606	0.010104	0	-0.0260743	0.116536	0.0873592	0.619789	2.26852e-06	4.14138e-06	1.01436e-06	1.49512e-06	1.19853e-06	1.04169e-06	0.140693	0.115337	0.361043	3.7569e-06	1.07838e-05	3.55106e-06	6.90796e-06	1.47287e-06	2.10031e-06	2.12082	0.0825492	2.12243	2.22901	7.3893e+07	1.89843e+09	1.89987e+09	-87.771	0.0000000E+000	0.0000000E+000	0.0000000E+000	87.771	0.0000000E+000	0.0000000E+000	0.0000000E+000	-87.771	0.0000000E+000	0.0000000E+000	0.0000000E+000	-2.22901	0.0000000E+000	0.0000000E+000	0.0000000E+000	2.22901	25.6916	87.771	-0.000562601
0.141153	0.472314	0.0174507	0.472636	-2.11596	523.522	-0.000121997	-0.259742	6.46124e+07	88081.9	1	38	0.00476405	0.0100797	0	-0.0284511	0.0978474	0.0913003	0.544669	2.24214e-06	3.67464e-06	7.69898e-07	1.00462e-06	6.95385e-07	7.81857e-07	0.140112	0.0885491	0.312437	4.17975e-06	1.09836e-05	2.29931e-06	6.39884e-06	1.60429e-06	1.79053e-06	2.11435	0.0781193	2.11579	2.11596	8.8082e+07	2.38399e+09	2.38562e+09	-87.884	0.0000000E+000	0.0000000E+000	0.0000000E+000	87.884	0.0000000E+000	0.0000000E+000	0.0000000E+000	-87.884	0.0000000E+000	0.0000000E+000	0.0000000E+000	-2.11596	0.0000000E+000	0.0000000E+000	0.0000000E+000	2.11596	27.0656	87.884	-0.00222173
0.112067	0.474322	0.0169877	0.474626	-2.05115	627.174	-0.000114408	-0.222793	8.36002e+07	107096	1	38	0.00476388	0.0100371	0	-0.0403144	0.088294	0.108332	0.497967	1.0524e-06	3.54454e-06	7.14784e-07	1.28117e-06	8.20393e-07	6.20718e-07	0.11917	0.0901179	0.316764	4.60907e-06	8.52945e-06	2.00984e-06	5.59267e-06	1.58493e-06	1.74115e-06	2.10557	0.0754104	2.10692	2.05115	1.07096e+08	2.99028e+09	2.9922e+09	-87.9488	0.0000000E+000	0.0000000E+000	0.0000000E+000	87.9488	0.0000000E+000	0.0000000E+000	0.0000000E+000	-87.9488	0.0000000E+000	0.0000000E+000	0.0000000E+000	-2.05115	0.0000000E+000	0.0000000E+000	0.0000000E+000	2.05115	27.9215	87.9488	-0.00675809
0.0888996	0.47526	0.015968	0.475528	-1.92432	757.645	-0.00013301	-0.248556	1.12117e+08	126420	1	38	0.00476261	0.0100154	0	-0.0503817	0.0913491	0.126533	0.440961	1.46396e-06	2.79211e-06	1.35361e-06	1.82828e-06	8.31875e-07	1.13102e-06	0.154378	0.110936	0.260769	6.36059e-06	1.04227e-05	2.58073e-06	8.06813e-06	2.545e-06	1.56053e-06	2.10174	0.0706149	2.10292	1.92432	1.2642e+08	3.76269e+09	3.76482e+09	-88.0757	0.0000000E+000	0.0000000E+000	0.0000000E+000	88.0757	0.0000000E+000	0.0000000E+000	0.0000000E+000	-88.0757	0.0000000E+000	0.0000000E+000	0.0000000E+000	-1.92432	0.0000000E+000	0.0000000E+000	0.0000000E+000	1.92432	29.7634	88.0757	-0.00414476
0.0705771	0.475583	0.0148284	0.475814	-1.78586	921.874	-0.000125839	-0.249776	1.52077e+08	147698	1	38	0.00476243	0.010009	0	-0.0531253	0.125198	0.0916788	0.410366	2.71121e-06	4.40887e-06	7.46827e-07	2.3037e-06	8.5031e-07	9.70441e-07	0.147764	0.13654	0.276043	5.67091e-06	8.64809e-06	2.55123e-06	8.45343e-06	2.00901e-06	3.06849e-06	2.10064	0.0654965	2.10166	1.78586	1.47698e+08	4.73705e+09	4.73935e+09	-88.2141	0.0000000E+000	0.0000000E+000	0.0000000E+000	88.2141	0.0000000E+000	0.0000000E+000	0.0000000E+000	-88.2141	0.0000000E+000	0.0000000E+000	0.0000000E+000	-1.78586	0.0000000E+000	0.0000000E+000	0.0000000E+000	1.78586	32.0725	88.2141	-0.00139476
0.0560337	0.476059	0.0148455	0.47629	-1.78614	1128.55	-0.000116666	-0.234078	1.91327e+08	185875	1	38	0.00476371	0.0100017	0	-0.0670185	0.113608	0.06297	0.367577	1.44842e-06	4.22801e-06	7.78868e-07	2.43158e-06	9.70725e-07	8.50786e-07	0.155112	0.145383	0.243473	4.91159e-06	9.7174e-06	2.87815e-06	9.43905e-06	2.98891e-06	1.61918e-06	2.09854	0.0654412	2.09956	1.78614	1.85875e+08	5.96057e+09	5.96347e+09	-88.2139	0.0000000E+000	0.0000000E+000	0.0000000E+000	88.2139	0.0000000E+000	0.0000000E+000	0.0000000E+000	-88.2139	0.0000000E+000	0.0000000E+000	0.0000000E+000	-1.78614	0.0000000E+000	0.0000000E+000	0.0000000E+000	1.78614	32.0676	88.2139	-0.00966287
0.0445025	0.476653	0.0153008	0.476898	-1.8386	1388.6	-0.000111366	-0.227477	2.33733e+08	240602	1	38	0.00476256	0.00998653	0	-0.0956283	0.0873474	0.15652	0.333558	1.82599e-06	2.50246e-06	1.05173e-06	1.87385e-06	7.51281e-07	7.93521e-07	0.160287	0.238994	0.235594	6.89362e-06	6.83149e-06	4.51577e-06	1.00307e-05	2.6735e-06	2.82082e-06	2.0958	0.0672766	2.09688	1.8386	2.40603e+08	7.49526e+09	7.49912e+09	-88.1614	0.0000000E+000	0.0000000E+000	0.0000000E+000	88.1614	0.0000000E+000	0.0000000E+000	0.0000000E+000	-88.1614	0.0000000E+000	0.0000000E+000	0.0000000E+000	-1.8386	0.0000000E+000	0.0000000E+000	0.0000000E+000	1.8386	31.1521	88.1614	-0.0149149
0.0353467	0.477733	0.015426	0.477982	-1.84943	1716	-0.000105659	-0.213275	2.9189e+08	304019	1	38	0.00475992	0.00995836	0	-0.115957	0.0913374	0.120059	0.31178	1.85716e-06	2.88091e-06	1.09757e-06	1.55742e-06	7.01399e-07	1.43836e-06	0.147827	0.147754	0.232611	5.84568e-06	6.74489e-06	3.2657e-06	8.34846e-06	2.07586e-06	3.61513e-06	2.09104	0.0675194	2.09213	1.84943	3.04019e+08	9.41529e+09	9.4202e+09	-88.1506	0.0000000E+000	0.0000000E+000	0.0000000E+000	88.1506	0.0000000E+000	0.0000000E+000	0.0000000E+000	-88.1506	0.0000000E+000	0.0000000E+000	0.0000000E+000	-1.84943	0.0000000E+000	0.0000000E+000	0.0000000E+000	1.84943	30.9694	88.1506	-0.00711574
0.0280409	0.478818	0.0139446	0.479021	-1.66815	2128.18	-0.000114381	-0.265813	4.07026e+08	344926	1	38	0.00476336	0.00994394	0	-0.125845	0.111523	0.142315	0.287852	1.76858e-06	4.11978e-06	1.68089e-06	1.79362e-06	8.20937e-07	7.35481e-07	0.149111	0.229131	0.208157	5.41722e-06	9.80077e-06	4.74572e-06	5.8117e-06	1.69371e-06	4.14476e-06	2.08671	0.0607711	2.08759	1.66815	3.44926e+08	1.18438e+10	1.18488e+10	-88.3318	0.0000000E+000	0.0000000E+000	0.0000000E+000	88.3318	0.0000000E+000	0.0000000E+000	0.0000000E+000	-88.3318	0.0000000E+000	0.0000000E+000	0.0000000E+000	-1.66815	0.0000000E+000	0.0000000E+000	0.0000000E+000	1.66815	34.3371	88.3318	-0.00559514
0.0250094	0.479475	0.0134479	0.479663	-1.60656	2372.64	-0.000121732	-0.280311	4.73219e+08	371961	1	38	0.00475716	0.00991772	0	-0.138258	0.0997792	0.0960297	0.287075	1.84875e-06	3.04541e-06	7.57621e-07	1.94051e-06	1.26134e-06	1.33424e-06	0.140258	0.0930482	0.230092	3.53346e-06	7.62435e-06	3.05838e-06	8.75463e-06	3.06685e-06	2.67899e-06	2.08398	0.0584496	2.0848	1.60656	3.71961e+08	1.3262e+10	1.32672e+10	-88.3934	0.0000000E+000	0.0000000E+000	0.0000000E+000	88.3934	0.0000000E+000	0.0000000E+000	0.0000000E+000	-88.3934	0.0000000E+000	0.0000000E+000	0.0000000E+000	-1.60656	0.0000000E+000	0.0000000E+000	0.0000000E+000	1.60656	35.6543	88.3934	-0.0124134