File: Python/Experiments/IRFB/FirstCell/Data/240411-EIS-50mM_FeCl2FeCl3-1M_HCl-10mLmin-25mHz_20ppd_C15.mpt
EC-Lab ASCII FILE
Nb header lines : 66

Potentio Electrochemical Impedance Spectroscopy

Run on channel : 15 (SN 19485)
User :
Electrode connection : standard
Potential control : Ewe
Ewe ctrl range : min = -1.00 V, max = 1.00 V
Ewe,I filtering : <None>
Safety Limits :
	Do not start on E overload
Channel : Floating
Acquisition started on : 04/11/2024 10:45:14.386
Loaded Setting File :  NONE
Saved on :
	File : 240411-EIS-50mM_FeCl2FeCl3-1M_HCl-10mLmin-25mHz_20ppd_C15.mpr
	Directory : C:\Data\mathias\IRFB\
	Host : 192.168.0.1
Device : VMP-300 (SN 0826)
Address : USB
EC-Lab for windows v11.52 (software)
Internet server v11.52 (firmware)
Command interpretor v11.52 (firmware)
Electrode material :
Initial state :
Electrolyte :
Comments :
Cable : special
Electrode surface area : 0.001 cm²
Characteristic mass : 0.001 g
Equivalent Weight : 0.000 g/eq.
Density : 0.000 g/cm3
Volume (V) : 0.001 cm³
Record EIS quality indicators
Cycle Definition : Charge/Discharge alternance
Mode                Single sine
E (V)               0.0000
vs.                 Eoc
tE (h:m:s)          0:00:0.0000
record              0
dI                  0.000
unit dI             mA
dt (s)              0.000
fi                  920.000
unit fi             kHz
ff                  25.000
unit ff             mHz
Nd                  20
Points              per decade
spacing             Logarithmic
Va (mV)             5.0
pw                  0.10
Na                  3
corr                0
E range min (V)     -1.000
E range max (V)     1.000
I Range             Auto
Bandwidth           8
nc cycles           0
goto Ns'            0
nr cycles           0
inc. cycle          0

freq/Hz	Re(Z)/Ohm	-Im(Z)/Ohm	|Z|/Ohm	Phase(Z)/deg	time/s	<Ewe>/V	<I>/mA	Cs/µF	Cp/µF	cycle number	I Range	|Ewe|/V	|I|/A	Ns	(Q-Qo)/mA.h	THD Ewe/%	NSD Ewe/%	NSR Ewe/%	|Ewe h2|/V	|Ewe h3|/V	|Ewe h4|/V	|Ewe h5|/V	|Ewe h6|/V	|Ewe h7|/V	THD I/%	NSD I/%	NSR I/%	|I h2|/A	|I h3|/A	|I h4|/A	|I h5|/A	|I h6|/A	|I h7|/A	Re(Y)/Ohm-1	Im(Y)/Ohm-1	|Y|/Ohm-1	Phase(Y)/deg	Re(C)/nF	Im(C)/nF	|C|/nF	Phase(C)/deg	Re(M)	Im(M)	|M|	Phase(M)/deg	Re(Permittivity)	Im(Permittivity)	|Permittivity|	Phase(Permittivity)/deg	Re(Resistivity)/Ohm.cm	Im(Resistivity)/Ohm.cm	|Resistivity|/Ohm.cm	Phase(Resistivity)/deg	Re(Conductivity)/mS/cm	Im(Conductivity)/mS/cm	|Conductivity|/mS/cm	Phase(Conductivity)/deg	Tan(Delta)	Loss Angle(Delta)/deg	dq/mA.h
920001	-0.130512	-0.127293	0.18231	135.715	2.16849	4.88895e-06	-0.015134	-1.35902	-0.662546	1	37	0.000542034	0.00297314	0	-1.60386e-05	-1	-1	-1	0	0	0	0	0	0	-1	-1	-1	0	0	0	0	0	0	-3.92671	-3.82987	5.48516	-135.715	-662.546	-679.298	948.901	134.285	0.0000000E+000	0.0000000E+000	0.0000000E+000	-134.285	0.0000000E+000	0.0000000E+000	0.0000000E+000	134.285	0.0000000E+000	0.0000000E+000	0.0000000E+000	135.715	0.0000000E+000	0.0000000E+000	0.0000000E+000	-135.715	1.02529	45.7153	-1.60386e-05
730432	-0.0504267	-0.050412	0.0713037	135.008	4.46249	-4.69238e-06	-0.0542176	-4.32221	-2.16048	1	37	0.000362108	0.00507839	0	-3.77014e-05	-1	-1	-1	0	0	0	0	0	0	-1	-1	-1	0	0	0	0	0	0	-9.91827	-9.91539	14.0245	-135.008	-2160.48	-2161.11	3055.82	134.992	0.0000000E+000	0.0000000E+000	0.0000000E+000	-134.992	0.0000000E+000	0.0000000E+000	0.0000000E+000	134.992	0.0000000E+000	0.0000000E+000	0.0000000E+000	135.008	0.0000000E+000	0.0000000E+000	0.0000000E+000	-135.008	1.00029	45.0083	-1.15418e-05
579916	0.000579323	-0.0204181	0.0204264	88.3748	6.75649	-1.20182e-05	-0.0594845	-13.4412	-13.4304	1	37	0.000198441	0.00971497	0	-6.55946e-05	-1	-1	-1	0	0	0	0	0	0	-1	-1	-1	0	0	0	0	0	0	1.38848	-48.9367	48.9564	-88.3748	-13430.4	381.06	13435.8	-178.375	0.0000000E+000	0.0000000E+000	0.0000000E+000	178.375	0.0000000E+000	0.0000000E+000	0.0000000E+000	-178.375	0.0000000E+000	0.0000000E+000	0.0000000E+000	88.3748	0.0000000E+000	0.0000000E+000	0.0000000E+000	-88.3748	0.0283729	1.62521	-7.77172e-06
460427	0.0290131	-0.00957724	0.0305529	18.2681	9.05048	1.91483e-07	-0.0318653	-36.0927	-3.54645	1	37	0.000316018	0.0103433	0	-7.44661e-05	-1	-1	-1	0	0	0	0	0	0	-1	-1	-1	0	0	0	0	0	0	31.0805	-10.2597	32.7301	-18.2681	-3546.45	10743.5	11313.7	-108.268	0.0000000E+000	0.0000000E+000	0.0000000E+000	108.268	0.0000000E+000	0.0000000E+000	0.0000000E+000	-108.268	0.0000000E+000	0.0000000E+000	0.0000000E+000	18.2681	0.0000000E+000	0.0000000E+000	0.0000000E+000	-18.2681	3.02938	71.7319	-4.38118e-06
365554	0.0436028	-0.00579877	0.0439867	7.57535	11.3455	-4.98215e-07	-0.0319954	-75.0814	-1.30485	1	37	0.000665751	0.0151353	0	-7.0153e-05	-1	-1	-1	0	0	0	0	0	0	-1	-1	-1	0	0	0	0	0	0	22.5357	-2.99704	22.7341	-7.57535	-1304.85	9811.59	9897.98	-97.5754	0.0000000E+000	0.0000000E+000	0.0000000E+000	97.5754	0.0000000E+000	0.0000000E+000	0.0000000E+000	-97.5754	0.0000000E+000	0.0000000E+000	0.0000000E+000	7.57535	0.0000000E+000	0.0000000E+000	0.0000000E+000	-7.57535	7.51932	82.4246	1.32655e-05
290232	0.0513165	-0.00374742	0.0514532	4.17665	13.6395	-1.4777e-05	-0.0532865	-146.333	-0.776218	1	37	0.00115959	0.0225368	0	-8.33558e-05	-1	-1	-1	0	0	0	0	0	0	-1	-1	-1	0	0	0	0	0	0	19.3835	-1.41549	19.4351	-4.17665	-776.217	10629.4	10657.7	-94.1766	0.0000000E+000	0.0000000E+000	0.0000000E+000	94.1766	0.0000000E+000	0.0000000E+000	0.0000000E+000	-94.1766	0.0000000E+000	0.0000000E+000	0.0000000E+000	4.17665	0.0000000E+000	0.0000000E+000	0.0000000E+000	-4.17665	13.6938	85.8234	1.1292e-05
230422	0.0557737	-0.00258189	0.0558334	2.65046	15.9335	2.37549e-08	-0.05042	-267.521	-0.572064	1	37	0.00183401	0.0328479	0	-0.000126605	-1	-1	-1	0	0	0	0	0	0	-1	-1	-1	0	0	0	0	0	0	17.8913	-0.828227	17.9104	-2.65046	-572.064	12357.7	12370.9	-92.6505	0.0000000E+000	0.0000000E+000	0.0000000E+000	92.6505	0.0000000E+000	0.0000000E+000	0.0000000E+000	-92.6505	0.0000000E+000	0.0000000E+000	0.0000000E+000	2.65046	0.0000000E+000	0.0000000E+000	0.0000000E+000	-2.65046	21.6019	87.3495	-9.17246e-06
182944	0.0583614	-0.00136429	0.0583774	1.33914	18.2305	-5.21426e-06	-0.0749122	-637.668	-0.348272	1	37	0.00274112	0.0469552	0	-0.000192163	-1	-1	-1	0	0	0	0	0	0	-1	-1	-1	0	0	0	0	0	0	17.1252	-0.40033	17.1299	-1.33914	-348.272	14898.4	14902.4	-91.3391	0.0000000E+000	0.0000000E+000	0.0000000E+000	91.3391	0.0000000E+000	0.0000000E+000	0.0000000E+000	-91.3391	0.0000000E+000	0.0000000E+000	0.0000000E+000	1.33914	0.0000000E+000	0.0000000E+000	0.0000000E+000	-1.33914	42.7779	88.6609	-0.000105674
145246	0.0600568	3.83176e-05	0.0600568	-0.036556	20.5275	1.35659e-07	-0.0394198	28596.9	0.011641	1	37	0.00393114	0.0654571	0	-6.8242e-05	-1	-1	-1	0	0	0	0	0	0	-1	-1	-1	0	0	0	0	0	0	16.6509	0.0106236	16.6509	0.036556	11.6399	18245.4	18245.4	-89.9634	0.0000000E+000	0.0000000E+000	0.0000000E+000	89.9634	0.0000000E+000	0.0000000E+000	0.0000000E+000	-89.9634	0.0000000E+000	0.0000000E+000	0.0000000E+000	-0.036556	0.0000000E+000	0.0000000E+000	0.0000000E+000	0.036556	1567.34	89.9634	9.09447e-05
115323	0.0611441	0.00122774	0.0611564	-1.15031	22.5535	-4.5804e-06	-0.048669	1124.08	0.453032	1	37	0.00548159	0.0896323	0	-0.000145572	-1	-1	-1	0	0	0	0	0	0	-1	-1	-1	0	0	0	0	0	0	16.3482	0.328264	16.3515	1.15031	453.032	22561.9	22566.5	-88.8497	0.0000000E+000	0.0000000E+000	0.0000000E+000	88.8497	0.0000000E+000	0.0000000E+000	0.0000000E+000	-88.8497	0.0000000E+000	0.0000000E+000	0.0000000E+000	-1.15031	0.0000000E+000	0.0000000E+000	0.0000000E+000	1.15031	49.8021	88.8497	-9.37444e-05
91560.3	0.0620698	0.00219647	0.0621086	-2.02669	24.8495	-4.20759e-06	-0.0417644	791.383	0.989772	1	37	0.00511687	0.0823858	0	-0.000285018	0.319064	0.235245	6.84164	4.79792e-06	9.79839e-06	5.40613e-06	6.16029e-06	4.22301e-06	5.24818e-06	0.128858	0.0221969	0.239063	2.57491e-05	0.000102431	7.21962e-06	6.77878e-06	1.08667e-06	2.43957e-06	16.0907	0.569406	16.1008	2.02669	989.771	27969.8	27987.3	-87.9733	0.0000000E+000	0.0000000E+000	0.0000000E+000	87.9733	0.0000000E+000	0.0000000E+000	0.0000000E+000	-87.9733	0.0000000E+000	0.0000000E+000	0.0000000E+000	-2.02669	0.0000000E+000	0.0000000E+000	0.0000000E+000	2.02669	28.2588	87.9733	9.30453e-05
72687.8	0.0628002	0.00333266	0.0628885	-3.03771	27.1455	-5.9039e-06	-0.0519634	657.003	1.84505	1	37	0.00510425	0.0811634	0	-0.0001781	0.372996	0.163367	6.9134	4.83399e-06	1.3299e-05	6.20379e-06	6.82933e-06	4.35458e-06	6.25103e-06	0.135616	0.00522485	0.244819	2.48575e-05	0.000106663	7.99073e-06	4.48159e-06	3.41071e-06	4.20997e-06	15.8788	0.842652	15.9012	3.03771	1845.04	34767.8	34816.7	-86.9623	0.0000000E+000	0.0000000E+000	0.0000000E+000	86.9623	0.0000000E+000	0.0000000E+000	0.0000000E+000	-86.9623	0.0000000E+000	0.0000000E+000	0.0000000E+000	-3.03771	0.0000000E+000	0.0000000E+000	0.0000000E+000	3.03771	18.8438	86.9623	5.38985e-05
57712.3	0.0634552	0.00435369	0.0636043	-3.92494	29.4415	2.09297e-06	-0.0517401	633.423	2.96781	1	37	0.00509002	0.0800264	0	-5.24499e-05	0.285305	0.167244	6.71466	4.79582e-06	5.58436e-06	5.75983e-06	5.99495e-06	6.63626e-06	4.5358e-06	0.109945	0.0341504	0.246523	1.85714e-05	8.53988e-05	5.34672e-06	4.85442e-06	3.53543e-06	3.95432e-06	15.6853	1.07618	15.7222	3.92494	2967.81	43255.9	43357.6	-86.0751	0.0000000E+000	0.0000000E+000	0.0000000E+000	86.0751	0.0000000E+000	0.0000000E+000	0.0000000E+000	-86.0751	0.0000000E+000	0.0000000E+000	0.0000000E+000	-3.92494	0.0000000E+000	0.0000000E+000	0.0000000E+000	3.92494	14.575	86.0751	-2.51572e-06
45817.2	0.0643278	0.00561464	0.0645724	-4.98823	31.7375	-2.1357e-05	-0.0865804	618.685	4.67756	1	37	0.00510235	0.0790174	0	8.31084e-05	0.378305	0.174925	6.87092	4.21564e-06	8.26367e-06	6.16766e-06	6.15848e-06	1.04955e-05	7.80897e-06	0.161069	0.0339367	0.251594	1.11152e-05	0.000126251	5.54733e-06	8.63705e-06	2.30037e-06	3.41299e-06	15.4278	1.34657	15.4865	4.98823	4677.56	53591.5	53795.3	-85.0118	0.0000000E+000	0.0000000E+000	0.0000000E+000	85.0118	0.0000000E+000	0.0000000E+000	0.0000000E+000	-85.0118	0.0000000E+000	0.0000000E+000	0.0000000E+000	-4.98823	0.0000000E+000	0.0000000E+000	0.0000000E+000	4.98823	11.4572	85.0118	0.000101647
36381	0.0651982	0.0068368	0.0655557	-5.98626	34.0335	-1.88033e-05	-0.0612318	639.871	6.9595	1	37	0.00508763	0.0776078	0	-0.00028697	0.399326	0.182156	6.9707	5.43908e-06	8.12348e-06	7.87286e-06	5.91204e-06	8.54298e-06	9.69992e-06	0.164895	0.0180966	0.253567	7.48536e-06	0.000127008	4.58094e-06	1.16451e-05	3.59011e-06	4.97584e-06	15.171	1.59086	15.2542	5.98626	6959.49	66368.2	66732.1	-84.0137	0.0000000E+000	0.0000000E+000	0.0000000E+000	84.0137	0.0000000E+000	0.0000000E+000	0.0000000E+000	-84.0137	0.0000000E+000	0.0000000E+000	0.0000000E+000	-5.98626	0.0000000E+000	0.0000000E+000	0.0000000E+000	5.98626	9.53636	84.0137	-0.000178499
28884	0.0662439	0.00828772	0.0667603	-7.13117	36.3305	-2.54857e-06	-0.0601898	664.857	10.2462	1	37	0.00508897	0.0762274	0	-0.000256615	0.372273	0.210104	6.76951	5.45716e-06	9.66374e-06	5.79669e-06	7.91009e-06	5.47653e-06	8.2323e-06	0.168479	0.046867	0.26022	3.39319e-05	0.000122904	6.29389e-06	1.19842e-05	5.51966e-06	3.2454e-06	14.8631	1.85951	14.979	7.13117	10246.2	81897.8	82536.2	-82.8688	0.0000000E+000	0.0000000E+000	0.0000000E+000	82.8688	0.0000000E+000	0.0000000E+000	0.0000000E+000	-82.8688	0.0000000E+000	0.0000000E+000	0.0000000E+000	-7.13117	0.0000000E+000	0.0000000E+000	0.0000000E+000	7.13117	7.99302	82.8688	9.69435e-05
22927.2	0.067523	0.00957702	0.0681987	-8.07262	38.6265	-2.07978e-05	-0.108449	724.835	14.2938	1	37	0.00509167	0.0746593	0	-0.00032756	0.280768	0.201008	6.90943	7.52547e-06	6.60682e-06	4.8835e-06	6.26075e-06	3.46135e-06	1.9887e-06	0.163806	0.0361453	0.26782	6.03873e-06	0.000120751	8.31959e-06	1.48829e-05	4.25349e-06	5.58337e-06	14.5177	2.0591	14.663	8.07262	14293.8	100779	101787	-81.9274	0.0000000E+000	0.0000000E+000	0.0000000E+000	81.9274	0.0000000E+000	0.0000000E+000	0.0000000E+000	-81.9274	0.0000000E+000	0.0000000E+000	0.0000000E+000	-8.07262	0.0000000E+000	0.0000000E+000	0.0000000E+000	8.07262	7.05052	81.9274	-7.17857e-06
18204.4	0.0688895	0.0110507	0.0697702	-9.11328	40.9225	-2.67815e-05	-0.103703	791.142	19.8469	1	37	0.00508175	0.0728356	0	-0.000359422	0.283932	0.187885	6.76996	6.03152e-06	5.37272e-06	5.80864e-06	4.9559e-06	3.00768e-06	6.82036e-06	0.153895	0.0464333	0.274509	4.07437e-06	0.000111134	5.707e-06	1.07172e-05	4.93062e-06	1.8457e-06	14.1519	2.27012	14.3328	9.11328	19846.9	123725	125306	-80.8867	0.0000000E+000	0.0000000E+000	0.0000000E+000	80.8867	0.0000000E+000	0.0000000E+000	0.0000000E+000	-80.8867	0.0000000E+000	0.0000000E+000	0.0000000E+000	-9.11328	0.0000000E+000	0.0000000E+000	0.0000000E+000	9.11328	6.23396	80.8867	-8.72798e-06
14455.9	0.0705548	0.0124261	0.0716407	-9.98846	43.2195	-7.86117e-06	-0.0690861	886.015	26.6556	1	37	0.00508798	0.0710209	0	-0.000155153	0.335578	0.137189	6.98872	8.09338e-06	1.03068e-05	3.85213e-06	5.25344e-06	5.31544e-06	6.09032e-06	0.143212	0.0226003	0.276347	7.12877e-06	0.000100641	3.45106e-06	7.42529e-06	8.09308e-06	3.4603e-06	13.747	2.42111	13.9585	9.98846	26655.6	151350	153679	-80.0115	0.0000000E+000	0.0000000E+000	0.0000000E+000	80.0115	0.0000000E+000	0.0000000E+000	0.0000000E+000	-80.0115	0.0000000E+000	0.0000000E+000	0.0000000E+000	-9.98846	0.0000000E+000	0.0000000E+000	0.0000000E+000	9.98846	5.67797	80.0115	6.7655e-05
11477.5	0.0723453	0.0139631	0.0736804	-10.9241	45.5155	-1.9027e-05	-0.083603	993.095	35.6656	1	37	0.00508363	0.0689957	0	-0.000156478	0.348565	0.119045	6.85608	5.4669e-06	5.88796e-06	4.8663e-06	9.66004e-06	8.38839e-06	6.43798e-06	0.134057	0.0250364	0.28951	8.33898e-06	9.14912e-05	3.86052e-06	4.26e-06	6.5016e-06	4.43008e-06	13.3262	2.57204	13.5721	10.9241	35665.6	184790	188200	-79.0759	0.0000000E+000	0.0000000E+000	0.0000000E+000	79.0759	0.0000000E+000	0.0000000E+000	0.0000000E+000	-79.0759	0.0000000E+000	0.0000000E+000	0.0000000E+000	-10.9241	0.0000000E+000	0.0000000E+000	0.0000000E+000	10.9241	5.18118	79.0759	5.26157e-05
9107.2	0.0743407	0.0155472	0.0759491	-11.8123	47.8155	-0.000126789	-0.382649	1124.04	47.1024	1	37	0.00518399	0.0682561	0	-0.000272565	0.353742	0.114708	6.74785	9.26642e-06	1.01942e-05	6.28303e-06	5.62499e-06	5.76745e-06	3.32102e-06	0.163102	0.018129	0.290081	1.05402e-05	0.000109507	5.22219e-06	1.3305e-05	6.95632e-06	4.74047e-06	12.8879	2.6953	13.1667	11.8123	47102.4	225225	230098	-78.1877	0.0000000E+000	0.0000000E+000	0.0000000E+000	78.1877	0.0000000E+000	0.0000000E+000	0.0000000E+000	-78.1877	0.0000000E+000	0.0000000E+000	0.0000000E+000	-11.8123	0.0000000E+000	0.0000000E+000	0.0000000E+000	11.8123	4.78161	78.1877	-0.000128057
7234.84	0.0764922	0.017307	0.0784257	-12.749	50.1647	-0.000121812	-0.348832	1271.07	61.9006	1	37	0.00509427	0.0649566	0	-0.000672413	0.332764	0.117678	6.81142	3.93624e-06	7.62817e-06	4.75362e-06	5.01044e-06	9.54669e-06	6.4167e-06	0.147919	0.0339091	0.306157	1.26946e-05	9.40516e-05	6.17503e-06	1.17242e-05	4.12484e-06	2.83025e-06	12.4366	2.81387	12.7509	12.749	61900.6	273585	280500	-77.251	0.0000000E+000	0.0000000E+000	0.0000000E+000	77.251	0.0000000E+000	0.0000000E+000	0.0000000E+000	-77.251	0.0000000E+000	0.0000000E+000	0.0000000E+000	-12.749	0.0000000E+000	0.0000000E+000	0.0000000E+000	12.749	4.41974	77.251	-0.000180743
5743.33	0.0787588	0.0190525	0.0810305	-13.5992	52.6535	-0.000132362	-0.343547	1454.47	80.4104	1	37	0.00505463	0.0623793	0	-0.000956645	0.483283	0.50177	6.78703	1.35503e-05	1.38794e-05	4.07237e-06	7.19901e-06	7.71276e-06	6.99094e-06	0.133895	0.0450891	0.320477	1.25859e-05	8.1886e-05	4.62435e-06	8.01789e-06	2.74503e-06	2.48602e-06	11.995	2.90172	12.341	13.5992	80410.4	332398	341986	-76.4008	0.0000000E+000	0.0000000E+000	0.0000000E+000	76.4008	0.0000000E+000	0.0000000E+000	0.0000000E+000	-76.4008	0.0000000E+000	0.0000000E+000	0.0000000E+000	-13.5992	0.0000000E+000	0.0000000E+000	0.0000000E+000	13.5992	4.13377	76.4008	-0.000178687
4558.54	0.0815418	0.0209027	0.0841783	-14.3778	55.3198	-0.000134674	-0.348572	1670.29	102.99	1	37	0.0051048	0.0606427	0	-0.00115414	0.348802	0.173762	6.85378	7.29697e-06	6.46019e-06	4.20362e-06	8.6442e-06	5.46938e-06	6.94633e-06	0.125148	0.0121299	0.328911	1.29212e-05	7.4271e-05	3.8812e-06	5.31256e-06	3.64866e-06	4.08071e-06	11.5075	2.94986	11.8796	14.3778	102990	401767	414758	-75.6222	0.0000000E+000	0.0000000E+000	0.0000000E+000	75.6222	0.0000000E+000	0.0000000E+000	0.0000000E+000	-75.6222	0.0000000E+000	0.0000000E+000	0.0000000E+000	-14.3778	0.0000000E+000	0.0000000E+000	0.0000000E+000	14.3778	3.90102	75.6222	-3.53351e-06
3621.16	0.0845469	0.0228856	0.0875895	-15.1462	57.9777	-0.000141907	-0.349968	1920.48	131.108	1	37	0.00509519	0.0581712	0	-0.00140196	0.379351	0.231856	6.81808	1.24082e-05	5.46324e-06	6.42408e-06	8.2351e-06	7.03077e-06	3.66487e-06	0.102916	0.0605193	0.346247	9.61881e-06	5.81689e-05	1.71978e-06	8.53359e-06	3.52572e-06	3.36241e-06	11.0203	2.98303	11.4169	15.1462	131108	484357	501788	-74.8538	0.0000000E+000	0.0000000E+000	0.0000000E+000	74.8538	0.0000000E+000	0.0000000E+000	0.0000000E+000	-74.8538	0.0000000E+000	0.0000000E+000	0.0000000E+000	-15.1462	0.0000000E+000	0.0000000E+000	0.0000000E+000	15.1462	3.69433	74.8538	-0.000125648
2874.08	0.0877505	0.0250628	0.0912595	-15.9401	60.6338	-0.000141198	-0.347083	2209.48	166.646	1	37	0.00509261	0.0558036	0	-0.00160123	0.324521	0.160396	6.73896	7.8075e-06	8.14841e-06	3.93741e-06	7.39615e-06	4.26914e-06	6.46797e-06	0.0935781	0.0965002	0.364528	1.06485e-05	4.86724e-05	3.48294e-06	1.00522e-05	6.88487e-06	5.10124e-06	10.5364	3.00936	10.9578	15.9401	166646	583464	606796	-74.0599	0.0000000E+000	0.0000000E+000	0.0000000E+000	74.0599	0.0000000E+000	0.0000000E+000	0.0000000E+000	-74.0599	0.0000000E+000	0.0000000E+000	0.0000000E+000	-15.9401	0.0000000E+000	0.0000000E+000	0.0000000E+000	15.9401	3.50122	74.0599	-6.75735e-05
2282.19	0.0911841	0.0272313	0.0951634	-16.6278	63.2906	-0.000129641	-0.323838	2560.95	209.699	1	37	0.00509789	0.0535699	0	-0.00187871	0.333985	0.199177	6.84174	7.10801e-06	7.90782e-06	3.07994e-06	5.68698e-06	8.43973e-06	6.15311e-06	0.0757987	0.0930856	0.383021	7.78748e-06	3.87669e-05	2.21404e-06	6.16952e-06	5.22233e-06	1.08402e-06	10.0688	3.00696	10.5082	16.6278	209699	702179	732823	-73.3722	0.0000000E+000	0.0000000E+000	0.0000000E+000	73.3722	0.0000000E+000	0.0000000E+000	0.0000000E+000	-73.3722	0.0000000E+000	0.0000000E+000	0.0000000E+000	-16.6278	0.0000000E+000	0.0000000E+000	0.0000000E+000	16.6278	3.3485	73.3722	-8.46189e-05
1811.74	0.0949916	0.0298182	0.0995617	-17.4272	65.9466	-0.000120488	-0.306585	2946.07	264.253	1	37	0.00509065	0.0511306	0	-0.00208934	0.359343	0.176105	6.79972	5.3012e-06	4.84237e-06	5.97449e-06	7.59728e-06	6.61711e-06	9.04654e-06	0.0592575	0.102359	0.393499	1.00958e-05	2.64714e-05	3.85898e-06	6.12506e-06	5.78596e-06	3.58325e-06	9.58298	3.00813	10.044	17.4272	264253	841830	882330	-72.5728	0.0000000E+000	0.0000000E+000	0.0000000E+000	72.5728	0.0000000E+000	0.0000000E+000	0.0000000E+000	-72.5728	0.0000000E+000	0.0000000E+000	0.0000000E+000	-17.4272	0.0000000E+000	0.0000000E+000	0.0000000E+000	17.4272	3.1857	72.5728	-8.39455e-05
1438.62	0.0990902	0.0323951	0.104251	-18.1039	68.6049	-0.000123769	-0.350266	3415.04	329.755	1	37	0.00505452	0.0484841	0	-0.00222607	0.341179	0.153776	6.89115	4.31179e-06	7.47822e-06	7.01122e-06	7.65583e-06	7.40061e-06	5.32608e-06	0.041072	0.0398093	0.409797	4.93373e-06	1.63788e-05	3.57285e-06	6.51079e-06	4.72827e-06	2.54121e-06	9.11735	2.98069	9.59222	18.1039	329755	1.00866e+06	1.06119e+06	-71.8961	0.0000000E+000	0.0000000E+000	0.0000000E+000	71.8961	0.0000000E+000	0.0000000E+000	0.0000000E+000	-71.8961	0.0000000E+000	0.0000000E+000	0.0000000E+000	-18.1039	0.0000000E+000	0.0000000E+000	0.0000000E+000	18.1039	3.05881	71.8961	-5.46512e-05
1141.82	0.103897	0.0351999	0.109698	-18.7162	71.2614	-0.000130927	-0.356873	3959.85	407.726	1	37	0.00505643	0.0460942	0	-0.00245953	0.294123	0.186854	6.7808	4.56884e-06	4.97143e-06	2.94472e-06	4.51501e-06	8.15943e-06	5.2343e-06	0.0287191	0.090318	0.434561	1.98901e-06	8.39784e-06	2.82445e-06	7.38303e-06	3.11976e-06	2.78794e-06	8.63391	2.92514	9.11596	18.7162	407726	1.20345e+06	1.27064e+06	-71.2838	0.0000000E+000	0.0000000E+000	0.0000000E+000	71.2838	0.0000000E+000	0.0000000E+000	0.0000000E+000	-71.2838	0.0000000E+000	0.0000000E+000	0.0000000E+000	-18.7162	0.0000000E+000	0.0000000E+000	0.0000000E+000	18.7162	2.95162	71.2838	-8.80705e-05
907.034	0.108789	0.0380637	0.115256	-19.2842	73.9183	-0.000126752	-0.331841	4609.83	502.785	1	37	0.00511804	0.0444059	0	-0.00277609	0.299198	0.167682	6.80038	4.81976e-06	4.37619e-06	7.96688e-06	5.93879e-06	4.61737e-06	6.40293e-06	0.0406744	0.0558069	0.451535	4.97652e-06	1.09078e-05	5.89509e-06	1.00551e-05	3.97291e-06	3.99006e-06	8.18954	2.8654	8.67635	19.2842	502785	1.437e+06	1.52242e+06	-70.7158	0.0000000E+000	0.0000000E+000	0.0000000E+000	70.7158	0.0000000E+000	0.0000000E+000	0.0000000E+000	-70.7158	0.0000000E+000	0.0000000E+000	0.0000000E+000	-19.2842	0.0000000E+000	0.0000000E+000	0.0000000E+000	19.2842	2.85808	70.7158	-0.000131172
719.771	0.114023	0.0410677	0.121193	-19.8075	76.3558	-0.000133555	-0.34632	5384.26	618.255	1	37	0.00545288	0.0449932	0	-0.00297334	0.241317	0.17535	6.3535	5.02532e-06	6.90982e-06	3.845e-06	5.49448e-06	3.67761e-06	4.5328e-06	0.0537211	0.0320635	0.441	3.15916e-06	1.99453e-05	6.00032e-06	9.86967e-06	4.05104e-06	3.90569e-06	7.7631	2.79603	8.25127	19.8075	618255	1.71657e+06	1.82451e+06	-70.1925	0.0000000E+000	0.0000000E+000	0.0000000E+000	70.1925	0.0000000E+000	0.0000000E+000	0.0000000E+000	-70.1925	0.0000000E+000	0.0000000E+000	0.0000000E+000	-19.8075	0.0000000E+000	0.0000000E+000	0.0000000E+000	19.8075	2.77647	70.1925	-8.32478e-05
571.647	0.119589	0.0442952	0.127529	-20.3243	78.7892	-9.02531e-05	-0.310587	6285.45	758.28	1	37	0.00540239	0.042362	0	-0.00321728	0.305193	0.174994	6.47	4.92041e-06	8.4276e-06	7.30153e-06	4.59181e-06	7.81924e-06	3.72141e-06	0.0602082	0.019344	0.470147	6.19529e-06	2.20553e-05	6.53434e-06	3.74884e-06	5.92962e-06	4.17369e-06	7.35315	2.72356	7.84134	20.3243	758280	2.04723e+06	2.18315e+06	-69.6757	0.0000000E+000	0.0000000E+000	0.0000000E+000	69.6757	0.0000000E+000	0.0000000E+000	0.0000000E+000	-69.6757	0.0000000E+000	0.0000000E+000	0.0000000E+000	-20.3243	0.0000000E+000	0.0000000E+000	0.0000000E+000	20.3243	2.69983	69.6757	-0.000132796
453.693	0.1255	0.0477635	0.134282	-20.8361	81.2274	-9.21358e-05	-0.311424	7344.49	929.219	1	37	0.00513691	0.0382546	0	-0.00341716	0.265479	0.152855	6.74328	6.50519e-06	6.18373e-06	2.35887e-06	2.83339e-06	6.03089e-06	5.91978e-06	0.061646	0.0161106	0.515346	4.26658e-06	1.89254e-05	3.09193e-06	1.01535e-05	5.19395e-06	2.14068e-06	6.95999	2.64887	7.44701	20.8361	929219	2.44155e+06	2.6124e+06	-69.1639	0.0000000E+000	0.0000000E+000	0.0000000E+000	69.1639	0.0000000E+000	0.0000000E+000	0.0000000E+000	-69.1639	0.0000000E+000	0.0000000E+000	0.0000000E+000	-20.8361	0.0000000E+000	0.0000000E+000	0.0000000E+000	20.8361	2.62753	69.1639	-0.000118004
360.346	0.131902	0.0518581	0.14173	-21.4626	83.4426	-9.57521e-05	-0.318069	8516.96	1140.23	1	37	0.00529724	0.0373755	0	-0.00359488	0.276941	0.405701	6.61275	6.77639e-06	7.35844e-06	5.89485e-06	2.89652e-06	2.49461e-06	6.61965e-06	0.0796909	0.0176958	0.538614	1.77288e-06	2.44857e-05	5.36295e-06	1.30449e-05	5.76523e-06	3.99933e-06	6.5664	2.58162	7.05567	21.4626	1.14023e+06	2.9002e+06	3.1163e+06	-68.5374	0.0000000E+000	0.0000000E+000	0.0000000E+000	68.5374	0.0000000E+000	0.0000000E+000	0.0000000E+000	-68.5374	0.0000000E+000	0.0000000E+000	0.0000000E+000	-21.4626	0.0000000E+000	0.0000000E+000	0.0000000E+000	21.4626	2.54352	68.5374	-6.88506e-05
286.007	0.138326	0.0569615	0.149595	-22.3815	85.6521	-0.000101232	-0.338169	9769.27	1416.42	1	37	0.00532475	0.0355944	0	-0.0038458	0.346464	0.202411	6.60131	5.35104e-06	9.21828e-06	8.61816e-06	5.26438e-06	6.48625e-06	7.57647e-06	0.0901051	0.0250364	0.562252	3.53337e-06	2.68612e-05	6.04538e-06	1.51396e-05	2.8877e-06	4.09814e-06	6.18115	2.54535	6.68472	22.3815	1.41642e+06	3.43964e+06	3.71986e+06	-67.6185	0.0000000E+000	0.0000000E+000	0.0000000E+000	67.6185	0.0000000E+000	0.0000000E+000	0.0000000E+000	-67.6185	0.0000000E+000	0.0000000E+000	0.0000000E+000	-22.3815	0.0000000E+000	0.0000000E+000	0.0000000E+000	22.3815	2.42841	67.6185	-0.000137795
227.108	0.14608	0.0622979	0.158809	-23.0965	87.8619	-9.30492e-05	-0.30612	11249	1731.05	1	37	0.00529997	0.0333731	0	-0.00409049	0.268045	0.25284	6.56021	3.16931e-06	8.8405e-06	3.24952e-06	4.5043e-06	7.27037e-06	4.10128e-06	0.110134	0.027465	0.600052	3.04608e-06	2.90077e-05	6.42362e-06	2.02725e-05	3.26191e-06	2.23502e-06	5.79214	2.47014	6.29686	23.0965	1.73105e+06	4.05907e+06	4.41278e+06	-66.9035	0.0000000E+000	0.0000000E+000	0.0000000E+000	66.9035	0.0000000E+000	0.0000000E+000	0.0000000E+000	-66.9035	0.0000000E+000	0.0000000E+000	0.0000000E+000	-23.0965	0.0000000E+000	0.0000000E+000	0.0000000E+000	23.0965	2.34486	66.9035	-0.000152162
180.288	0.154815	0.0690204	0.169504	-24.0285	90.0705	-5.75946e-05	-0.296666	12790.1	2120.66	1	37	0.00524464	0.0309412	0	-0.00419296	0.349042	0.173446	6.62293	6.15368e-06	5.76966e-06	4.07173e-06	5.84556e-06	5.39516e-06	1.22702e-05	0.123446	0.0227614	0.6521	5.24326e-06	2.87586e-05	8.83078e-06	2.16524e-05	4.44213e-06	2.62803e-06	5.38834	2.40225	5.89958	24.0285	2.12066e+06	4.75671e+06	5.20802e+06	-65.9715	0.0000000E+000	0.0000000E+000	0.0000000E+000	65.9715	0.0000000E+000	0.0000000E+000	0.0000000E+000	-65.9715	0.0000000E+000	0.0000000E+000	0.0000000E+000	-24.0285	0.0000000E+000	0.0000000E+000	0.0000000E+000	24.0285	2.24303	65.9715	-4.72921e-05
143.122	0.165348	0.076078	0.182011	-24.7075	92.2884	-9.29187e-05	-0.340905	14616.9	2553.75	1	37	0.00518204	0.028471	0	-0.00442846	0.351191	0.1902	6.93171	5.46949e-06	8.73326e-06	7.7008e-06	4.60691e-06	8.44592e-06	6.0427e-06	0.158773	0.123228	0.694386	7.94205e-06	3.4154e-05	3.53011e-06	2.78552e-05	3.66871e-06	2.14519e-06	4.9912	2.29649	5.49418	24.7075	2.55375e+06	5.55034e+06	6.10965e+06	-65.2925	0.0000000E+000	0.0000000E+000	0.0000000E+000	65.2925	0.0000000E+000	0.0000000E+000	0.0000000E+000	-65.2925	0.0000000E+000	0.0000000E+000	0.0000000E+000	-24.7075	0.0000000E+000	0.0000000E+000	0.0000000E+000	24.7075	2.17341	65.2925	-0.000113319
113.654	0.178147	0.0831121	0.196581	-25.0107	94.5151	-9.20426e-05	-0.317418	16848.9	3011.73	1	37	0.00512466	0.026069	0	-0.00462918	0.293183	0.19836	6.85334	4.38457e-06	6.79788e-06	8.20934e-06	3.84123e-06	4.45501e-06	5.00757e-06	0.168237	0.0227899	0.760041	6.92517e-06	2.96003e-05	8.00362e-06	2.87815e-05	4.2846e-06	7.88521e-06	4.60995	2.15071	5.08696	25.0107	3.01173e+06	6.45552e+06	7.1235e+06	-64.9893	0.0000000E+000	0.0000000E+000	0.0000000E+000	64.9893	0.0000000E+000	0.0000000E+000	0.0000000E+000	-64.9893	0.0000000E+000	0.0000000E+000	0.0000000E+000	-25.0107	0.0000000E+000	0.0000000E+000	0.0000000E+000	25.0107	2.14346	64.9893	-0.000117254
90.2601	0.193095	0.0899159	0.213004	-24.9693	96.7202	-0.000106415	-0.321903	19610.5	3494.52	1	37	0.00507583	0.0238298	0	-0.00485434	0.375673	0.135139	6.88761	5.409e-06	7.83554e-06	4.88293e-06	8.87789e-06	8.2657e-06	7.78173e-06	0.179849	0.0287115	0.833099	5.90194e-06	2.8582e-05	6.61239e-06	2.91646e-05	4.22565e-06	6.55797e-06	4.25596	1.98181	4.69476	24.9693	3.49452e+06	7.5045e+06	8.27824e+06	-65.0307	0.0000000E+000	0.0000000E+000	0.0000000E+000	65.0307	0.0000000E+000	0.0000000E+000	0.0000000E+000	-65.0307	0.0000000E+000	0.0000000E+000	0.0000000E+000	-24.9693	0.0000000E+000	0.0000000E+000	0.0000000E+000	24.9693	2.14751	65.0307	-0.000130632
71.6276	0.210387	0.0948364	0.230774	-24.2645	98.9212	-9.87906e-05	-0.324918	23429.6	3956.77	1	37	0.00503216	0.0218056	0	-0.00503247	0.317509	0.18392	6.85636	6.42799e-06	4.83527e-06	5.50611e-06	9.21773e-06	5.24862e-06	5.22065e-06	0.216549	0.0374815	0.9086	1.5745e-05	3.02201e-05	3.53047e-06	3.07376e-05	5.46994e-06	2.81421e-06	3.95044	1.78074	4.33324	24.2645	3.95677e+06	8.77778e+06	9.62837e+06	-65.7355	0.0000000E+000	0.0000000E+000	0.0000000E+000	65.7355	0.0000000E+000	0.0000000E+000	0.0000000E+000	-65.7355	0.0000000E+000	0.0000000E+000	0.0000000E+000	-24.2645	0.0000000E+000	0.0000000E+000	0.0000000E+000	24.2645	2.21842	65.7355	-8.30874e-05
56.8746	0.229361	0.0976837	0.249296	-23.069	101.129	-9.64791e-05	-0.316041	28647	4398.39	1	37	0.00500233	0.0200658	0	-0.0052426	0.324701	0.235229	6.9731	3.45134e-06	1.03832e-05	6.7772e-06	6.82193e-06	2.38867e-06	5.15477e-06	0.195447	0.112556	0.992576	1.27554e-05	2.38787e-05	2.23241e-06	2.67805e-05	7.43164e-06	4.44151e-06	3.69053	1.57178	4.0113	23.069	4.39839e+06	1.03274e+07	1.1225e+07	-66.931	0.0000000E+000	0.0000000E+000	0.0000000E+000	66.931	0.0000000E+000	0.0000000E+000	0.0000000E+000	-66.931	0.0000000E+000	0.0000000E+000	0.0000000E+000	-23.069	0.0000000E+000	0.0000000E+000	0.0000000E+000	23.069	2.34799	66.931	-0.000106373
45.1589	0.248747	0.09733	0.267111	-21.3695	103.337	-9.46523e-05	-0.316953	36210.1	4807.72	1	37	0.00497383	0.0186208	0	-0.00547287	0.311019	0.167046	7.00068	5.58343e-06	7.02608e-06	3.99379e-06	7.84658e-06	2.81542e-06	6.80584e-06	0.19066	0.149672	1.05158	9.95454e-06	2.17652e-05	2.55682e-06	2.49713e-05	4.17978e-06	2.91343e-06	3.48638	1.36415	3.74376	21.3695	4.80772e+06	1.22871e+07	1.31942e+07	-68.6305	0.0000000E+000	0.0000000E+000	0.0000000E+000	68.6305	0.0000000E+000	0.0000000E+000	0.0000000E+000	-68.6305	0.0000000E+000	0.0000000E+000	0.0000000E+000	-21.3695	0.0000000E+000	0.0000000E+000	0.0000000E+000	21.3695	2.55571	68.6305	-0.000117515
35.8607	0.267974	0.0943502	0.284099	-19.3965	105.537	-9.46337e-05	-0.322703	47039.1	5188.07	1	37	0.00496161	0.0174644	0	-0.00568945	0.318037	0.185219	6.95602	5.36106e-06	5.04516e-06	7.10439e-06	4.18858e-06	5.24612e-06	6.5547e-06	0.212527	0.0407957	1.14409	8.16868e-06	2.00456e-05	7.96696e-06	2.25987e-05	6.03597e-06	1.64282e-05	3.32012	1.16897	3.5199	19.3965	5.18807e+06	1.47352e+07	1.56218e+07	-70.6035	0.0000000E+000	0.0000000E+000	0.0000000E+000	70.6035	0.0000000E+000	0.0000000E+000	0.0000000E+000	-70.6035	0.0000000E+000	0.0000000E+000	0.0000000E+000	-19.3965	0.0000000E+000	0.0000000E+000	0.0000000E+000	19.3965	2.84021	70.6035	-0.000108656
28.4608	0.285453	0.0887644	0.298935	-17.2736	107.753	-0.000106079	-0.319782	62999	5554.65	1	37	0.00494762	0.0165508	0	-0.0058911	0.286133	0.156574	7.02511	7.43486e-06	5.29644e-06	4.36344e-06	5.20635e-06	4.03164e-06	5.64544e-06	0.156338	0.0271527	1.19833	6.87098e-06	1.74077e-05	5.25233e-06	1.36351e-05	7.43547e-06	5.02825e-06	3.19433	0.993309	3.34521	17.2736	5.55465e+06	1.78629e+07	1.87066e+07	-72.7264	0.0000000E+000	0.0000000E+000	0.0000000E+000	72.7264	0.0000000E+000	0.0000000E+000	0.0000000E+000	-72.7264	0.0000000E+000	0.0000000E+000	0.0000000E+000	-17.2736	0.0000000E+000	0.0000000E+000	0.0000000E+000	17.2736	3.21585	72.7264	-0.000105144
22.6056	0.300704	0.0808037	0.311371	-15.0409	110.011	-0.000103358	-0.316004	87131.1	5867.84	1	37	0.00493964	0.0158642	0	-0.0060903	0.253727	0.123872	4.83045	5.29752e-06	7.75784e-06	2.93479e-06	3.72727e-06	1.77101e-06	4.8581e-06	0.158879	0.0283078	0.940627	4.66564e-06	1.4454e-05	2.01173e-06	1.80486e-05	2.83919e-06	5.63729e-06	3.10157	0.83344	3.2116	15.0409	5.86784e+06	2.18367e+07	2.26113e+07	-74.9591	0.0000000E+000	0.0000000E+000	0.0000000E+000	74.9591	0.0000000E+000	0.0000000E+000	0.0000000E+000	-74.9591	0.0000000E+000	0.0000000E+000	0.0000000E+000	-15.0409	0.0000000E+000	0.0000000E+000	0.0000000E+000	15.0409	3.72141	74.9591	-0.000103152
17.9391	0.313692	0.0722091	0.321896	-12.9631	112.279	-0.000100226	-0.318981	122865	6182.71	1	37	0.00493593	0.0153339	0	-0.00630023	0.221071	0.0975569	4.86376	3.33162e-06	6.81003e-06	5.29623e-06	3.97665e-06	1.79537e-06	2.62559e-06	0.153219	0.0233745	0.965161	7.45684e-06	1.32444e-05	3.16609e-06	1.66718e-05	3.44215e-06	3.13854e-06	3.02742	0.696884	3.10659	12.9631	6.18272e+06	2.68591e+07	2.75615e+07	-77.0369	0.0000000E+000	0.0000000E+000	0.0000000E+000	77.0369	0.0000000E+000	0.0000000E+000	0.0000000E+000	-77.0369	0.0000000E+000	0.0000000E+000	0.0000000E+000	-12.9631	0.0000000E+000	0.0000000E+000	0.0000000E+000	12.9631	4.34422	77.0369	-0.000137424
14.2477	0.323842	0.0632865	0.329968	-11.0576	114.486	-0.000110665	-0.353245	176507	6492.94	1	37	0.00492947	0.0149392	0	-0.00651069	0.319149	0.184984	7.17482	4.21959e-06	6.68929e-06	1.82657e-06	5.13536e-06	7.2683e-06	8.28396e-06	0.167343	0.0391244	1.33612	7.10697e-06	1.37664e-05	7.5611e-06	1.55327e-05	5.29625e-06	3.17712e-06	2.97433	0.581256	3.03059	11.0576	6.49294e+06	3.32249e+07	3.38534e+07	-78.9424	0.0000000E+000	0.0000000E+000	0.0000000E+000	78.9424	0.0000000E+000	0.0000000E+000	0.0000000E+000	-78.9424	0.0000000E+000	0.0000000E+000	0.0000000E+000	-11.0576	0.0000000E+000	0.0000000E+000	0.0000000E+000	11.0576	5.11708	78.9424	-0.000120791
11.3142	0.332339	0.0549881	0.336858	-9.39491	116.729	-0.000103507	-0.334112	255815	6816.64	1	37	0.004933	0.0146441	0	-0.00672934	0.43619	0.175499	7.121	4.22932e-06	1.07673e-05	9.76705e-06	8.36986e-06	5.02559e-06	1.0661e-05	0.158542	0.0461806	1.34666	5.79053e-06	1.42796e-05	6.26171e-06	1.31642e-05	6.92903e-06	4.90514e-06	2.92879	0.484591	2.96861	9.39491	6.81664e+06	4.11987e+07	4.17589e+07	-80.6051	0.0000000E+000	0.0000000E+000	0.0000000E+000	80.6051	0.0000000E+000	0.0000000E+000	0.0000000E+000	-80.6051	0.0000000E+000	0.0000000E+000	0.0000000E+000	-9.39491	0.0000000E+000	0.0000000E+000	0.0000000E+000	9.39491	6.04384	80.6051	-8.51815e-05
8.97989	0.338061	0.0473366	0.341359	-7.97095	118.98	-0.000109518	-0.345586	374414	7199.85	1	37	0.00492553	0.0144292	0	-0.0069286	0.236601	0.122526	4.86899	4.08951e-06	6.24905e-06	4.71985e-06	2.60916e-06	4.93386e-06	2.98738e-06	0.1265	0.0283431	1.02353	4.37479e-06	1.07163e-05	2.50464e-06	1.13917e-05	5.85132e-06	2.26486e-06	2.90116	0.406232	2.92947	7.97095	7.19985e+06	5.14187e+07	5.19204e+07	-82.0291	0.0000000E+000	0.0000000E+000	0.0000000E+000	82.0291	0.0000000E+000	0.0000000E+000	0.0000000E+000	-82.0291	0.0000000E+000	0.0000000E+000	0.0000000E+000	-7.97095	0.0000000E+000	0.0000000E+000	0.0000000E+000	7.97095	7.14164	82.0291	-9.3969e-05
7.12819	0.343089	0.0402601	0.345443	-6.69282	121.459	-0.00010086	-0.333163	554582	7532.9	1	37	0.00492604	0.0142601	0	-0.0071368	0.233234	0.155335	5.54406	4.94344e-06	4.37203e-06	5.03061e-06	3.81757e-06	3.19482e-06	5.58149e-06	0.229959	0.0570052	1.03896	6.81815e-06	1.30847e-05	2.75784e-06	8.95897e-06	2.62413e-06	2.72431e-05	2.87511	0.337382	2.89483	6.69282	7.5329e+06	6.4194e+07	6.46345e+07	-83.3072	0.0000000E+000	0.0000000E+000	0.0000000E+000	83.3072	0.0000000E+000	0.0000000E+000	0.0000000E+000	-83.3072	0.0000000E+000	0.0000000E+000	0.0000000E+000	-6.69282	0.0000000E+000	0.0000000E+000	0.0000000E+000	6.69282	8.52182	83.3072	-0.000138834
5.66123	0.346528	0.0344527	0.348237	-5.67783	124.319	-0.000105849	-0.322157	815992	7986.98	1	37	0.00492029	0.0141292	0	-0.0074286	0.205856	0.178682	3.91039	2.95656e-06	7.60183e-06	2.40835e-06	2.09628e-06	2.77724e-06	2.9816e-06	0.138179	0.0583034	0.907862	6.44233e-06	1.3323e-05	3.43029e-06	9.01251e-06	4.17646e-06	4.22799e-06	2.85752	0.284102	2.87161	5.67783	7.98698e+06	8.03338e+07	8.07299e+07	-84.3222	0.0000000E+000	0.0000000E+000	0.0000000E+000	84.3222	0.0000000E+000	0.0000000E+000	0.0000000E+000	-84.3222	0.0000000E+000	0.0000000E+000	0.0000000E+000	-5.67783	0.0000000E+000	0.0000000E+000	0.0000000E+000	5.67783	10.0581	84.3222	-0.00033732
4.49511	0.349795	0.0294009	0.351028	-4.80453	127.68	-0.000106657	-0.336155	1.20426e+06	8448.07	1	37	0.00492644	0.0140343	0	-0.00775804	0.204475	0.109806	3.32958	2.25026e-06	3.93484e-06	3.52703e-06	4.0478e-06	4.13133e-06	3.67416e-06	0.116707	0.102207	0.822923	5.59131e-06	8.08901e-06	4.24047e-06	1.04377e-05	4.36967e-06	3.0803e-06	2.83877	0.238604	2.84878	4.80453	8.44807e+06	1.0051e+08	1.00865e+08	-85.1955	0.0000000E+000	0.0000000E+000	0.0000000E+000	85.1955	0.0000000E+000	0.0000000E+000	0.0000000E+000	-85.1955	0.0000000E+000	0.0000000E+000	0.0000000E+000	-4.80453	0.0000000E+000	0.0000000E+000	0.0000000E+000	4.80453	11.8974	85.1955	-0.000200566
3.56735	0.351677	0.0254839	0.352599	-4.14463	131.683	-0.00010455	-0.332936	1.75069e+06	9144.86	1	37	0.00492082	0.0139558	0	-0.00808942	0.200831	0.137544	2.88957	2.90917e-06	3.23001e-06	5.49843e-06	3.52634e-06	4.54579e-06	2.19531e-06	0.118474	0.0589264	0.759859	6.75051e-06	1.11835e-05	2.5858e-06	8.83147e-06	2.21369e-06	8.30482e-07	2.82866	0.204976	2.83608	4.14463	9.14486e+06	1.26199e+08	1.2653e+08	-85.8554	0.0000000E+000	0.0000000E+000	0.0000000E+000	85.8554	0.0000000E+000	0.0000000E+000	0.0000000E+000	-85.8554	0.0000000E+000	0.0000000E+000	0.0000000E+000	-4.14463	0.0000000E+000	0.0000000E+000	0.0000000E+000	4.14463	13.8	85.8554	-0.000422397
2.83369	0.353677	0.022066	0.354365	-3.57006	136.51	-0.000101192	-0.315597	2.54533e+06	9869.34	1	37	0.00492348	0.0138938	0	-0.00824907	0.147775	0.118917	2.57815	2.71621e-06	3.5504e-06	1.77039e-06	1.8962e-06	1.84003e-06	3.49863e-06	0.115251	0.085667	0.721801	4.59107e-06	1.02658e-05	3.00832e-06	9.6543e-06	3.41006e-06	2.38667e-06	2.81647	0.17572	2.82195	3.57006	9.86934e+06	1.58188e+08	1.58495e+08	-86.4299	0.0000000E+000	0.0000000E+000	0.0000000E+000	86.4299	0.0000000E+000	0.0000000E+000	0.0000000E+000	-86.4299	0.0000000E+000	0.0000000E+000	0.0000000E+000	-3.57006	0.0000000E+000	0.0000000E+000	0.0000000E+000	3.57006	16.0282	86.4299	-0.000248302
2.25014	0.355164	0.0194923	0.355699	-3.14139	142.379	-0.000105897	-0.326796	3.62866e+06	10897.1	1	37	0.00492266	0.0138394	0	-0.0087241	0.163079	0.0782534	2.24748	4.4557e-06	3.381e-06	1.41715e-06	3.81904e-06	1.37243e-06	1.84364e-06	0.118887	0.0773026	0.674246	7.69874e-06	8.82004e-06	2.30695e-06	1.02428e-05	1.60459e-06	1.70902e-06	2.80714	0.154063	2.81137	3.14139	1.08971e+07	1.98552e+08	1.98851e+08	-86.8586	0.0000000E+000	0.0000000E+000	0.0000000E+000	86.8586	0.0000000E+000	0.0000000E+000	0.0000000E+000	-86.8586	0.0000000E+000	0.0000000E+000	0.0000000E+000	-3.14139	0.0000000E+000	0.0000000E+000	0.0000000E+000	3.14139	18.2207	86.8586	-0.000195984
1.78572	0.35655	0.0177396	0.356991	-2.84831	149.571	-0.000101081	-0.318493	5.02417e+06	12406.1	1	37	0.00492099	0.0137846	0	-0.00979804	0.144998	0.0714948	2.00463	2.75112e-06	3.26717e-06	2.49975e-06	2.92728e-06	2.45681e-06	2.66944e-06	0.122641	0.0804226	0.640936	7.61221e-06	8.66993e-06	2.77647e-06	1.02088e-05	3.29543e-06	1.47309e-06	2.79773	0.139197	2.80119	2.84831	1.24061e+07	2.49352e+08	2.49661e+08	-87.1517	0.0000000E+000	0.0000000E+000	0.0000000E+000	87.1517	0.0000000E+000	0.0000000E+000	0.0000000E+000	-87.1517	0.0000000E+000	0.0000000E+000	0.0000000E+000	-2.84831	0.0000000E+000	0.0000000E+000	0.0000000E+000	2.84831	20.0991	87.1517	-0.0007851
1.41736	0.357659	0.0164516	0.358037	-2.63364	159.898	-9.51425e-05	-0.283821	6.82544e+06	14410.9	1	38	0.00492064	0.0137434	0	-0.0100913	0.137094	0.0803408	1.80203	1.81133e-06	4.92324e-06	1.95302e-06	2.13953e-06	1.49488e-06	1.7753e-06	0.123982	0.0856123	0.450318	4.91264e-06	1.24705e-05	2.4043e-06	9.04866e-06	2.75803e-06	1.82095e-06	2.79005	0.128337	2.793	2.63364	1.44109e+07	3.13294e+08	3.13625e+08	-87.3664	0.0000000E+000	0.0000000E+000	0.0000000E+000	87.3664	0.0000000E+000	0.0000000E+000	0.0000000E+000	-87.3664	0.0000000E+000	0.0000000E+000	0.0000000E+000	-2.63364	0.0000000E+000	0.0000000E+000	0.0000000E+000	2.63364	21.74	87.3664	0.000167641
1.12508	0.358683	0.0157257	0.359027	-2.51041	170.868	-8.16772e-05	-0.296756	8.99557e+06	17258.1	1	38	0.00492151	0.0137079	0	-0.0109811	0.0882362	0.0652014	1.54536	1.53646e-06	2.67938e-06	1.49476e-06	1.9774e-06	6.1744e-07	1.12599e-06	0.126576	0.068114	0.438856	6.45713e-06	1.19583e-05	7.58309e-07	1.03413e-05	1.21864e-06	6.35323e-07	2.78263	0.121999	2.7853	2.51041	1.72581e+07	3.93635e+08	3.94014e+08	-87.4896	0.0000000E+000	0.0000000E+000	0.0000000E+000	87.4896	0.0000000E+000	0.0000000E+000	0.0000000E+000	-87.4896	0.0000000E+000	0.0000000E+000	0.0000000E+000	-2.51041	0.0000000E+000	0.0000000E+000	0.0000000E+000	2.51041	22.8087	87.4896	0.000297342
0.893876	0.359732	0.015323	0.360059	-2.43908	184.471	-8.7783e-05	-0.320425	1.16198e+07	21044.6	1	38	0.00492082	0.0136667	0	-0.0118017	0.122489	0.0847289	1.37144	2.32045e-06	3.28374e-06	2.18285e-06	2.00147e-06	1.99454e-06	1.97508e-06	0.136474	0.108014	0.446079	1.10714e-05	8.71976e-06	3.44754e-06	1.05805e-05	2.62793e-06	1.27163e-06	2.77481	0.118195	2.77733	2.43908	2.10446e+07	4.94056e+08	4.94504e+08	-87.5609	0.0000000E+000	0.0000000E+000	0.0000000E+000	87.5609	0.0000000E+000	0.0000000E+000	0.0000000E+000	-87.5609	0.0000000E+000	0.0000000E+000	0.0000000E+000	-2.43908	0.0000000E+000	0.0000000E+000	0.0000000E+000	2.43908	23.4766	87.5609	0.000600019
0.709519	0.360966	0.0158391	0.361314	-2.51251	201.385	-8.81852e-05	-0.310859	1.4162e+07	27215.6	1	38	0.00492269	0.0136244	0	-0.0143857	0.113452	0.0382187	1.20897	1.29421e-06	3.99107e-06	7.53674e-07	2.52335e-06	1.53727e-06	1.30908e-06	0.147247	0.147739	0.438291	8.33266e-06	1.24938e-05	2.81801e-06	1.19371e-05	1.93243e-06	1.90488e-06	2.76502	0.121328	2.76768	2.51251	2.72156e+07	6.20232e+08	6.20829e+08	-87.4875	0.0000000E+000	0.0000000E+000	0.0000000E+000	87.4875	0.0000000E+000	0.0000000E+000	0.0000000E+000	-87.4875	0.0000000E+000	0.0000000E+000	0.0000000E+000	-2.51251	0.0000000E+000	0.0000000E+000	0.0000000E+000	2.51251	22.7895	87.4875	-0.000611705
0.563185	0.36186	0.0167461	0.362247	-2.64964	222.521	-9.79354e-05	-0.34716	1.68754e+07	36064	1	38	0.00492041	0.013583	0	-0.0164471	0.150153	0.0587504	1.1022	4.14398e-06	4.58745e-06	1.01081e-06	1.81537e-06	2.02918e-06	2.07654e-06	0.136879	0.14746	0.444595	6.8022e-06	1.20722e-05	4.68557e-06	9.82826e-06	2.27446e-06	3.70963e-06	2.75759	0.127616	2.76055	2.64964	3.6064e+07	7.79291e+08	7.80125e+08	-87.3504	0.0000000E+000	0.0000000E+000	0.0000000E+000	87.3504	0.0000000E+000	0.0000000E+000	0.0000000E+000	-87.3504	0.0000000E+000	0.0000000E+000	0.0000000E+000	-2.64964	0.0000000E+000	0.0000000E+000	0.0000000E+000	2.64964	21.6086	87.3504	-0.00238188
0.447298	0.363022	0.0182378	0.36348	-2.87605	248.974	-9.13342e-05	-0.313872	1.95097e+07	49117.2	1	38	0.00491928	0.0135338	0	-0.0176992	0.100461	0.0809586	0.978802	1.90828e-06	2.8089e-06	1.53634e-06	2.14838e-06	8.64355e-07	1.41996e-06	0.131654	0.122548	0.428862	3.97966e-06	1.32003e-05	4.06686e-06	9.99849e-06	1.33558e-06	1.2134e-06	2.74772	0.138042	2.75118	2.87605	4.91172e+07	9.77677e+08	9.7891e+08	-87.124	0.0000000E+000	0.0000000E+000	0.0000000E+000	87.124	0.0000000E+000	0.0000000E+000	0.0000000E+000	-87.124	0.0000000E+000	0.0000000E+000	0.0000000E+000	-2.87605	0.0000000E+000	0.0000000E+000	0.0000000E+000	2.87605	19.905	87.124	0.000529526
0.355178	0.364649	0.0201776	0.365207	-3.1672	282.112	-9.47457e-05	-0.323233	2.22077e+07	67790.1	1	38	0.00492006	0.013472	0	-0.0220462	0.0929096	0.0722022	0.86479	1.80482e-06	3.24708e-06	1.1114e-06	1.70891e-06	8.02875e-07	1.20368e-06	0.128563	0.125532	0.428801	7.91281e-06	1.10288e-05	2.71234e-06	9.2704e-06	2.65146e-06	2.08392e-06	2.73399	0.151284	2.73818	3.1672	6.77902e+07	1.2251e+09	1.22697e+09	-86.8328	0.0000000E+000	0.0000000E+000	0.0000000E+000	86.8328	0.0000000E+000	0.0000000E+000	0.0000000E+000	-86.8328	0.0000000E+000	0.0000000E+000	0.0000000E+000	-3.1672	0.0000000E+000	0.0000000E+000	0.0000000E+000	3.1672	18.072	86.8328	-0.00348301
0.281811	0.365704	0.0228625	0.366418	-3.57727	323.695	-9.82042e-05	-0.332847	2.47024e+07	96168.3	1	38	0.00491988	0.0134269	0	-0.0255774	0.0940479	0.0674995	0.783387	1.55979e-06	3.19971e-06	1.85688e-06	1.51584e-06	1.09282e-06	8.21307e-07	0.184481	0.118178	0.424289	1.81063e-05	8.1359e-06	8.27688e-06	9.58857e-06	2.88874e-06	4.02563e-06	2.72381	0.170282	2.72912	3.57727	9.61682e+07	1.53829e+09	1.54129e+09	-86.4227	0.0000000E+000	0.0000000E+000	0.0000000E+000	86.4227	0.0000000E+000	0.0000000E+000	0.0000000E+000	-86.4227	0.0000000E+000	0.0000000E+000	0.0000000E+000	-3.57727	0.0000000E+000	0.0000000E+000	0.0000000E+000	3.57727	15.9958	86.4227	-0.000512256
0.223912	0.367571	0.0278529	0.368624	-4.33335	375.898	-8.78904e-05	-0.305757	2.55195e+07	145696	1	38	0.00491965	0.013346	0	-0.0276138	0.104114	0.0833423	0.692504	2.37552e-06	3.83284e-06	9.31912e-07	1.36333e-06	1.22615e-06	9.54029e-07	0.165208	0.0989892	0.428631	6.78693e-06	1.62416e-05	2.38788e-06	1.06123e-05	5.65e-06	2.26841e-06	2.70503	0.204976	2.71279	4.33335	1.45695e+08	1.92272e+09	1.92823e+09	-85.6667	0.0000000E+000	0.0000000E+000	0.0000000E+000	85.6667	0.0000000E+000	0.0000000E+000	0.0000000E+000	-85.6667	0.0000000E+000	0.0000000E+000	0.0000000E+000	-4.33335	0.0000000E+000	0.0000000E+000	0.0000000E+000	4.33335	13.1968	85.6667	-0.00226114
0.177799	0.372314	0.0341174	0.373874	-5.23573	441.467	-8.82548e-05	-0.314936	2.6237e+07	218482	1	38	0.00491984	0.0131591	0	-0.0386269	0.0902482	0.0830801	0.622259	1.58437e-06	3.55982e-06	9.75147e-07	1.28927e-06	8.36551e-07	5.73507e-07	0.0960094	0.0745111	0.414632	4.1753e-06	6.12321e-06	3.70504e-06	8.55335e-06	1.49282e-06	1.47517e-06	2.66354	0.244076	2.6747	5.23573	2.18482e+08	2.38424e+09	2.39422e+09	-84.7643	0.0000000E+000	0.0000000E+000	0.0000000E+000	84.7643	0.0000000E+000	0.0000000E+000	0.0000000E+000	-84.7643	0.0000000E+000	0.0000000E+000	0.0000000E+000	-5.23573	0.0000000E+000	0.0000000E+000	0.0000000E+000	5.23573	10.9127	84.7643	-0.00573741
0.141153	0.380042	0.0393575	0.382074	-5.91253	523.893	-9.04499e-05	-0.336216	2.86484e+07	303991	1	38	0.00491995	0.0128769	0	-0.0428239	0.0978798	0.100863	0.547365	1.66239e-06	3.82946e-06	6.85193e-07	1.26563e-06	1.41242e-06	1.01602e-06	0.201895	0.0756978	0.399821	5.12696e-06	1.14937e-05	6.79716e-06	2.07068e-05	4.93959e-06	2.02009e-06	2.60337	0.269607	2.61729	5.91253	3.03991e+08	2.93538e+09	2.95108e+09	-84.0875	0.0000000E+000	0.0000000E+000	0.0000000E+000	84.0875	0.0000000E+000	0.0000000E+000	0.0000000E+000	-84.0875	0.0000000E+000	0.0000000E+000	0.0000000E+000	-5.91253	0.0000000E+000	0.0000000E+000	0.0000000E+000	5.91253	9.65615	84.0875	-0.000945806
0.112067	0.389592	0.0422741	0.391879	-6.19286	627.545	-0.000108656	-0.338247	3.35944e+07	390942	1	38	0.00491744	0.0125484	0	-0.047867	0.0982329	0.0527621	0.494362	1.50624e-06	3.85091e-06	9.88108e-07	1.94168e-06	5.82189e-07	9.46412e-07	0.230332	0.0607854	0.398665	5.29589e-06	1.05394e-05	3.10255e-06	1.03689e-05	2.2443e-05	6.53353e-06	2.53692	0.275277	2.55181	6.19286	3.90942e+08	3.60286e+09	3.62401e+09	-83.8071	0.0000000E+000	0.0000000E+000	0.0000000E+000	83.8071	0.0000000E+000	0.0000000E+000	0.0000000E+000	-83.8071	0.0000000E+000	0.0000000E+000	0.0000000E+000	-6.19286	0.0000000E+000	0.0000000E+000	0.0000000E+000	6.19286	9.21585	83.8071	-0.00402093
0.0888996	0.399443	0.0425903	0.401707	-6.08613	758.017	-0.000110458	-0.363062	4.20348e+07	472512	1	38	0.00492	0.0122477	0	-0.0674767	0.101763	0.130095	0.449923	1.74954e-06	3.28522e-06	1.24754e-06	2.50358e-06	9.61303e-07	1.22048e-06	0.141857	0.118107	0.465055	6.00083e-06	9.85238e-06	2.75994e-06	1.09094e-05	2.69038e-06	5.20988e-06	2.47535	0.263932	2.48938	6.08613	4.72512e+08	4.43156e+09	4.45668e+09	-83.9139	0.0000000E+000	0.0000000E+000	0.0000000E+000	83.9139	0.0000000E+000	0.0000000E+000	0.0000000E+000	-83.9139	0.0000000E+000	0.0000000E+000	0.0000000E+000	-6.08613	0.0000000E+000	0.0000000E+000	0.0000000E+000	6.08613	9.37872	83.9139	-0.0112885
0.0705771	0.408281	0.040676	0.410302	-5.68946	922.244	-9.49225e-05	-0.302988	5.54393e+07	544863	1	38	0.00492133	0.0119944	0	-0.0856257	0.0934662	0.0890266	0.405777	7.92335e-07	3.9942e-06	7.94257e-07	1.23289e-06	6.71843e-07	1.01358e-06	0.127814	0.127831	0.487608	4.56596e-06	1.10882e-05	2.02881e-06	8.47147e-06	2.29224e-06	1.71083e-06	2.42522	0.241619	2.43723	5.68946	5.44862e+08	5.469e+09	5.49607e+09	-84.3105	0.0000000E+000	0.0000000E+000	0.0000000E+000	84.3105	0.0000000E+000	0.0000000E+000	0.0000000E+000	-84.3105	0.0000000E+000	0.0000000E+000	0.0000000E+000	-5.68946	0.0000000E+000	0.0000000E+000	0.0000000E+000	5.68946	10.0374	84.3105	-0.00718587
0.0560337	0.416186	0.0374084	0.417864	-5.13616	1128.92	-0.000113589	-0.323989	7.5928e+07	608513	1	38	0.00491599	0.0117646	0	-0.0924987	0.108417	0.0991925	0.367361	2.34997e-06	3.54506e-06	8.52708e-07	2.38693e-06	1.30303e-06	7.07965e-07	0.142213	0.0801144	0.511976	5.7036e-06	9.32082e-06	2.78716e-06	1.13753e-05	3.13087e-06	1.0943e-06	2.38352	0.214239	2.39312	5.13616	6.08513e+08	6.77e+09	6.79729e+09	-84.8638	0.0000000E+000	0.0000000E+000	0.0000000E+000	84.8638	0.0000000E+000	0.0000000E+000	0.0000000E+000	-84.8638	0.0000000E+000	0.0000000E+000	0.0000000E+000	-5.13616	0.0000000E+000	0.0000000E+000	0.0000000E+000	5.13616	11.1255	84.8638	-0.0028457
0.0445025	0.421601	0.0337892	0.422952	-4.58218	1388.97	-0.000110128	-0.310027	1.05842e+08	675508	1	38	0.00491751	0.0116266	0	-0.111483	0.106894	0.113088	0.335837	2.70144e-06	3.52712e-06	5.69783e-07	2.05235e-06	1.15834e-06	8.53448e-07	0.145732	0.196822	0.514464	5.90077e-06	9.34679e-06	3.06808e-06	1.12027e-05	2.39989e-06	2.84068e-06	2.35678	0.188884	2.36433	4.58218	6.75508e+08	8.42858e+09	8.4556e+09	-85.4178	0.0000000E+000	0.0000000E+000	0.0000000E+000	85.4178	0.0000000E+000	0.0000000E+000	0.0000000E+000	-85.4178	0.0000000E+000	0.0000000E+000	0.0000000E+000	-4.58218	0.0000000E+000	0.0000000E+000	0.0000000E+000	4.58218	12.4774	85.4178	-0.0130905
0.0353467	0.426627	0.0312451	0.42777	-4.18872	1716.37	-0.000121047	-0.343845	1.44108e+08	768836	1	38	0.00491883	0.0114988	0	-0.158509	0.117623	0.0763463	0.319951	2.31002e-06	4.41818e-06	1.24454e-06	1.99838e-06	9.47979e-07	1.12286e-06	0.161436	0.0570657	0.511709	6.36192e-06	1.23876e-05	3.32556e-06	1.02109e-05	3.10926e-06	2.24821e-06	2.33146	0.170751	2.33771	4.18872	7.68836e+08	1.04978e+10	1.0526e+10	-85.8113	0.0000000E+000	0.0000000E+000	0.0000000E+000	85.8113	0.0000000E+000	0.0000000E+000	0.0000000E+000	-85.8113	0.0000000E+000	0.0000000E+000	0.0000000E+000	-4.18872	0.0000000E+000	0.0000000E+000	0.0000000E+000	4.18872	13.6542	85.8113	-0.026939
0.0280409	0.431694	0.0276279	0.432577	-3.66186	2128.55	-0.000114586	-0.332775	2.05438e+08	838010	1	38	0.00491996	0.0113736	0	-0.200046	0.103157	0.0765946	0.27739	2.77007e-06	3.14421e-06	9.50214e-07	1.9951e-06	1.01771e-06	6.99446e-07	0.135599	0.143334	0.517917	7.88362e-06	7.58774e-06	3.56837e-06	9.33149e-06	2.35167e-06	2.19315e-06	2.30701	0.147646	2.31173	3.66186	8.38011e+08	1.30942e+10	1.3121e+10	-86.3381	0.0000000E+000	0.0000000E+000	0.0000000E+000	86.3381	0.0000000E+000	0.0000000E+000	0.0000000E+000	-86.3381	0.0000000E+000	0.0000000E+000	0.0000000E+000	-3.66186	0.0000000E+000	0.0000000E+000	0.0000000E+000	3.66186	15.6253	86.3381	-0.01821
0.0250094	0.433134	0.0250115	0.433855	-3.3049	2373.01	-0.000106788	-0.318365	2.54435e+08	845602	1	38	0.00491711	0.0113335	0	-0.210839	0.0937468	0.0731711	0.28654	1.63344e-06	3.22399e-06	1.03531e-06	2.38331e-06	4.84415e-07	7.71263e-07	0.130747	0.137523	0.526277	2.74658e-06	8.92145e-06	3.34822e-06	1.00285e-05	2.18122e-06	1.41558e-06	2.30108	0.132877	2.30492	3.3049	8.45602e+08	1.46436e+10	1.4668e+10	-86.6951	0.0000000E+000	0.0000000E+000	0.0000000E+000	86.6951	0.0000000E+000	0.0000000E+000	0.0000000E+000	-86.6951	0.0000000E+000	0.0000000E+000	0.0000000E+000	-3.3049	0.0000000E+000	0.0000000E+000	0.0000000E+000	3.3049	17.3174	86.6951	-0.0107923