File: Python/Experiments/IRFB/FirstCell/Data/240405-EIS-50mM_FeCl2FeCl3-1M_HCl-30mLmin-LowFreq_Fast_C15.mpt
EC-Lab ASCII FILE
Nb header lines : 66

Potentio Electrochemical Impedance Spectroscopy

Run on channel : 15 (SN 19485)
User :
Electrode connection : standard
Potential control : Ewe
Ewe ctrl range : min = -1.00 V, max = 1.00 V
Ewe,I filtering : <None>
Safety Limits :
	Do not start on E overload
Channel : Floating
Acquisition started on : 04/05/2024 10:49:41.181
Loaded Setting File :  NONE
Saved on :
	File : 240405-EIS-50mM_FeCl2FeCl3-1M_HCl-30mLmin-LowFreq_Fast_C15.mpr
	Directory : C:\Data\mathias\IRFB\
	Host : 192.168.0.1
Device : VMP-300 (SN 0826)
Address : USB
EC-Lab for windows v11.52 (software)
Internet server v11.52 (firmware)
Command interpretor v11.52 (firmware)
Electrode material :
Initial state :
Electrolyte :
Comments :
Cable : special
Electrode surface area : 0.001 cm²
Characteristic mass : 0.001 g
Equivalent Weight : 0.000 g/eq.
Density : 0.000 g/cm3
Volume (V) : 0.001 cm³
Record EIS quality indicators
Cycle Definition : Charge/Discharge alternance
Mode                Single sine
E (V)               0.0000
vs.                 Eoc
tE (h:m:s)          0:00:0.0000
record              0
dI                  0.000
unit dI             mA
dt (s)              0.000
fi                  920.000
unit fi             kHz
ff                  10.000
unit ff             mHz
Nd                  5
Points              per decade
spacing             Logarithmic
Va (mV)             5.0
pw                  0.10
Na                  2
corr                0
E range min (V)     -1.000
E range max (V)     1.000
I Range             Auto
Bandwidth           8
nc cycles           0
goto Ns'            0
nr cycles           999
inc. cycle          1

freq/Hz	Re(Z)/Ohm	-Im(Z)/Ohm	|Z|/Ohm	Phase(Z)/deg	time/s	<Ewe>/V	<I>/mA	Cs/µF	Cp/µF	cycle number	I Range	|Ewe|/V	|I|/A	Ns	(Q-Qo)/mA.h	THD Ewe/%	NSD Ewe/%	NSR Ewe/%	|Ewe h2|/V	|Ewe h3|/V	|Ewe h4|/V	|Ewe h5|/V	|Ewe h6|/V	|Ewe h7|/V	THD I/%	NSD I/%	NSR I/%	|I h2|/A	|I h3|/A	|I h4|/A	|I h5|/A	|I h6|/A	|I h7|/A	Re(Y)/Ohm-1	Im(Y)/Ohm-1	|Y|/Ohm-1	Phase(Y)/deg	Re(C)/nF	Im(C)/nF	|C|/nF	Phase(C)/deg	Re(M)	Im(M)	|M|	Phase(M)/deg	Re(Permittivity)	Im(Permittivity)	|Permittivity|	Phase(Permittivity)/deg	Re(Resistivity)/Ohm.cm	Im(Resistivity)/Ohm.cm	|Resistivity|/Ohm.cm	Phase(Resistivity)/deg	Re(Conductivity)/mS/cm	Im(Conductivity)/mS/cm	|Conductivity|/mS/cm	Phase(Conductivity)/deg	Tan(Delta)	Loss Angle(Delta)/deg	dq/mA.h
920001	-0.122448	-0.285653	0.310791	113.203	1.6255	-9.17818e-05	-0.55689	-0.60561	-0.511604	1	37	0.000904529	0.00291041	0	-0.000224908	-1	-1	-1	0	0	0	0	0	0	-1	-1	-1	0	0	0	0	0	0	-1.26769	-2.95734	3.2176	-113.203	-511.604	-219.304	556.626	156.797	0.0000000E+000	0.0000000E+000	0.0000000E+000	-156.797	0.0000000E+000	0.0000000E+000	0.0000000E+000	156.797	0.0000000E+000	0.0000000E+000	0.0000000E+000	113.203	0.0000000E+000	0.0000000E+000	0.0000000E+000	-113.203	0.428659	23.2028	-0.000224908
581688	-0.00280656	-0.10851	0.108547	91.4816	2.4395	-8.80723e-05	-0.556685	-2.5215	-2.51982	1	37	0.000805187	0.00741789	0	-0.0003511	-1	-1	-1	0	0	0	0	0	0	-1	-1	-1	0	0	0	0	0	0	-0.2382	-9.20956	9.21264	-91.4816	-2519.82	-65.1738	2520.66	178.518	0.0000000E+000	0.0000000E+000	0.0000000E+000	-178.518	0.0000000E+000	0.0000000E+000	0.0000000E+000	178.518	0.0000000E+000	0.0000000E+000	0.0000000E+000	91.4816	0.0000000E+000	0.0000000E+000	0.0000000E+000	-91.4816	0.0258645	1.48159	-0.000126192
367791	0.0371953	-0.0599499	0.0705512	58.1829	3.2535	-0.000104905	-0.56612	-7.21824	-5.21193	1	37	0.00112485	0.0159438	0	-0.000448974	-1	-1	-1	0	0	0	0	0	0	-1	-1	-1	0	0	0	0	0	0	7.47271	-12.0442	14.1741	-58.1829	-5211.93	3233.69	6133.59	-148.183	0.0000000E+000	0.0000000E+000	0.0000000E+000	148.183	0.0000000E+000	0.0000000E+000	0.0000000E+000	-148.183	0.0000000E+000	0.0000000E+000	0.0000000E+000	58.1829	0.0000000E+000	0.0000000E+000	0.0000000E+000	-58.1829	0.620439	31.8171	-9.78741e-05
232547	0.0496299	-0.0366481	0.0616945	36.4432	4.0675	-0.000104569	-0.577156	-18.6749	-6.58973	1	37	0.00203486	0.0329829	0	-0.0005113	-1	-1	-1	0	0	0	0	0	0	-1	-1	-1	0	0	0	0	0	0	13.0392	-9.6285	16.2089	-36.4432	-6589.73	8924.01	11093.4	-126.443	0.0000000E+000	0.0000000E+000	0.0000000E+000	126.443	0.0000000E+000	0.0000000E+000	0.0000000E+000	-126.443	0.0000000E+000	0.0000000E+000	0.0000000E+000	36.4432	0.0000000E+000	0.0000000E+000	0.0000000E+000	-36.4432	1.35423	53.5568	-6.23257e-05
147027	0.054039	-0.0215586	0.0581807	21.7493	4.8825	-0.000110814	-0.585363	-50.2113	-6.89423	1	37	0.00376411	0.0646969	0	-0.000691044	-1	-1	-1	0	0	0	0	0	0	-1	-1	-1	0	0	0	0	0	0	15.9643	-6.36888	17.1878	-21.7493	-6894.23	17281.1	18605.6	-111.749	0.0000000E+000	0.0000000E+000	0.0000000E+000	111.749	0.0000000E+000	0.0000000E+000	0.0000000E+000	-111.749	0.0000000E+000	0.0000000E+000	0.0000000E+000	21.7493	0.0000000E+000	0.0000000E+000	0.0000000E+000	-21.7493	2.50661	68.2507	-0.000179745
92961.3	0.0559976	-0.0116593	0.0571985	11.7615	5.69848	-0.000107869	-0.574512	-146.841	-6.10127	1	37	0.00521282	0.0911356	0	-0.000840212	0.342019	0.120771	6.96157	2.21627e-06	1.17983e-05	4.68693e-06	6.8815e-06	5.83894e-06	6.31445e-06	0.139865	0.0151276	0.253343	1.76724e-05	0.000125716	4.17436e-06	5.31084e-06	4.73636e-06	1.09411e-06	17.1159	-3.56371	17.483	-11.7615	-6101.27	29303.4	29931.8	-101.762	0.0000000E+000	0.0000000E+000	0.0000000E+000	101.762	0.0000000E+000	0.0000000E+000	0.0000000E+000	-101.762	0.0000000E+000	0.0000000E+000	0.0000000E+000	11.7615	0.0000000E+000	0.0000000E+000	0.0000000E+000	-11.7615	4.80284	78.2385	-0.000149167
58779.3	0.0571432	-0.00480004	0.0573444	4.80159	6.51449	-0.000107514	-0.548251	-564.092	-3.95238	1	37	0.00546254	0.0952584	0	-0.00100174	0.365129	0.131579	6.77733	5.80849e-06	1.18463e-05	4.52842e-06	1.03099e-05	4.20994e-06	3.96578e-06	0.192562	0.0249199	0.243356	1.7281e-05	0.000181998	4.64117e-06	8.84862e-06	7.2057e-06	3.50865e-06	17.3773	-1.4597	17.4385	-4.80159	-3952.38	47051.9	47217.7	-94.8016	0.0000000E+000	0.0000000E+000	0.0000000E+000	94.8016	0.0000000E+000	0.0000000E+000	0.0000000E+000	-94.8016	0.0000000E+000	0.0000000E+000	0.0000000E+000	4.80159	0.0000000E+000	0.0000000E+000	0.0000000E+000	-4.80159	11.9047	85.1984	-0.000161532
37160.4	0.0586797	0.000679543	0.0586837	-0.663486	7.32948	-0.000102276	-0.570771	6302.65	0.845127	1	37	0.00548344	0.0934405	0	-0.00112916	0.35805	0.117371	6.59476	6.47343e-06	1.33092e-05	4.04208e-06	6.96895e-06	7.93492e-06	4.90541e-06	0.212391	0.0459876	0.246118	7.50434e-06	0.000197675	2.25257e-06	1.349e-05	6.20387e-06	5.78177e-06	17.0394	0.197325	17.0405	0.663486	845.122	72978.2	72983.1	-89.3365	0.0000000E+000	0.0000000E+000	0.0000000E+000	89.3365	0.0000000E+000	0.0000000E+000	0.0000000E+000	-89.3365	0.0000000E+000	0.0000000E+000	0.0000000E+000	-0.663486	0.0000000E+000	0.0000000E+000	0.0000000E+000	0.663486	86.3518	89.3365	-0.00012742
23502.4	0.0607163	0.00519951	0.0609385	-4.89465	8.14449	-0.000116369	-0.573693	1302.4	9.48168	1	37	0.00548034	0.0899322	0	-0.00124997	0.376942	0.16499	6.59972	1.079e-05	1.06796e-05	6.80594e-06	5.55755e-06	5.11283e-06	5.13983e-06	0.222761	0.0384745	0.261355	2.29567e-05	0.000198381	3.08562e-06	1.32849e-05	6.5404e-06	2.54123e-06	16.3501	1.40016	16.41	4.89465	9481.68	110721	111126	-85.1054	0.0000000E+000	0.0000000E+000	0.0000000E+000	85.1054	0.0000000E+000	0.0000000E+000	0.0000000E+000	-85.1054	0.0000000E+000	0.0000000E+000	0.0000000E+000	-4.89465	0.0000000E+000	0.0000000E+000	0.0000000E+000	4.89465	11.6773	85.1054	-0.000120802
14854.9	0.0635588	0.00898086	0.0641902	-8.04265	8.95948	-9.31238e-05	-0.573488	1192.98	23.3524	1	37	0.00546392	0.0851208	0	-0.00131459	0.348128	0.155402	6.71384	8.52786e-06	1.16577e-05	7.8917e-06	3.92704e-06	5.1861e-06	5.99692e-06	0.207616	0.0238676	0.272347	1.95055e-05	0.000175146	4.73729e-06	1.00433e-05	3.30518e-06	4.94549e-06	15.4255	2.17962	15.5787	8.04265	23352.4	165268	166910	-81.9574	0.0000000E+000	0.0000000E+000	0.0000000E+000	81.9574	0.0000000E+000	0.0000000E+000	0.0000000E+000	-81.9574	0.0000000E+000	0.0000000E+000	0.0000000E+000	-8.04265	0.0000000E+000	0.0000000E+000	0.0000000E+000	8.04265	7.07714	81.9574	-6.46262e-05
9395.12	0.0668842	0.012513	0.0680446	-10.5966	9.91203	-0.000204949	-1.00581	1353.81	45.7816	1	37	0.00506706	0.0744667	0	-0.00169136	0.419749	0.1957	7.1077	9.14684e-06	7.36734e-06	6.63694e-06	6.36133e-06	1.38426e-05	4.97439e-06	0.197441	0.04866	0.317835	2.07362e-05	0.000143867	1.21072e-05	1.68635e-05	5.03009e-06	4.43305e-06	14.4456	2.70255	14.6962	10.5966	45781.6	244711	248957	-79.4034	0.0000000E+000	0.0000000E+000	0.0000000E+000	79.4034	0.0000000E+000	0.0000000E+000	0.0000000E+000	-79.4034	0.0000000E+000	0.0000000E+000	0.0000000E+000	-10.5966	0.0000000E+000	0.0000000E+000	0.0000000E+000	10.5966	5.34519	79.4034	-0.00037677
5938.89	0.0710479	0.0161609	0.0728628	-12.8147	10.8627	-0.000197363	-0.998775	1658.25	81.577	1	37	0.00541369	0.0742998	0	-0.00198293	0.394392	0.129903	6.7661	5.06085e-06	1.20424e-05	6.85955e-06	6.72827e-06	7.29888e-06	8.59432e-06	0.190847	0.00874359	0.313034	1.71352e-05	0.000139628	3.09324e-06	1.43533e-05	6.29834e-06	7.17628e-06	13.3826	3.04406	13.7244	12.8147	81577	358637	367798	-77.1853	0.0000000E+000	0.0000000E+000	0.0000000E+000	77.1853	0.0000000E+000	0.0000000E+000	0.0000000E+000	-77.1853	0.0000000E+000	0.0000000E+000	0.0000000E+000	-12.8147	0.0000000E+000	0.0000000E+000	0.0000000E+000	12.8147	4.3963	77.1853	-0.000291566
3756.2	0.076096	0.0198507	0.0786426	-14.6205	11.8377	-0.000218222	-1.05403	2134.5	135.997	1	37	0.00547342	0.0695987	0	-0.00231973	0.344222	0.256581	6.68747	1.02374e-05	8.88291e-06	6.64499e-06	7.39962e-06	4.39192e-06	4.33954e-06	0.158878	0.0220861	0.336309	2.16947e-05	0.000107767	6.72704e-06	8.58063e-06	2.96684e-06	1.9562e-06	12.304	3.20967	12.7158	14.6205	135997	521336	538782	-75.3795	0.0000000E+000	0.0000000E+000	0.0000000E+000	75.3795	0.0000000E+000	0.0000000E+000	0.0000000E+000	-75.3795	0.0000000E+000	0.0000000E+000	0.0000000E+000	-14.6205	0.0000000E+000	0.0000000E+000	0.0000000E+000	14.6205	3.83342	75.3795	-0.000336798
2374.24	0.0823386	0.0236872	0.0856781	-16.0495	12.8028	-0.00022318	-1.05982	2829.98	216.306	1	37	0.00549499	0.0641353	0	-0.00239385	0.371887	0.146128	6.72968	9.87622e-06	9.44103e-06	6.49605e-06	4.57457e-06	1.13863e-05	2.75404e-06	0.11831	0.0252269	0.360567	2.13359e-05	7.24821e-05	3.27774e-06	1.86516e-06	1.90067e-06	4.8136e-06	11.2167	3.22681	11.6716	16.0495	216306	751900	782395	-73.9505	0.0000000E+000	0.0000000E+000	0.0000000E+000	73.9505	0.0000000E+000	0.0000000E+000	0.0000000E+000	-73.9505	0.0000000E+000	0.0000000E+000	0.0000000E+000	-16.0495	0.0000000E+000	0.0000000E+000	0.0000000E+000	16.0495	3.47609	73.9505	-7.4126e-05
1501.44	0.089624	0.0279121	0.0938698	-17.2984	13.7686	-0.000222416	-1.04778	3797.69	335.778	1	37	0.00547575	0.0583334	0	-0.0026415	0.384463	0.0955939	6.90084	1.10883e-05	4.23826e-06	9.94365e-06	9.40203e-06	9.63149e-06	3.89946e-06	0.0738357	0.0189704	0.40955	1.92364e-05	3.70363e-05	1.05828e-06	7.4812e-06	3.49687e-06	4.464e-06	10.1712	3.16767	10.6531	17.2984	335778	1.07816e+06	1.12924e+06	-72.7016	0.0000000E+000	0.0000000E+000	0.0000000E+000	72.7016	0.0000000E+000	0.0000000E+000	0.0000000E+000	-72.7016	0.0000000E+000	0.0000000E+000	0.0000000E+000	-17.2984	0.0000000E+000	0.0000000E+000	0.0000000E+000	17.2984	3.21094	72.7016	-0.000247649
949.092	0.0984084	0.0323637	0.103594	-18.2045	14.7329	-0.000214363	-1.05454	5181.48	505.713	1	37	0.00539157	0.0520455	0	-0.00276636	0.369015	0.297463	6.67273	1.06356e-05	3.94608e-06	5.37194e-06	1.07635e-05	7.91633e-06	7.11069e-06	0.0542982	0.104038	0.449591	1.72865e-05	1.6664e-05	1.13775e-06	1.30257e-05	5.20766e-06	4.44145e-06	9.16995	3.01573	9.65311	18.2045	505713	1.53772e+06	1.61875e+06	-71.7955	0.0000000E+000	0.0000000E+000	0.0000000E+000	71.7955	0.0000000E+000	0.0000000E+000	0.0000000E+000	-71.7955	0.0000000E+000	0.0000000E+000	0.0000000E+000	-18.2045	0.0000000E+000	0.0000000E+000	0.0000000E+000	18.2045	3.04071	71.7955	-0.000124859
600.192	0.108766	0.0366725	0.114782	-18.6325	15.6987	-0.0001804	-1.0102	7230.85	738.114	1	37	0.00529169	0.0461021	0	-0.0030931	1.26176	0.132388	6.92301	5.62136e-06	6.76935e-06	8.44342e-06	3.43154e-06	7.09685e-06	6.46985e-05	0.0545648	0.0187476	0.514674	1.05209e-05	1.85267e-05	2.90275e-06	6.56507e-06	2.40363e-06	1.05175e-05	8.25554	2.78351	8.71217	18.6325	738113	2.18915e+06	2.31024e+06	-71.3675	0.0000000E+000	0.0000000E+000	0.0000000E+000	71.3675	0.0000000E+000	0.0000000E+000	0.0000000E+000	-71.3675	0.0000000E+000	0.0000000E+000	0.0000000E+000	-18.6325	0.0000000E+000	0.0000000E+000	0.0000000E+000	18.6325	2.96587	71.3675	-0.000326738
379.393	0.120384	0.0409622	0.127162	-18.7915	16.6651	-0.000178685	-0.99684	10241.1	1062.66	1	37	0.00511536	0.040227	0	-0.00336898	0.319432	0.131532	7.22187	6.49845e-06	6.27942e-06	2.70971e-06	7.31647e-06	8.48762e-06	4.25012e-06	0.0725049	0.0235515	0.574793	3.75884e-06	2.41982e-05	3.1382e-06	1.00175e-05	4.27031e-06	1.0137e-05	7.44479	2.53318	7.86396	18.7915	1.06267e+06	3.12308e+06	3.29892e+06	-71.2085	0.0000000E+000	0.0000000E+000	0.0000000E+000	71.2085	0.0000000E+000	0.0000000E+000	0.0000000E+000	-71.2085	0.0000000E+000	0.0000000E+000	0.0000000E+000	-18.7915	0.0000000E+000	0.0000000E+000	0.0000000E+000	18.7915	2.93891	71.2085	-0.00027588
239.924	0.134	0.0447727	0.141282	-18.4757	17.4098	-0.000181854	-0.977503	14816.1	1487.94	1	37	0.00520782	0.0368612	0	-0.00360277	0.259174	0.171548	7.23024	6.94052e-06	4.86536e-06	5.55658e-06	4.12433e-06	5.05101e-06	4.45171e-06	0.101752	0.0277621	0.636563	7.62815e-06	2.93091e-05	6.33349e-06	1.9297e-05	7.09956e-06	3.76453e-06	6.71323	2.24305	7.07804	18.4757	1.48794e+06	4.45326e+06	4.69527e+06	-71.5243	0.0000000E+000	0.0000000E+000	0.0000000E+000	71.5243	0.0000000E+000	0.0000000E+000	0.0000000E+000	-71.5243	0.0000000E+000	0.0000000E+000	0.0000000E+000	-18.4757	0.0000000E+000	0.0000000E+000	0.0000000E+000	18.4757	2.9929	71.5243	-0.000233797
151.699	0.149726	0.0473462	0.157033	-17.548	18.1505	-0.000191472	-1.00911	22159.1	2014.37	1	37	0.00512187	0.0326165	0	-0.00376768	0.373492	0.171092	7.28517	3.88773e-06	1.19545e-05	6.879e-06	6.43832e-06	8.6707e-06	3.77062e-06	0.148125	0.150542	0.658983	4.9623e-06	3.71151e-05	5.97943e-06	2.90409e-05	4.25098e-06	3.26482e-06	6.07174	1.92001	6.36808	17.548	2.01437e+06	6.37016e+06	6.68107e+06	-72.452	0.0000000E+000	0.0000000E+000	0.0000000E+000	72.452	0.0000000E+000	0.0000000E+000	0.0000000E+000	-72.452	0.0000000E+000	0.0000000E+000	0.0000000E+000	-17.548	0.0000000E+000	0.0000000E+000	0.0000000E+000	17.548	3.16235	72.452	-0.000164906
95.8897	0.167852	0.046602	0.174201	-15.5167	18.8919	-0.000184911	-1.00222	35615.8	2548.9	1	37	0.0050489	0.0289832	0	-0.00398483	0.353208	0.206777	7.2623	7.03686e-06	9.41965e-06	5.37419e-06	7.38836e-06	6.47968e-06	6.18829e-06	0.160501	0.0424445	0.820673	1.25477e-05	3.49737e-05	7.42493e-06	2.60508e-05	3.3212e-06	4.99327e-06	5.53128	1.53569	5.7405	15.5167	2.5489e+06	9.18065e+06	9.52792e+06	-74.4833	0.0000000E+000	0.0000000E+000	0.0000000E+000	74.4833	0.0000000E+000	0.0000000E+000	0.0000000E+000	-74.4833	0.0000000E+000	0.0000000E+000	0.0000000E+000	-15.5167	0.0000000E+000	0.0000000E+000	0.0000000E+000	15.5167	3.60181	74.4833	-0.000217147
60.6403	0.18411	0.0414714	0.188723	-12.6942	19.6326	-0.000185116	-1.01553	63286.2	3056.04	1	37	0.00499367	0.0264604	0	-0.00415686	0.350458	0.2424	7.50257	4.34385e-06	1.17512e-05	4.35122e-06	9.43788e-06	3.3956e-06	2.34073e-06	0.164462	0.0516718	0.88051	8.00315e-06	2.72428e-05	6.45139e-06	3.16457e-05	3.91145e-06	2.95226e-06	5.16926	1.1644	5.29878	12.6942	3.05604e+06	1.35671e+07	1.3907e+07	-77.3058	0.0000000E+000	0.0000000E+000	0.0000000E+000	77.3058	0.0000000E+000	0.0000000E+000	0.0000000E+000	-77.3058	0.0000000E+000	0.0000000E+000	0.0000000E+000	-12.6942	0.0000000E+000	0.0000000E+000	0.0000000E+000	12.6942	4.43943	77.3058	-0.000172032
38.3436	0.196559	0.0331779	0.199339	-9.58087	20.3934	-0.000186215	-0.988931	125106	3465.7	1	37	0.00496461	0.0249054	0	-0.00433969	0.404827	0.147835	7.33245	1.07101e-05	9.4162e-06	3.6986e-06	6.06243e-06	5.06461e-06	8.58921e-06	0.209006	0.0641007	0.943338	4.72406e-06	3.19777e-05	3.06178e-05	2.50564e-05	6.43257e-06	5.53282e-06	4.94661	0.834957	5.01658	9.58087	3.4657e+06	2.05322e+07	2.08226e+07	-80.4191	0.0000000E+000	0.0000000E+000	0.0000000E+000	80.4191	0.0000000E+000	0.0000000E+000	0.0000000E+000	-80.4191	0.0000000E+000	0.0000000E+000	0.0000000E+000	-9.58087	0.0000000E+000	0.0000000E+000	0.0000000E+000	9.58087	5.92439	80.4191	-0.000182831
24.2474	0.204592	0.0250975	0.206125	-6.99361	21.147	-0.000177864	-0.984632	261531	3877.25	1	37	0.00494839	0.0240067	0	-0.0045352	0.256938	0.266351	7.48826	5.8359e-06	5.56224e-06	2.77283e-06	3.92189e-06	3.12627e-06	6.93435e-06	0.295686	0.0439205	0.936497	6.20453e-05	2.80442e-05	8.44675e-06	1.37802e-05	9.19936e-06	2.89198e-06	4.81532	0.590703	4.85142	6.99361	3.87725e+06	3.16068e+07	3.18437e+07	-83.0064	0.0000000E+000	0.0000000E+000	0.0000000E+000	83.0064	0.0000000E+000	0.0000000E+000	0.0000000E+000	-83.0064	0.0000000E+000	0.0000000E+000	0.0000000E+000	-6.99361	0.0000000E+000	0.0000000E+000	0.0000000E+000	6.99361	8.15186	83.0064	-0.000195507
15.3287	0.209515	0.0185444	0.210334	-5.05813	21.8815	-0.000178573	-0.974861	559889	4352.2	1	37	0.00494238	0.0234977	0	-0.00471706	0.36685	0.147133	7.2989	1.17835e-05	4.42191e-06	5.24674e-06	2.78127e-06	6.62649e-06	8.46169e-06	0.173403	0.0462462	0.998029	8.78445e-06	2.8681e-05	1.23223e-05	1.46858e-05	6.45524e-06	8.95802e-06	4.73582	0.419173	4.75433	5.05813	4.3522e+06	4.91712e+07	4.93634e+07	-84.9419	0.0000000E+000	0.0000000E+000	0.0000000E+000	84.9419	0.0000000E+000	0.0000000E+000	0.0000000E+000	-84.9419	0.0000000E+000	0.0000000E+000	0.0000000E+000	-5.05813	0.0000000E+000	0.0000000E+000	0.0000000E+000	5.05813	11.298	84.9419	-0.000181867
9.69291	0.212414	0.0133627	0.212834	-3.59966	22.6241	-0.000183643	-0.983069	1.22877e+06	4843.71	1	37	0.00493661	0.0231946	0	-0.00491681	0.410893	0.21296	7.46739	8.48486e-06	5.74103e-06	8.31979e-06	6.99304e-06	9.97622e-06	8.18318e-06	0.305943	0.0987682	0.968887	1.08013e-05	1.73689e-05	6.44824e-06	6.36357e-05	1.4421e-05	1.27063e-05	4.68923	0.294993	4.6985	3.59966	4.84372e+06	7.69959e+07	7.71481e+07	-86.4003	0.0000000E+000	0.0000000E+000	0.0000000E+000	86.4003	0.0000000E+000	0.0000000E+000	0.0000000E+000	-86.4003	0.0000000E+000	0.0000000E+000	0.0000000E+000	-3.59966	0.0000000E+000	0.0000000E+000	0.0000000E+000	3.59966	15.8961	86.4003	-0.000199743
6.12745	0.214205	0.0098489	0.214431	-2.63254	23.5842	-0.000188322	-0.994774	2.63726e+06	5563.56	1	37	0.00493765	0.0230268	0	-0.0049999	0.184518	0.0921388	4.03298	4.19909e-06	4.31675e-06	3.10939e-06	3.52521e-06	2.97982e-06	2.44443e-06	0.142388	0.0353989	0.762235	9.99297e-06	2.23846e-05	2.98583e-06	1.82947e-05	7.50179e-06	8.21752e-06	4.65858	0.214197	4.6635	2.63254	5.56356e+06	1.21002e+08	1.2113e+08	-87.3675	0.0000000E+000	0.0000000E+000	0.0000000E+000	87.3675	0.0000000E+000	0.0000000E+000	0.0000000E+000	-87.3675	0.0000000E+000	0.0000000E+000	0.0000000E+000	-2.63254	0.0000000E+000	0.0000000E+000	0.0000000E+000	2.63254	21.7491	87.3675	-8.30894e-05
3.87525	0.215337	0.00762861	0.215472	-2.02893	24.9101	-0.000184086	-0.975875	5.38363e+06	6748.14	1	37	0.00493373	0.0228973	0	-0.00543259	0.175484	0.159653	3.84753	3.18909e-06	6.43703e-06	7.19626e-07	2.37804e-06	2.09269e-06	2.82717e-06	0.149019	0.0796624	0.742648	1.23516e-05	2.40151e-05	3.33303e-06	1.70406e-05	3.09884e-06	4.64283e-06	4.63806	0.16431	4.64097	2.02893	6.74813e+06	1.90483e+08	1.90603e+08	-87.9711	0.0000000E+000	0.0000000E+000	0.0000000E+000	87.9711	0.0000000E+000	0.0000000E+000	0.0000000E+000	-87.9711	0.0000000E+000	0.0000000E+000	0.0000000E+000	-2.02893	0.0000000E+000	0.0000000E+000	0.0000000E+000	2.02893	28.2275	87.9711	-0.00043269
2.45021	0.216136	0.00673915	0.216241	-1.78591	26.8384	-0.000184716	-0.988638	9.63854e+06	9361.49	1	37	0.00493417	0.0228179	0	-0.00588845	0.129026	0.0747293	2.56968	2.48189e-06	2.68064e-06	1.69734e-06	2.0701e-06	1.7795e-06	3.39056e-06	0.116233	0.058352	0.679889	7.80911e-06	2.06752e-05	3.25691e-06	1.25019e-05	2.83392e-06	1.32793e-06	4.62222	0.144121	4.62447	1.78591	9.36149e+06	3.00239e+08	3.00385e+08	-88.2141	0.0000000E+000	0.0000000E+000	0.0000000E+000	88.2141	0.0000000E+000	0.0000000E+000	0.0000000E+000	-88.2141	0.0000000E+000	0.0000000E+000	0.0000000E+000	-1.78591	0.0000000E+000	0.0000000E+000	0.0000000E+000	1.78591	32.0717	88.2141	-0.00045586
1.54902	0.217004	0.00660947	0.217104	-1.74457	29.7326	-0.000189354	-0.995032	1.55452e+07	14407.6	1	37	0.00493556	0.0227336	0	-0.00754566	0.172897	0.101839	1.941	1.64245e-06	5.44164e-06	3.175e-06	4.64166e-06	2.22695e-06	1.11199e-06	0.136244	0.140368	0.656409	9.37316e-06	2.43662e-05	4.48428e-06	1.54925e-05	2.48248e-06	1.36236e-06	4.60395	0.140227	4.60608	1.74457	1.44076e+07	4.73035e+08	4.73254e+08	-88.2554	0.0000000E+000	0.0000000E+000	0.0000000E+000	88.2554	0.0000000E+000	0.0000000E+000	0.0000000E+000	-88.2554	0.0000000E+000	0.0000000E+000	0.0000000E+000	-1.74457	0.0000000E+000	0.0000000E+000	0.0000000E+000	1.74457	32.8322	88.2554	-0.00165721
0.979744	0.217845	0.00763476	0.217978	-2.00721	36.2432	-0.000190376	-0.91432	2.12771e+07	26102.2	1	38	0.00493384	0.0226346	0	-0.00869846	0.113899	0.0717037	1.56013	2.33913e-06	2.55136e-06	2.00253e-06	3.11391e-06	1.84629e-06	1.30473e-06	0.105354	0.0625986	0.579949	2.19939e-06	1.748e-05	3.46638e-06	1.5291e-05	1.94487e-06	2.72153e-06	4.5848	0.160683	4.58761	2.00721	2.61022e+07	7.4478e+08	7.45237e+08	-87.9928	0.0000000E+000	0.0000000E+000	0.0000000E+000	87.9928	0.0000000E+000	0.0000000E+000	0.0000000E+000	-87.9928	0.0000000E+000	0.0000000E+000	0.0000000E+000	-2.00721	0.0000000E+000	0.0000000E+000	0.0000000E+000	2.00721	28.5333	87.9928	-0.0011528
0.619303	0.218998	0.0108563	0.219267	-2.83798	43.0846	-0.000187581	-0.945907	2.3672e+07	58030	1	38	0.00493238	0.0224949	0	-0.00883183	0.108543	0.0892407	1.26256	2.2754e-06	3.99946e-06	1.17561e-06	1.52556e-06	1.01707e-06	1.34e-06	0.115223	0.2159	0.581115	9.2464e-06	8.53523e-06	4.52774e-06	1.95984e-05	5.39099e-06	2.76411e-06	4.55506	0.225806	4.56065	2.83798	5.803e+07	1.17061e+09	1.17204e+09	-87.162	0.0000000E+000	0.0000000E+000	0.0000000E+000	87.162	0.0000000E+000	0.0000000E+000	0.0000000E+000	-87.162	0.0000000E+000	0.0000000E+000	0.0000000E+000	-2.83798	0.0000000E+000	0.0000000E+000	0.0000000E+000	2.83798	20.1724	87.162	-0.000133364
0.391574	0.224717	0.0148629	0.225208	-3.78407	53.778	-0.000194462	-0.975558	2.73465e+07	119109	1	38	0.00493395	0.0219085	0	-0.0129954	0.113127	0.0795292	0.963685	1.04608e-06	4.03607e-06	4.91227e-07	3.03308e-06	1.60988e-06	7.7992e-07	0.142766	0.0736254	0.585145	4.65253e-06	2.04412e-05	4.32996e-06	1.89151e-05	5.32786e-06	5.33999e-06	4.43066	0.293047	4.44034	3.78407	1.19109e+08	1.80084e+09	1.80477e+09	-86.2159	0.0000000E+000	0.0000000E+000	0.0000000E+000	86.2159	0.0000000E+000	0.0000000E+000	0.0000000E+000	-86.2159	0.0000000E+000	0.0000000E+000	0.0000000E+000	-3.78407	0.0000000E+000	0.0000000E+000	0.0000000E+000	3.78407	15.1193	86.2159	-0.00416361
0.247537	0.231867	0.0144752	0.232319	-3.57227	70.567	-0.000188032	-0.943445	4.44177e+07	172440	1	38	0.00493161	0.0212277	0	-0.0209836	0.110034	0.0904678	0.810198	2.89431e-06	3.53088e-06	1.74845e-06	1.05206e-06	7.3052e-07	1.53292e-06	0.173199	0.134602	0.585793	1.32487e-05	2.43417e-05	1.20295e-05	1.70843e-05	5.01433e-06	5.64114e-06	4.29607	0.268198	4.30443	3.57227	1.7244e+08	2.76218e+09	2.76756e+09	-86.4277	0.0000000E+000	0.0000000E+000	0.0000000E+000	86.4277	0.0000000E+000	0.0000000E+000	0.0000000E+000	-86.4277	0.0000000E+000	0.0000000E+000	0.0000000E+000	-3.57227	0.0000000E+000	0.0000000E+000	0.0000000E+000	3.57227	16.0182	86.4277	-0.0079882
0.15652	0.236825	0.0116365	0.237111	-2.81299	96.9945	-0.000194785	-0.988978	8.73835e+07	210461	1	38	0.00493179	0.0207995	0	-0.0308136	0.0750406	0.0544937	0.623175	1.34963e-06	2.36629e-06	7.68056e-07	1.68634e-06	7.8815e-07	1.29587e-06	0.109222	0.102088	0.517488	5.13494e-06	1.19851e-05	4.82684e-06	1.72419e-05	1.20801e-06	3.22185e-06	4.21236	0.206976	4.21744	2.81299	2.10461e+08	4.28329e+09	4.28845e+09	-87.187	0.0000000E+000	0.0000000E+000	0.0000000E+000	87.187	0.0000000E+000	0.0000000E+000	0.0000000E+000	-87.187	0.0000000E+000	0.0000000E+000	0.0000000E+000	-2.81299	0.0000000E+000	0.0000000E+000	0.0000000E+000	2.81299	20.3519	87.187	-0.00982998
0.0990003	0.240681	0.00839045	0.240827	-1.99659	138.655	-0.000189386	-1.02591	1.91601e+08	232572	1	38	0.00492993	0.0204708	0	-0.0408087	0.0894044	0.0569423	0.487606	1.28241e-06	3.64348e-06	8.00915e-07	1.62126e-06	3.81705e-07	8.30359e-07	0.147354	0.182961	0.414307	1.59449e-05	1.67086e-05	4.79125e-06	1.75897e-05	2.79803e-06	3.86448e-06	4.14983	0.144668	4.15235	1.99659	2.32572e+08	6.67135e+09	6.6754e+09	-88.0034	0.0000000E+000	0.0000000E+000	0.0000000E+000	88.0034	0.0000000E+000	0.0000000E+000	0.0000000E+000	-88.0034	0.0000000E+000	0.0000000E+000	0.0000000E+000	-1.99659	0.0000000E+000	0.0000000E+000	0.0000000E+000	1.99659	28.6851	88.0034	-0.00999507
0.062544	0.240387	0.0073938	0.240501	-1.76174	204.476	-0.000190598	-0.980921	3.44165e+08	325288	1	38	0.00493326	0.0205124	0	-0.050392	0.132821	0.121518	0.404612	2.49717e-06	5.6602e-06	3.87247e-07	1.52795e-06	7.08468e-07	8.08347e-07	0.206711	0.25934	0.373506	2.9692e-05	1.76356e-05	8.06564e-06	1.92821e-05	4.08743e-06	4.89224e-06	4.15602	0.12783	4.15799	1.76174	3.25288e+08	1.05758e+10	1.05808e+10	-88.2383	0.0000000E+000	0.0000000E+000	0.0000000E+000	88.2383	0.0000000E+000	0.0000000E+000	0.0000000E+000	-88.2383	0.0000000E+000	0.0000000E+000	0.0000000E+000	-1.76174	0.0000000E+000	0.0000000E+000	0.0000000E+000	1.76174	32.512	88.2383	-0.00958334
0.0395577	0.244884	0.0064109	0.244968	-1.49962	308.422	-0.000189314	-0.973092	6.27581e+08	429824	1	38	0.00493531	0.0201468	0	-0.0636097	0.104831	0.165984	0.344093	6.86065e-07	4.16217e-06	1.68325e-06	1.78379e-06	1.15798e-06	5.15025e-07	0.206596	0.161242	0.31451	2.82387e-05	1.5906e-05	5.96066e-06	1.77994e-05	2.87017e-06	5.37229e-06	4.08077	0.106832	4.08217	1.49962	4.29824e+08	1.64184e+10	1.6424e+10	-88.5004	0.0000000E+000	0.0000000E+000	0.0000000E+000	88.5004	0.0000000E+000	0.0000000E+000	0.0000000E+000	-88.5004	0.0000000E+000	0.0000000E+000	0.0000000E+000	-1.49962	0.0000000E+000	0.0000000E+000	0.0000000E+000	1.49962	38.198	88.5004	-0.0132177
0.0250135	0.246351	0.00171496	0.246357	-0.398855	472.687	-0.000168911	-0.908384	3.71016e+09	179792	1	38	0.00493213	0.0200203	0	-0.0921578	0.0896613	0.0749252	0.278453	2.42559e-06	2.43369e-06	1.28424e-06	1.95035e-06	6.02255e-07	1.21646e-06	0.218934	0.245264	0.26776	2.64321e-05	2.05245e-05	2.02159e-05	1.31632e-05	5.32044e-06	9.76259e-06	4.05905	0.0282569	4.05915	0.398855	1.79793e+08	2.58268e+10	2.58274e+10	-89.6011	0.0000000E+000	0.0000000E+000	0.0000000E+000	89.6011	0.0000000E+000	0.0000000E+000	0.0000000E+000	-89.6011	0.0000000E+000	0.0000000E+000	0.0000000E+000	-0.398855	0.0000000E+000	0.0000000E+000	0.0000000E+000	0.398855	143.648	89.6011	-0.0285481
0.0158201	0.244169	-0.00113426	0.244171	0.26616	732.285	-0.000165917	-0.90757	-8.86946e+09	-191397	1	38	0.00492871	0.0201854	0	-0.159273	0.104273	0.131985	0.249823	2.06957e-06	4.12253e-06	3.41834e-07	1.59984e-06	7.4835e-07	9.60582e-07	0.174986	0.103659	0.299859	1.70478e-05	1.62828e-05	1.26624e-05	1.20933e-05	1.20072e-05	1.02295e-05	4.09544	-0.019025	4.09548	-0.26616	-1.91396e+08	4.12013e+10	4.12018e+10	-90.2662	0.0000000E+000	0.0000000E+000	0.0000000E+000	90.2662	0.0000000E+000	0.0000000E+000	0.0000000E+000	-90.2662	0.0000000E+000	0.0000000E+000	0.0000000E+000	0.26616	0.0000000E+000	0.0000000E+000	0.0000000E+000	-0.26616	215.267	89.7338	-0.067115
0.0100037	0.242395	-0.00158866	0.2424	0.375512	1142.7	-0.000187975	-0.966905	-1.00144e+10	-430152	1	38	0.00492948	0.0203361	0	-0.304267	0.108825	0.109028	0.231674	3.79536e-06	3.01146e-06	5.33624e-07	1.59994e-06	1.00107e-06	9.68964e-07	0.212281	0.189988	0.303647	2.95476e-05	1.38339e-05	1.27605e-05	1.60859e-05	1.44426e-05	9.7316e-06	4.12532	-0.0270374	4.12541	-0.375512	-4.30152e+08	6.5632e+10	6.56334e+10	-90.3755	0.0000000E+000	0.0000000E+000	0.0000000E+000	90.3755	0.0000000E+000	0.0000000E+000	0.0000000E+000	-90.3755	0.0000000E+000	0.0000000E+000	0.0000000E+000	0.375512	0.0000000E+000	0.0000000E+000	0.0000000E+000	-0.375512	152.578	89.6245	-0.144994
920001	-0.120261	-0.284314	0.308703	112.928	1144.06	-9.50066e-05	-0.308355	-0.608461	-0.516119	2	37	0.000900306	0.00291642	0	7.17492e-05	-1	-1	-1	0	0	0	0	0	0	-1	-1	-1	0	0	0	0	0	0	-1.26195	-2.98344	3.23936	-112.928	-516.119	-218.311	560.391	157.072	0.0000000E+000	0.0000000E+000	0.0000000E+000	-157.072	0.0000000E+000	0.0000000E+000	0.0000000E+000	157.072	0.0000000E+000	0.0000000E+000	0.0000000E+000	112.928	0.0000000E+000	0.0000000E+000	0.0000000E+000	-112.928	0.422985	22.9276	0.304338
581688	-0.00323987	-0.110025	0.110073	91.6867	1144.87	-9.85483e-05	-0.451996	-2.48678	-2.48462	2	37	0.000815939	0.00741269	0	-3.04155e-05	-1	-1	-1	0	0	0	0	0	0	-1	-1	-1	0	0	0	0	0	0	-0.267402	-9.08093	9.08487	-91.6867	-2484.62	-73.1636	2485.7	178.313	0.0000000E+000	0.0000000E+000	0.0000000E+000	-178.313	0.0000000E+000	0.0000000E+000	0.0000000E+000	178.313	0.0000000E+000	0.0000000E+000	0.0000000E+000	91.6867	0.0000000E+000	0.0000000E+000	0.0000000E+000	-91.6867	0.0294466	1.68668	-0.000102165
367791	0.0370688	-0.0602788	0.0707646	58.4103	1145.68	-9.29561e-05	-0.497724	-7.17885	-5.20897	2	37	0.00112794	0.0159393	0	-0.000134649	-1	-1	-1	0	0	0	0	0	0	-1	-1	-1	0	0	0	0	0	0	7.40247	-12.0374	14.1314	-58.4103	-5208.97	3203.29	6115.1	-148.41	0.0000000E+000	0.0000000E+000	0.0000000E+000	148.41	0.0000000E+000	0.0000000E+000	0.0000000E+000	-148.41	0.0000000E+000	0.0000000E+000	0.0000000E+000	58.4103	0.0000000E+000	0.0000000E+000	0.0000000E+000	-58.4103	0.614956	31.5897	-0.000104233
232547	0.0496115	-0.0366272	0.0616673	36.4378	1146.5	-9.7579e-05	-0.525063	-18.6855	-6.59179	2	37	0.00203245	0.0329583	0	-0.000282884	-1	-1	-1	0	0	0	0	0	0	-1	-1	-1	0	0	0	0	0	0	13.0459	-9.63151	16.2161	-36.4378	-6591.79	8928.57	11098.2	-126.438	0.0000000E+000	0.0000000E+000	0.0000000E+000	126.438	0.0000000E+000	0.0000000E+000	0.0000000E+000	-126.438	0.0000000E+000	0.0000000E+000	0.0000000E+000	36.4378	0.0000000E+000	0.0000000E+000	0.0000000E+000	-36.4378	1.3545	53.5622	-0.000148235
147027	0.0537952	-0.0216468	0.0579871	21.9195	1147.31	-9.56403e-05	-0.557018	-50.0067	-6.96873	2	37	0.00374862	0.0646458	0	-0.000523189	-1	-1	-1	0	0	0	0	0	0	-1	-1	-1	0	0	0	0	0	0	15.9985	-6.43771	17.2452	-21.9195	-6968.73	17318.2	18667.7	-111.92	0.0000000E+000	0.0000000E+000	0.0000000E+000	111.92	0.0000000E+000	0.0000000E+000	0.0000000E+000	-111.92	0.0000000E+000	0.0000000E+000	0.0000000E+000	21.9195	0.0000000E+000	0.0000000E+000	0.0000000E+000	-21.9195	2.48513	68.0805	-0.000240305
92961.3	0.0557875	-0.0118729	0.057037	12.0147	1148.13	-0.000105893	-0.612628	-144.198	-6.24831	2	37	0.00520797	0.0913087	0	-0.000704814	0.312456	0.183234	7.29036	4.07174e-06	8.35785e-06	5.64403e-06	8.29511e-06	4.2908e-06	6.01846e-06	0.135913	0.0161014	0.251242	2.40943e-05	0.000121299	5.32211e-06	2.93721e-06	6.97119e-06	3.08432e-06	17.1484	-3.6496	17.5325	-12.0147	-6248.31	29359.1	30016.6	-102.015	0.0000000E+000	0.0000000E+000	0.0000000E+000	102.015	0.0000000E+000	0.0000000E+000	0.0000000E+000	-102.015	0.0000000E+000	0.0000000E+000	0.0000000E+000	12.0147	0.0000000E+000	0.0000000E+000	0.0000000E+000	-12.0147	4.69872	77.9853	-0.000181624
58779.3	0.0570239	-0.0048334	0.0572283	4.84487	1148.94	-9.97412e-05	-0.639986	-560.199	-3.99601	2	37	0.00547234	0.0956228	0	-0.000817433	0.460377	0.236056	6.76902	7.12362e-06	1.44841e-05	1.11429e-05	3.19703e-06	1.005e-05	1.09043e-05	0.195795	0.0244283	0.242552	1.47937e-05	0.000185797	6.28518e-06	1.18872e-05	7.55691e-06	3.03404e-06	17.4114	-1.47581	17.4739	-4.84487	-3996.01	47144.4	47313.4	-94.8449	0.0000000E+000	0.0000000E+000	0.0000000E+000	94.8449	0.0000000E+000	0.0000000E+000	0.0000000E+000	-94.8449	0.0000000E+000	0.0000000E+000	0.0000000E+000	4.84487	0.0000000E+000	0.0000000E+000	0.0000000E+000	-4.84487	11.7979	85.1551	-0.000112619
37160.4	0.0584999	0.000740723	0.0585046	-0.725438	1149.76	-0.000103693	-0.676334	5782.08	0.926863	2	37	0.00549065	0.0938499	0	-0.00124304	0.339415	0.199212	6.73915	5.44138e-06	1.39367e-05	8.39766e-06	2.94559e-06	5.50505e-06	1.79457e-06	0.212862	0.0427979	0.251058	5.57436e-06	0.00019927	3.26118e-06	1.1848e-05	3.9667e-06	2.87328e-06	17.0913	0.216409	17.0927	0.725438	926.867	73200.6	73206.5	-89.2746	0.0000000E+000	0.0000000E+000	0.0000000E+000	89.2746	0.0000000E+000	0.0000000E+000	0.0000000E+000	-89.2746	0.0000000E+000	0.0000000E+000	0.0000000E+000	-0.725438	0.0000000E+000	0.0000000E+000	0.0000000E+000	0.725438	78.9768	89.2746	-0.000425605
23502.4	0.0604578	0.00507	0.06067	-4.79361	1150.57	-0.000106135	-0.708755	1335.67	9.32753	2	37	0.00547711	0.0902771	0	-0.00142953	0.413235	0.191678	6.75116	4.92591e-06	1.49261e-05	1.11732e-05	3.25279e-06	8.9839e-06	1.5927e-06	0.212146	0.0455035	0.254528	1.51626e-05	0.000190572	3.75746e-06	9.60464e-06	4.52001e-06	3.2683e-06	16.425	1.3774	16.4826	4.79361	9327.54	111227	111618	-85.2064	0.0000000E+000	0.0000000E+000	0.0000000E+000	85.2064	0.0000000E+000	0.0000000E+000	0.0000000E+000	-85.2064	0.0000000E+000	0.0000000E+000	0.0000000E+000	-4.79361	0.0000000E+000	0.0000000E+000	0.0000000E+000	4.79361	11.9246	85.2064	-0.000186493
14854.9	0.063246	0.00897396	0.0638795	-8.07578	1151.39	-0.000102332	-0.740394	1193.9	23.562	2	37	0.00545472	0.0853907	0	-0.00166673	0.361229	0.192896	6.80091	2.06656e-06	1.33766e-05	5.50221e-06	6.84265e-06	9.50093e-06	5.1604e-06	0.202412	0.0231188	0.269524	1.97194e-05	0.000171318	2.031e-06	1.05851e-05	1.93794e-06	2.87214e-06	15.4992	2.19918	15.6545	8.07578	23562	166059	167722	-81.9242	0.0000000E+000	0.0000000E+000	0.0000000E+000	81.9242	0.0000000E+000	0.0000000E+000	0.0000000E+000	-81.9242	0.0000000E+000	0.0000000E+000	0.0000000E+000	-8.07578	0.0000000E+000	0.0000000E+000	0.0000000E+000	8.07578	7.04773	81.9242	-0.000237196
9395.12	0.0665621	0.0125158	0.0677285	-10.6491	1152.34	-0.000211846	-1.22157	1353.5	46.2205	2	37	0.0050569	0.0746642	0	-0.00192231	0.418236	0.31074	7.28126	6.20263e-06	1.06223e-05	6.15975e-06	8.44914e-06	5.6634e-06	1.00575e-05	0.198914	0.054927	0.312181	3.42579e-06	0.000146377	1.54602e-05	1.82218e-05	3.0024e-06	4.26659e-06	14.5105	2.72846	14.7648	10.6491	46220.5	245811	250119	-79.3509	0.0000000E+000	0.0000000E+000	0.0000000E+000	79.3509	0.0000000E+000	0.0000000E+000	0.0000000E+000	-79.3509	0.0000000E+000	0.0000000E+000	0.0000000E+000	-10.6491	0.0000000E+000	0.0000000E+000	0.0000000E+000	10.6491	5.31822	79.3509	-0.000255583
5938.89	0.0707135	0.0160965	0.0725223	-12.8237	1153.29	-0.000213245	-1.26775	1664.88	82.0169	2	37	0.00541157	0.0746193	0	-0.00211621	0.411599	0.223367	6.80212	4.98706e-06	1.4268e-05	5.51367e-06	1.12869e-05	5.34929e-06	7.67573e-06	0.188843	0.0116909	0.311386	1.16896e-05	0.000139603	9.08156e-06	8.69585e-06	3.21504e-06	6.14327e-06	13.4449	3.06047	13.7889	12.8237	82016.9	360308	369524	-77.1763	0.0000000E+000	0.0000000E+000	0.0000000E+000	77.1763	0.0000000E+000	0.0000000E+000	0.0000000E+000	-77.1763	0.0000000E+000	0.0000000E+000	0.0000000E+000	-12.8237	0.0000000E+000	0.0000000E+000	0.0000000E+000	12.8237	4.39309	77.1763	-0.000193905
3756.2	0.0758237	0.01964	0.078326	-14.5217	1154.27	-0.000223627	-1.26521	2157.4	135.644	2	37	0.00547148	0.0698553	0	-0.00240714	0.386086	0.152766	6.77088	2.34737e-06	1.55676e-05	1.16533e-05	2.61675e-06	6.70844e-06	2.31636e-06	0.153385	0.0241796	0.338475	1.39589e-05	0.000105534	3.25827e-06	8.60218e-06	5.19426e-06	5.03649e-06	12.3593	3.20132	12.7672	14.5217	135644	523678	540960	-75.4783	0.0000000E+000	0.0000000E+000	0.0000000E+000	75.4783	0.0000000E+000	0.0000000E+000	0.0000000E+000	-75.4783	0.0000000E+000	0.0000000E+000	0.0000000E+000	-14.5217	0.0000000E+000	0.0000000E+000	0.0000000E+000	14.5217	3.86068	75.4783	-0.000290928
2374.24	0.0819623	0.0236842	0.0853157	-16.1174	1155.45	-0.000219787	-1.22935	2830.33	218.121	2	37	0.00504113	0.059088	0	-0.00294324	0.442121	0.173153	7.32968	1.28462e-05	8.89446e-06	8.80008e-06	5.63628e-06	6.36822e-06	7.11708e-06	0.108247	0.0361855	0.40026	1.57702e-05	6.15205e-05	1.98053e-06	3.81236e-06	1.51168e-06	4.9878e-06	11.2605	3.25388	11.7212	16.1174	218121	754835	785718	-73.8826	0.0000000E+000	0.0000000E+000	0.0000000E+000	73.8826	0.0000000E+000	0.0000000E+000	0.0000000E+000	-73.8826	0.0000000E+000	0.0000000E+000	0.0000000E+000	-16.1174	0.0000000E+000	0.0000000E+000	0.0000000E+000	16.1174	3.46063	73.8826	-0.000536101
1501.44	0.0891865	0.0280085	0.0934811	-17.4346	1156.42	-0.000207708	-1.17633	3784.62	339.746	2	37	0.00539831	0.0577476	0	-0.00332497	0.470423	0.140599	7.00379	1.29096e-05	1.53029e-05	4.5716e-06	8.74878e-06	8.1285e-06	8.01052e-06	0.0762132	0.0219932	0.402176	1.37367e-05	4.02845e-05	3.43331e-06	8.24951e-06	3.52497e-06	5.25443e-06	10.2059	3.20511	10.6974	17.4346	339746	1.08184e+06	1.13394e+06	-72.5654	0.0000000E+000	0.0000000E+000	0.0000000E+000	72.5654	0.0000000E+000	0.0000000E+000	0.0000000E+000	-72.5654	0.0000000E+000	0.0000000E+000	0.0000000E+000	-17.4346	0.0000000E+000	0.0000000E+000	0.0000000E+000	17.4346	3.18426	72.5654	-0.000381727
949.092	0.0979095	0.0322856	0.103095	-18.2499	1157.38	-0.000230301	-1.16404	5194.01	509.381	2	37	0.00537318	0.0521186	0	-0.00366833	0.364382	0.193776	6.81613	7.83527e-06	3.99768e-06	3.55253e-06	1.2612e-05	7.07305e-06	8.18427e-06	0.0495271	0.0934607	0.447265	1.04812e-05	1.94807e-05	2.55978e-06	1.15881e-05	3.44931e-06	3.81877e-06	9.21186	3.0376	9.69977	18.2499	509381	1.54475e+06	1.62657e+06	-71.7501	0.0000000E+000	0.0000000E+000	0.0000000E+000	71.7501	0.0000000E+000	0.0000000E+000	0.0000000E+000	-71.7501	0.0000000E+000	0.0000000E+000	0.0000000E+000	-18.2499	0.0000000E+000	0.0000000E+000	0.0000000E+000	18.2499	3.03261	71.7501	-0.000343363
600.192	0.108336	0.0366567	0.11437	-18.6939	1158.35	-0.000200923	-1.1043	7233.96	743.127	2	37	0.00528654	0.0462233	0	-0.00409079	2.07382	0.202586	6.78943	9.01546e-06	7.8007e-06	8.70432e-06	7.59075e-06	9.99613e-06	0.000107866	0.0672601	0.0135342	0.505455	1.24111e-05	2.14318e-05	4.16801e-06	9.49369e-06	2.83457e-06	1.36423e-05	8.28232	2.80242	8.74359	18.6939	743127	2.19625e+06	2.31857e+06	-71.3062	0.0000000E+000	0.0000000E+000	0.0000000E+000	71.3062	0.0000000E+000	0.0000000E+000	0.0000000E+000	-71.3062	0.0000000E+000	0.0000000E+000	0.0000000E+000	-18.6939	0.0000000E+000	0.0000000E+000	0.0000000E+000	18.6939	2.95542	71.3062	-0.000422458
379.393	0.119988	0.0407498	0.126719	-18.7583	1159.32	-0.000179784	-1.05154	10294.5	1064.56	2	37	0.00511537	0.0403678	0	-0.00442961	0.335512	0.242187	7.32113	4.7099e-06	1.12679e-05	8.6481e-06	4.68248e-06	3.36124e-06	4.92595e-06	0.0813444	0.0251	0.582798	4.46642e-06	2.90001e-05	7.55889e-06	7.88372e-06	6.85278e-06	5.39678e-06	7.4723	2.5377	7.89146	18.7583	1.06456e+06	3.13462e+06	3.31046e+06	-71.2417	0.0000000E+000	0.0000000E+000	0.0000000E+000	71.2417	0.0000000E+000	0.0000000E+000	0.0000000E+000	-71.2417	0.0000000E+000	0.0000000E+000	0.0000000E+000	-18.7583	0.0000000E+000	0.0000000E+000	0.0000000E+000	18.7583	2.94451	71.2417	-0.000338824
239.924	0.133694	0.044717	0.140974	-18.4936	1160.06	-0.000188601	-1.02671	14834.6	1492.58	2	37	0.00521373	0.0369835	0	-0.00466611	0.315365	0.192039	7.14276	4.10204e-06	9.15867e-06	3.68995e-06	7.11364e-06	6.86554e-06	5.86989e-06	0.106022	0.0229498	0.637142	7.02646e-06	3.14375e-05	4.71314e-06	2.04592e-05	4.13025e-06	4.89628e-06	6.72717	2.25005	7.09348	18.4936	1.49258e+06	4.46251e+06	4.70551e+06	-71.5064	0.0000000E+000	0.0000000E+000	0.0000000E+000	71.5064	0.0000000E+000	0.0000000E+000	0.0000000E+000	-71.5064	0.0000000E+000	0.0000000E+000	0.0000000E+000	-18.4936	0.0000000E+000	0.0000000E+000	0.0000000E+000	18.4936	2.98979	71.5064	-0.000236493
151.699	0.149728	0.0475582	0.1571	-17.6214	1160.8	-0.000175665	-1.02902	22060.3	2021.68	2	37	0.0051338	0.0326786	0	-0.00492024	0.292456	0.209183	7.32932	4.37791e-06	1.82241e-06	5.43426e-06	5.87857e-06	6.5192e-06	7.58838e-06	0.13805	0.13617	0.659059	4.13107e-06	3.46553e-05	1.25116e-05	2.49258e-05	1.91459e-06	1.62266e-06	6.0667	1.92697	6.36538	17.6214	2.02168e+06	6.36488e+06	6.67824e+06	-72.3786	0.0000000E+000	0.0000000E+000	0.0000000E+000	72.3786	0.0000000E+000	0.0000000E+000	0.0000000E+000	-72.3786	0.0000000E+000	0.0000000E+000	0.0000000E+000	-17.6214	0.0000000E+000	0.0000000E+000	0.0000000E+000	17.6214	3.14832	72.3786	-0.000254137
95.8897	0.167147	0.0466824	0.173544	-15.6044	1161.54	-0.000184985	-1.01504	35554.6	2572.66	2	37	0.00504058	0.029045	0	-0.00509159	0.376945	0.290328	7.438	1.16656e-05	7.9541e-06	6.94257e-06	6.00813e-06	6.35507e-06	5.04921e-06	0.145631	0.019205	0.804174	3.35176e-06	3.07889e-05	6.43515e-06	2.7219e-05	4.56165e-06	3.93937e-06	5.54985	1.55001	5.76223	15.6044	2.57266e+06	9.21147e+06	9.56398e+06	-74.3956	0.0000000E+000	0.0000000E+000	0.0000000E+000	74.3956	0.0000000E+000	0.0000000E+000	0.0000000E+000	-74.3956	0.0000000E+000	0.0000000E+000	0.0000000E+000	-15.6044	0.0000000E+000	0.0000000E+000	0.0000000E+000	15.6044	3.58052	74.3956	-0.000171351
60.6403	0.18346	0.0412534	0.18804	-12.6729	1162.28	-0.000183606	-0.993286	63620.8	3062.07	2	37	0.00498446	0.0265074	0	-0.00527594	0.388522	0.213096	7.30392	6.422e-06	1.16998e-05	5.75779e-06	4.06356e-06	8.60768e-06	7.3873e-06	0.174626	0.0357036	0.883579	5.44417e-06	2.92396e-05	6.23081e-06	3.20625e-05	6.63667e-06	1.0428e-05	5.18845	1.16669	5.318	12.6729	3.06207e+06	1.36175e+07	1.39575e+07	-77.3271	0.0000000E+000	0.0000000E+000	0.0000000E+000	77.3271	0.0000000E+000	0.0000000E+000	0.0000000E+000	-77.3271	0.0000000E+000	0.0000000E+000	0.0000000E+000	-12.6729	0.0000000E+000	0.0000000E+000	0.0000000E+000	12.6729	4.44714	77.3271	-0.000184347
38.3436	0.196273	0.0334931	0.19911	-9.684	1163.04	-0.000185209	-1.00028	123929	3506.68	2	37	0.00496432	0.0249325	0	-0.00549718	0.35977	0.212361	7.44834	5.28256e-06	1.15775e-05	5.13143e-06	6.41496e-06	3.06447e-06	4.56887e-06	0.214433	0.0869894	0.919449	1.40613e-05	1.94084e-05	4.10425e-05	2.24704e-05	6.5181e-06	4.76047e-06	4.95078	0.844829	5.02235	9.684	3.50668e+06	2.05495e+07	2.08465e+07	-80.316	0.0000000E+000	0.0000000E+000	0.0000000E+000	80.316	0.0000000E+000	0.0000000E+000	0.0000000E+000	-80.316	0.0000000E+000	0.0000000E+000	0.0000000E+000	-9.684	0.0000000E+000	0.0000000E+000	0.0000000E+000	9.684	5.8601	80.316	-0.000221235
24.2474	0.204502	0.0256454	0.206104	-7.1478	1163.8	-0.000191304	-1.01095	255945	3962.7	2	37	0.00495269	0.0240301	0	-0.00567635	0.457753	0.187943	7.67007	8.77727e-06	1.01984e-05	7.58889e-06	9.38663e-06	6.03899e-06	9.20193e-06	0.281936	0.0567178	0.940236	5.7836e-05	2.56149e-05	7.76225e-06	2.09887e-05	5.08609e-06	5.04555e-06	4.81421	0.603721	4.85192	7.1478	3.9627e+06	3.15995e+07	3.1847e+07	-82.8522	0.0000000E+000	0.0000000E+000	0.0000000E+000	82.8522	0.0000000E+000	0.0000000E+000	0.0000000E+000	-82.8522	0.0000000E+000	0.0000000E+000	0.0000000E+000	-7.1478	0.0000000E+000	0.0000000E+000	0.0000000E+000	7.1478	7.97423	82.8522	-0.000179178
15.3287	0.20948	0.018384	0.210286	-5.01543	1164.53	-0.00017984	-0.979793	564774	4316.55	2	37	0.00494713	0.0235258	0	-0.00595645	0.465846	0.107245	7.47635	6.43508e-06	8.74365e-06	9.29175e-06	1.21272e-05	4.58159e-06	1.21763e-05	0.160721	0.0552364	1.00342	9.67483e-06	2.85465e-05	6.33058e-06	1.74175e-05	1.03428e-05	4.1799e-06	4.73723	0.41574	4.75544	5.01543	4.31655e+06	4.91858e+07	4.93749e+07	-84.9846	0.0000000E+000	0.0000000E+000	0.0000000E+000	84.9846	0.0000000E+000	0.0000000E+000	0.0000000E+000	-84.9846	0.0000000E+000	0.0000000E+000	0.0000000E+000	-5.01543	0.0000000E+000	0.0000000E+000	0.0000000E+000	5.01543	11.3947	84.9846	-0.000280098
9.69291	0.212149	0.013535	0.21258	-3.6505	1165.28	-0.00018547	-0.963155	1.21313e+06	4917.9	2	37	0.00493609	0.0232199	0	-0.0061508	0.308494	0.23794	7.52995	6.08273e-06	6.17056e-06	5.60109e-06	4.48307e-06	9.51832e-06	2.87007e-06	0.30746	0.108432	0.970258	8.76615e-06	2.53685e-05	1.04776e-05	6.30791e-05	1.46836e-05	7.39587e-06	4.69457	0.299512	4.70411	3.6505	4.9179e+06	7.70836e+07	7.72403e+07	-86.3495	0.0000000E+000	0.0000000E+000	0.0000000E+000	86.3495	0.0000000E+000	0.0000000E+000	0.0000000E+000	-86.3495	0.0000000E+000	0.0000000E+000	0.0000000E+000	-3.6505	0.0000000E+000	0.0000000E+000	0.0000000E+000	3.6505	15.6741	86.3495	-0.000194346
6.12745	0.214305	0.00997808	0.214538	-2.66577	1166.24	-0.000183668	-0.947868	2.60311e+06	5630.93	2	37	0.00494277	0.0230392	0	-0.00625844	0.167175	0.161636	4.13743	2.42656e-06	4.58019e-06	3.40847e-06	3.66871e-06	3.23911e-06	1.39169e-06	0.141965	0.0708146	0.763797	8.54947e-06	2.49753e-05	1.66326e-06	1.47467e-05	6.00069e-06	9.10135e-06	4.65614	0.216791	4.66119	2.66577	5.63093e+06	1.20939e+08	1.2107e+08	-87.3342	0.0000000E+000	0.0000000E+000	0.0000000E+000	87.3342	0.0000000E+000	0.0000000E+000	0.0000000E+000	-87.3342	0.0000000E+000	0.0000000E+000	0.0000000E+000	-2.66577	0.0000000E+000	0.0000000E+000	0.0000000E+000	2.66577	21.4776	87.3342	-0.000107644
3.87525	0.215136	0.00776182	0.215276	-2.06626	1167.56	-0.000181462	-0.949391	5.29124e+06	6878.49	2	37	0.00493341	0.0229167	0	-0.00671158	0.189722	0.0990796	3.8023	3.25312e-06	4.42529e-06	4.40562e-06	3.0561e-06	3.70577e-06	2.92458e-06	0.1248	0.081825	0.734317	1.05301e-05	1.98012e-05	7.42678e-06	1.39122e-05	1.5111e-06	4.0311e-06	4.64218	0.167484	4.6452	2.06626	6.8785e+06	1.90653e+08	1.90777e+08	-87.9337	0.0000000E+000	0.0000000E+000	0.0000000E+000	87.9337	0.0000000E+000	0.0000000E+000	0.0000000E+000	-87.9337	0.0000000E+000	0.0000000E+000	0.0000000E+000	-2.06626	0.0000000E+000	0.0000000E+000	0.0000000E+000	2.06626	27.7172	87.9337	-0.000453139
2.45021	0.216199	0.00673538	0.216304	-1.78439	1169.49	-0.000190961	-0.957749	9.64394e+06	9350.78	2	37	0.00493535	0.0228167	0	-0.00658782	0.156553	0.134689	2.633	4.71598e-06	2.28899e-06	2.49221e-06	2.36828e-06	2.56556e-06	2.61697e-06	0.117763	0.101248	0.695109	7.83894e-06	2.09979e-05	5.27264e-06	1.2309e-05	2.60319e-06	3.77744e-06	4.62087	0.143957	4.62312	1.78439	9.35076e+06	3.00151e+08	3.00297e+08	-88.2156	0.0000000E+000	0.0000000E+000	0.0000000E+000	88.2156	0.0000000E+000	0.0000000E+000	0.0000000E+000	-88.2156	0.0000000E+000	0.0000000E+000	0.0000000E+000	-1.78439	0.0000000E+000	0.0000000E+000	0.0000000E+000	1.78439	32.0991	88.2156	0.000123763
1.54902	0.216773	0.00668056	0.216876	-1.7652	1172.39	-0.000185197	-0.932459	1.53798e+07	14593.3	2	37	0.00493419	0.0227512	0	-0.00812291	0.167656	0.0995812	1.99311	4.6692e-06	5.05038e-06	2.42785e-06	1.80739e-06	2.27358e-06	1.75465e-06	0.141233	0.077463	0.656451	1.03947e-05	2.61463e-05	8.76454e-06	1.15615e-05	3.1996e-06	3.78833e-06	4.60874	0.142033	4.61093	1.7652	1.45933e+07	4.73528e+08	4.73753e+08	-88.2348	0.0000000E+000	0.0000000E+000	0.0000000E+000	88.2348	0.0000000E+000	0.0000000E+000	0.0000000E+000	-88.2348	0.0000000E+000	0.0000000E+000	0.0000000E+000	-1.7652	0.0000000E+000	0.0000000E+000	0.0000000E+000	1.7652	32.4483	88.2348	-0.00153509
0.979744	0.217696	0.00762359	0.21783	-2.00564	1178.9	-0.000182132	-0.946888	2.13083e+07	26099.5	2	38	0.0049357	0.0226585	0	-0.00836902	0.14549	0.0840984	1.54676	2.98896e-06	4.93024e-06	1.63394e-06	1.85734e-06	3.07182e-06	8.37646e-07	0.124278	0.0874457	0.586622	4.86855e-06	2.22742e-05	7.00392e-06	1.3703e-05	5.10616e-06	1.5196e-06	4.58793	0.160666	4.59074	2.00564	2.60996e+07	7.45288e+08	7.45745e+08	-87.9944	0.0000000E+000	0.0000000E+000	0.0000000E+000	87.9944	0.0000000E+000	0.0000000E+000	0.0000000E+000	-87.9944	0.0000000E+000	0.0000000E+000	0.0000000E+000	-2.00564	0.0000000E+000	0.0000000E+000	0.0000000E+000	2.00564	28.5556	87.9944	-0.000246107
0.619303	0.218904	0.0110008	0.219181	-2.87692	1185.74	-0.00017651	-0.916476	2.33611e+07	58848.7	2	38	0.00493158	0.0225001	0	-0.0116236	0.106971	0.073116	1.26514	2.00586e-06	3.93552e-06	8.65176e-07	1.91679e-06	8.37222e-07	1.22044e-06	0.151951	0.179519	0.600356	2.43428e-05	1.23734e-05	6.52185e-06	1.36643e-05	5.0245e-06	4.76088e-06	4.5567	0.228992	4.56245	2.87692	5.88487e+07	1.17103e+09	1.17251e+09	-87.1231	0.0000000E+000	0.0000000E+000	0.0000000E+000	87.1231	0.0000000E+000	0.0000000E+000	0.0000000E+000	-87.1231	0.0000000E+000	0.0000000E+000	0.0000000E+000	-2.87692	0.0000000E+000	0.0000000E+000	0.0000000E+000	2.87692	19.8989	87.1231	-0.00325458
0.391574	0.224392	0.0146555	0.22487	-3.7368	1196.43	-0.000174854	-0.947298	2.77335e+07	117799	2	38	0.00493061	0.0219264	0	-0.0166245	0.119528	0.0415474	0.964645	1.31708e-06	4.12578e-06	1.50702e-06	2.6738e-06	1.27689e-06	1.20661e-06	0.163594	0.199714	0.607704	1.89082e-05	8.72365e-06	1.03651e-05	1.87632e-05	6.9196e-06	6.8713e-06	4.43755	0.289826	4.44701	3.7368	1.17799e+08	1.80364e+09	1.80748e+09	-86.2632	0.0000000E+000	0.0000000E+000	0.0000000E+000	86.2632	0.0000000E+000	0.0000000E+000	0.0000000E+000	-86.2632	0.0000000E+000	0.0000000E+000	0.0000000E+000	-3.7368	0.0000000E+000	0.0000000E+000	0.0000000E+000	3.7368	15.3111	86.2632	-0.00500094
0.247537	0.231669	0.0145734	0.232127	-3.59952	1213.22	-0.000175201	-0.957529	4.41183e+07	173897	2	38	0.00493157	0.0212452	0	-0.0204837	0.100528	0.0533689	0.792624	1.62613e-06	3.58773e-06	8.0986e-07	2.35172e-06	9.7986e-07	7.95608e-07	0.113188	0.075479	0.566627	3.99132e-06	1.38115e-05	6.35141e-07	1.87795e-05	2.82643e-06	2.19457e-06	4.29949	0.270465	4.30799	3.59952	1.73897e+08	2.76438e+09	2.76985e+09	-86.4005	0.0000000E+000	0.0000000E+000	0.0000000E+000	86.4005	0.0000000E+000	0.0000000E+000	0.0000000E+000	-86.4005	0.0000000E+000	0.0000000E+000	0.0000000E+000	-3.59952	0.0000000E+000	0.0000000E+000	0.0000000E+000	3.59952	15.8967	86.4005	-0.00385915
0.15652	0.236668	0.0116515	0.236954	-2.81849	1239.65	-0.000172554	-0.96297	8.72706e+07	211012	2	38	0.0049304	0.0208074	0	-0.0231563	0.087307	0.0649503	0.614958	2.10811e-06	2.57626e-06	4.88334e-07	1.69279e-06	1.15518e-06	1.38137e-06	0.118745	0.107378	0.508687	4.98646e-06	1.59894e-05	5.04951e-06	1.60876e-05	3.88265e-06	2.62813e-06	4.21512	0.207518	4.22023	2.81849	2.11012e+08	4.28609e+09	4.29128e+09	-87.1815	0.0000000E+000	0.0000000E+000	0.0000000E+000	87.1815	0.0000000E+000	0.0000000E+000	0.0000000E+000	-87.1815	0.0000000E+000	0.0000000E+000	0.0000000E+000	-2.81849	0.0000000E+000	0.0000000E+000	0.0000000E+000	2.81849	20.3121	87.1815	-0.00267259