File: Python/Experiments/IRFB/FirstCell/Data/240411-EIS-50mM_FeCl2FeCl3-1M_HCl-20mLmin-25mHz_20ppd_C15.mpt
EC-Lab ASCII FILE
Nb header lines : 66

Potentio Electrochemical Impedance Spectroscopy

Run on channel : 15 (SN 19485)
User :
Electrode connection : standard
Potential control : Ewe
Ewe ctrl range : min = -1.00 V, max = 1.00 V
Ewe,I filtering : <None>
Safety Limits :
	Do not start on E overload
Channel : Floating
Acquisition started on : 04/11/2024 10:02:50.464
Loaded Setting File :  NONE
Saved on :
	File : 240411-EIS-50mM_FeCl2FeCl3-1M_HCl-20mLmin-25mHz_20ppd_C15.mpr
	Directory : C:\Data\mathias\IRFB\
	Host : 192.168.0.1
Device : VMP-300 (SN 0826)
Address : USB
EC-Lab for windows v11.52 (software)
Internet server v11.52 (firmware)
Command interpretor v11.52 (firmware)
Electrode material :
Initial state :
Electrolyte :
Comments :
Cable : special
Electrode surface area : 0.001 cm²
Characteristic mass : 0.001 g
Equivalent Weight : 0.000 g/eq.
Density : 0.000 g/cm3
Volume (V) : 0.001 cm³
Record EIS quality indicators
Cycle Definition : Charge/Discharge alternance
Mode                Single sine
E (V)               0.0000
vs.                 Eoc
tE (h:m:s)          0:00:0.0000
record              0
dI                  0.000
unit dI             mA
dt (s)              0.000
fi                  920.000
unit fi             kHz
ff                  25.000
unit ff             mHz
Nd                  20
Points              per decade
spacing             Logarithmic
Va (mV)             5.0
pw                  0.10
Na                  3
corr                0
E range min (V)     -1.000
E range max (V)     1.000
I Range             Auto
Bandwidth           8
nc cycles           0
goto Ns'            0
nr cycles           999
inc. cycle          1

freq/Hz	Re(Z)/Ohm	-Im(Z)/Ohm	|Z|/Ohm	Phase(Z)/deg	time/s	<Ewe>/V	<I>/mA	Cs/µF	Cp/µF	cycle number	I Range	|Ewe|/V	|I|/A	Ns	(Q-Qo)/mA.h	THD Ewe/%	NSD Ewe/%	NSR Ewe/%	|Ewe h2|/V	|Ewe h3|/V	|Ewe h4|/V	|Ewe h5|/V	|Ewe h6|/V	|Ewe h7|/V	THD I/%	NSD I/%	NSR I/%	|I h2|/A	|I h3|/A	|I h4|/A	|I h5|/A	|I h6|/A	|I h7|/A	Re(Y)/Ohm-1	Im(Y)/Ohm-1	|Y|/Ohm-1	Phase(Y)/deg	Re(C)/nF	Im(C)/nF	|C|/nF	Phase(C)/deg	Re(M)	Im(M)	|M|	Phase(M)/deg	Re(Permittivity)	Im(Permittivity)	|Permittivity|	Phase(Permittivity)/deg	Re(Resistivity)/Ohm.cm	Im(Resistivity)/Ohm.cm	|Resistivity|/Ohm.cm	Phase(Resistivity)/deg	Re(Conductivity)/mS/cm	Im(Conductivity)/mS/cm	|Conductivity|/mS/cm	Phase(Conductivity)/deg	Tan(Delta)	Loss Angle(Delta)/deg	dq/mA.h
920001	-0.130327	-0.126489	0.181617	135.856	1.97749	-0.00013076	-0.471948	-1.36766	-0.663395	1	37	0.000540111	0.0029739	0	-0.000239721	-1	-1	-1	0	0	0	0	0	0	-1	-1	-1	0	0	0	0	0	0	-3.95114	-3.83478	5.50609	-135.856	-663.395	-683.525	952.523	134.144	0.0000000E+000	0.0000000E+000	0.0000000E+000	-134.144	0.0000000E+000	0.0000000E+000	0.0000000E+000	134.144	0.0000000E+000	0.0000000E+000	0.0000000E+000	135.856	0.0000000E+000	0.0000000E+000	0.0000000E+000	-135.856	1.03034	45.8562	-0.000239721
730432	-0.0490243	-0.0483	0.0688206	135.426	4.27249	-0.000125503	-0.474795	-4.51121	-2.22204	1	37	0.000351109	0.00510179	0	-0.000539381	-1	-1	-1	0	0	0	0	0	0	-1	-1	-1	0	0	0	0	0	0	-10.3508	-10.1979	14.5305	-135.426	-2222.04	-2255.35	3166.08	134.574	0.0000000E+000	0.0000000E+000	0.0000000E+000	-134.574	0.0000000E+000	0.0000000E+000	0.0000000E+000	134.574	0.0000000E+000	0.0000000E+000	0.0000000E+000	135.426	0.0000000E+000	0.0000000E+000	0.0000000E+000	-135.426	1.015	45.4264	-0.000146537
579916	0.00111913	-0.0185243	0.018558	86.5427	6.56648	-0.000132829	-0.465601	-14.8154	-14.7616	1	37	0.00018493	0.00996494	0	-0.000833231	-1	-1	-1	0	0	0	0	0	0	-1	-1	-1	0	0	0	0	0	0	3.24951	-53.787	53.885	-86.5427	-14761.6	891.811	14788.5	-176.543	0.0000000E+000	0.0000000E+000	0.0000000E+000	176.543	0.0000000E+000	0.0000000E+000	0.0000000E+000	-176.543	0.0000000E+000	0.0000000E+000	0.0000000E+000	86.5427	0.0000000E+000	0.0000000E+000	0.0000000E+000	-86.5427	0.0604144	3.45729	-0.000146795
460427	0.0289151	-0.00845705	0.0301265	16.3031	8.8625	-0.000131468	-0.443826	-40.8734	-3.22093	1	37	0.000309584	0.0102761	0	-0.00112166	-1	-1	-1	0	0	0	0	0	0	-1	-1	-1	0	0	0	0	0	0	31.8587	-9.31798	33.1934	-16.3031	-3220.93	11012.5	11473.9	-106.303	0.0000000E+000	0.0000000E+000	0.0000000E+000	106.303	0.0000000E+000	0.0000000E+000	0.0000000E+000	-106.303	0.0000000E+000	0.0000000E+000	0.0000000E+000	16.3031	0.0000000E+000	0.0000000E+000	0.0000000E+000	-16.3031	3.41906	73.6969	-0.000157256
365554	0.0437643	-0.00534933	0.0440901	6.96871	11.1585	-0.000130126	-0.459292	-81.3895	-1.19808	1	37	0.000666892	0.0151257	0	-0.0014225	-1	-1	-1	0	0	0	0	0	0	-1	-1	-1	0	0	0	0	0	0	22.5133	-2.75181	22.6808	-6.96871	-1198.08	9801.83	9874.78	-96.9687	0.0000000E+000	0.0000000E+000	0.0000000E+000	96.9687	0.0000000E+000	0.0000000E+000	0.0000000E+000	-96.9687	0.0000000E+000	0.0000000E+000	0.0000000E+000	6.96871	0.0000000E+000	0.0000000E+000	0.0000000E+000	-6.96871	8.18128	83.0313	-0.000157062
290232	0.0514552	-0.00315388	0.0515518	3.50749	13.4525	-0.00012252	-0.46843	-173.872	-0.65078	1	37	0.00116181	0.0225369	0	-0.0017343	-1	-1	-1	0	0	0	0	0	0	-1	-1	-1	0	0	0	0	0	0	19.3616	-1.18675	19.398	-3.50749	-650.779	10617.4	10637.3	-93.5075	0.0000000E+000	0.0000000E+000	0.0000000E+000	93.5075	0.0000000E+000	0.0000000E+000	0.0000000E+000	-93.5075	0.0000000E+000	0.0000000E+000	0.0000000E+000	3.50749	0.0000000E+000	0.0000000E+000	0.0000000E+000	-3.50749	16.3149	86.4925	-0.000159906
230422	0.0560506	-0.00214226	0.0560916	2.18879	15.7485	-0.000131859	-0.481625	-322.42	-0.470298	1	37	0.00184308	0.0328583	0	-0.00201995	-1	-1	-1	0	0	0	0	0	0	-1	-1	-1	0	0	0	0	0	0	17.815	-0.680892	17.828	-2.18879	-470.299	12305	12314	-92.1888	0.0000000E+000	0.0000000E+000	0.0000000E+000	92.1888	0.0000000E+000	0.0000000E+000	0.0000000E+000	-92.1888	0.0000000E+000	0.0000000E+000	0.0000000E+000	2.18879	0.0000000E+000	0.0000000E+000	0.0000000E+000	-2.18879	26.1642	87.8112	-0.000133567
182944	0.0585957	-0.000865998	0.0586021	0.846725	18.0425	-0.000133835	-0.470439	-1004.58	-0.219377	1	37	0.00275277	0.0469739	0	-0.00223476	-1	-1	-1	0	0	0	0	0	0	-1	-1	-1	0	0	0	0	0	0	17.0624	-0.252168	17.0642	-0.846725	-219.378	14843.6	14845.3	-90.8467	0.0000000E+000	0.0000000E+000	0.0000000E+000	90.8467	0.0000000E+000	0.0000000E+000	0.0000000E+000	-90.8467	0.0000000E+000	0.0000000E+000	0.0000000E+000	0.846725	0.0000000E+000	0.0000000E+000	0.0000000E+000	-0.846725	67.6626	89.1533	-5.45213e-05
145246	0.0601833	0.000208974	0.0601837	-0.198947	20.3385	-0.000136799	-0.461431	5243.55	0.0632195	1	37	0.00394158	0.0654925	0	-0.00259723	-1	-1	-1	0	0	0	0	0	0	-1	-1	-1	0	0	0	0	0	0	16.6157	0.0576945	16.6158	0.198947	63.2187	18206.9	18207	-89.8011	0.0000000E+000	0.0000000E+000	0.0000000E+000	89.8011	0.0000000E+000	0.0000000E+000	0.0000000E+000	-89.8011	0.0000000E+000	0.0000000E+000	0.0000000E+000	-0.198947	0.0000000E+000	0.0000000E+000	0.0000000E+000	0.198947	287.995	89.8011	-0.000187935
115323	0.061241	0.00158993	0.0612616	-1.48717	22.4995	-0.000138048	-0.453092	868.016	0.584665	1	37	0.00504976	0.0824294	0	-0.00297528	-1	-1	-1	0	0	0	0	0	0	-1	-1	-1	0	0	0	0	0	0	16.3179	0.423644	16.3234	1.48717	584.666	22520.1	22527.7	-88.5128	0.0000000E+000	0.0000000E+000	0.0000000E+000	88.5128	0.0000000E+000	0.0000000E+000	0.0000000E+000	-88.5128	0.0000000E+000	0.0000000E+000	0.0000000E+000	-1.48717	0.0000000E+000	0.0000000E+000	0.0000000E+000	1.48717	38.518	88.5128	-0.000244669
91560.3	0.0621454	0.00245936	0.062194	-2.26626	24.7965	-0.000129678	-0.447211	706.79	1.10519	1	37	0.00510076	0.0820136	0	-0.00323373	0.280755	0.170547	6.77663	3.9941e-06	6.52779e-06	3.62535e-06	5.12156e-06	4.78847e-06	7.26355e-06	0.133686	0.0193393	0.242816	2.08451e-05	0.000107191	6.73566e-06	4.36141e-06	2.42905e-06	2.6935e-06	16.0661	0.635807	16.0787	2.26626	1105.19	27927	27948.9	-87.7337	0.0000000E+000	0.0000000E+000	0.0000000E+000	87.7337	0.0000000E+000	0.0000000E+000	0.0000000E+000	-87.7337	0.0000000E+000	0.0000000E+000	0.0000000E+000	-2.26626	0.0000000E+000	0.0000000E+000	0.0000000E+000	2.26626	25.2689	87.7337	-0.000134724
72687.8	0.0628581	0.00346791	0.0629536	-3.15784	27.0925	-0.000131915	-0.444903	631.379	1.91595	1	37	0.00509472	0.0809282	0	-0.00346181	0.409592	0.220236	6.83356	6.61301e-06	1.47348e-05	4.19767e-06	8.22112e-06	4.35548e-06	5.05243e-06	0.135295	0.00826034	0.243975	2.19267e-05	0.000106496	1.12865e-05	2.69275e-06	5.3877e-06	2.63671e-06	15.8606	0.875037	15.8847	3.15784	1915.95	34727.8	34780.7	-86.8422	0.0000000E+000	0.0000000E+000	0.0000000E+000	86.8422	0.0000000E+000	0.0000000E+000	0.0000000E+000	-86.8422	0.0000000E+000	0.0000000E+000	0.0000000E+000	-3.15784	0.0000000E+000	0.0000000E+000	0.0000000E+000	3.15784	18.1256	86.8422	-0.000141509
57712.3	0.0635694	0.00459283	0.0637351	-4.13238	29.3885	-0.0001228	-0.432359	600.443	3.11799	1	37	0.00509138	0.0798834	0	-0.00382123	0.370492	0.168566	6.78523	6.65276e-06	7.22018e-06	1.137e-05	2.86414e-06	6.79797e-06	6.9076e-06	0.113413	0.027981	0.249021	1.64609e-05	8.86395e-05	2.80034e-06	6.34556e-06	5.25427e-06	2.42109e-06	15.6492	1.13064	15.6899	4.13238	3117.99	43156.2	43268.6	-85.8676	0.0000000E+000	0.0000000E+000	0.0000000E+000	85.8676	0.0000000E+000	0.0000000E+000	0.0000000E+000	-85.8676	0.0000000E+000	0.0000000E+000	0.0000000E+000	-4.13238	0.0000000E+000	0.0000000E+000	0.0000000E+000	4.13238	13.841	85.8676	-0.000180426
45817.2	0.0644676	0.00586557	0.0647339	-5.19873	31.6855	-0.000134208	-0.451064	592.217	4.86225	1	37	0.0051049	0.0788597	0	-0.00406574	0.327715	0.210289	6.90969	7.34328e-06	8.06249e-06	5.85326e-06	4.54532e-06	7.69269e-06	4.16844e-06	0.163475	0.0317303	0.253414	7.56482e-06	0.000128088	6.61968e-06	7.85777e-06	4.01669e-06	3.44892e-06	15.3843	1.39974	15.4478	5.19873	4862.25	53440.3	53661	-84.8013	0.0000000E+000	0.0000000E+000	0.0000000E+000	84.8013	0.0000000E+000	0.0000000E+000	0.0000000E+000	-84.8013	0.0000000E+000	0.0000000E+000	0.0000000E+000	-5.19873	0.0000000E+000	0.0000000E+000	0.0000000E+000	5.19873	10.9909	84.8013	-0.000115445
36381	0.0653423	0.00717456	0.065735	-6.26596	33.9815	-0.000124142	-0.421304	609.747	7.26352	1	37	0.00509212	0.0774643	0	-0.0043668	0.362799	0.201674	6.86422	6.9439e-06	6.64615e-06	8.32401e-06	4.79807e-06	7.96953e-06	6.86181e-06	0.166584	0.0223895	0.259429	7.59011e-06	0.000128102	6.39905e-06	1.18557e-05	2.2978e-06	2.38926e-06	15.1217	1.66036	15.2126	6.26596	7263.52	66152.5	66550.1	-83.734	0.0000000E+000	0.0000000E+000	0.0000000E+000	83.734	0.0000000E+000	0.0000000E+000	0.0000000E+000	-83.734	0.0000000E+000	0.0000000E+000	0.0000000E+000	-6.26596	0.0000000E+000	0.0000000E+000	0.0000000E+000	6.26596	9.1075	83.734	-0.000178419
28884	0.0664314	0.00842931	0.0669641	-7.23147	36.2775	-0.00012636	-0.425566	653.689	10.3579	1	37	0.00509481	0.0760827	0	-0.0045191	0.292434	0.155319	6.90413	6.02778e-06	7.54871e-06	6.90502e-06	3.35383e-06	3.91982e-06	4.02495e-06	0.170008	0.0428792	0.264548	3.4946e-05	0.000123618	7.11032e-06	1.23443e-05	2.79662e-06	5.11186e-06	14.8146	1.87979	14.9334	7.23147	10357.9	81630.6	82285.1	-82.7685	0.0000000E+000	0.0000000E+000	0.0000000E+000	82.7685	0.0000000E+000	0.0000000E+000	0.0000000E+000	-82.7685	0.0000000E+000	0.0000000E+000	0.0000000E+000	-7.23147	0.0000000E+000	0.0000000E+000	0.0000000E+000	7.23147	7.881	82.7685	-0.000121147
22927.2	0.0676413	0.00978486	0.0683453	-8.2312	38.5745	-0.000134543	-0.440139	709.438	14.5414	1	37	0.00508385	0.0743848	0	-0.00472105	0.384601	0.200563	6.76462	7.1791e-06	9.37824e-06	8.2338e-06	7.85098e-06	6.37926e-06	4.56201e-06	0.162048	0.0413882	0.266312	5.38075e-06	0.000119489	5.81359e-06	1.15038e-05	6.18291e-06	2.39893e-06	14.4808	2.09477	14.6316	8.2312	14541.4	100523	101569	-81.7688	0.0000000E+000	0.0000000E+000	0.0000000E+000	81.7688	0.0000000E+000	0.0000000E+000	0.0000000E+000	-81.7688	0.0000000E+000	0.0000000E+000	0.0000000E+000	-8.2312	0.0000000E+000	0.0000000E+000	0.0000000E+000	8.2312	6.91285	81.7688	-0.000114628
18204.4	0.0691687	0.0111514	0.0700618	-9.15842	40.8705	-0.000129473	-0.422384	783.998	19.8613	1	37	0.00509029	0.0726543	0	-0.00496014	0.326836	0.244294	6.87952	7.0602e-06	1.12462e-05	5.57767e-06	4.83629e-06	3.08475e-06	5.17368e-06	0.159132	0.0492066	0.275847	6.11699e-06	0.000114053	1.03257e-05	1.23372e-05	3.74771e-06	4.99811e-06	14.0912	2.27177	14.2731	9.15842	19861.3	123194	124785	-80.8416	0.0000000E+000	0.0000000E+000	0.0000000E+000	80.8416	0.0000000E+000	0.0000000E+000	0.0000000E+000	-80.8416	0.0000000E+000	0.0000000E+000	0.0000000E+000	-9.15842	0.0000000E+000	0.0000000E+000	0.0000000E+000	9.15842	6.20271	80.8416	-0.000160576
14455.9	0.0707641	0.0125607	0.0718702	-10.0652	43.1665	-0.00013171	-0.411571	876.519	26.7726	1	37	0.00508606	0.0707672	0	-0.00535025	0.481021	0.246574	6.91021	1.05058e-05	1.05768e-05	8.82153e-06	5.76536e-06	7.71298e-06	1.01523e-05	0.146816	0.0269796	0.282922	5.40889e-06	0.000103126	4.13229e-06	8.09981e-06	5.54254e-06	2.72695e-06	13.6998	2.43173	13.914	10.0652	26772.6	150831	153188	-79.9348	0.0000000E+000	0.0000000E+000	0.0000000E+000	79.9348	0.0000000E+000	0.0000000E+000	0.0000000E+000	-79.9348	0.0000000E+000	0.0000000E+000	0.0000000E+000	-10.0652	0.0000000E+000	0.0000000E+000	0.0000000E+000	10.0652	5.63378	79.9348	-0.000182604
11477.5	0.0725073	0.0140627	0.0738584	-10.9762	45.4625	-0.00013143	-0.393778	986.06	35.7472	1	37	0.00507097	0.068658	0	-0.00561343	0.377651	0.213162	6.86612	8.3943e-06	8.48865e-06	7.911e-06	6.40565e-06	4.47894e-06	8.30861e-06	0.136052	0.0230012	0.2909	9.08886e-06	9.23401e-05	5.07156e-06	5.14555e-06	6.43956e-06	3.51291e-06	13.2917	2.57792	13.5394	10.9762	35747.2	184312	187747	-79.0238	0.0000000E+000	0.0000000E+000	0.0000000E+000	79.0238	0.0000000E+000	0.0000000E+000	0.0000000E+000	-79.0238	0.0000000E+000	0.0000000E+000	0.0000000E+000	-10.9762	0.0000000E+000	0.0000000E+000	0.0000000E+000	10.9762	5.156	79.0238	-2.0973e-05
9107.2	0.0744644	0.0156357	0.0760883	-11.8584	47.7625	-0.000245139	-0.679573	1117.68	47.1973	1	37	0.00515567	0.0677591	0	-0.00593093	0.395646	0.157274	6.7104	1.08446e-05	1.23618e-05	4.28161e-06	3.79728e-06	6.30116e-06	6.33248e-06	0.1654	0.0221828	0.295104	1.32245e-05	0.000110434	3.3265e-06	1.11352e-05	3.45793e-06	5.22079e-06	12.8621	2.70073	13.1426	11.8584	47197.2	224775	229677	-78.1416	0.0000000E+000	0.0000000E+000	0.0000000E+000	78.1416	0.0000000E+000	0.0000000E+000	0.0000000E+000	-78.1416	0.0000000E+000	0.0000000E+000	0.0000000E+000	-11.8584	0.0000000E+000	0.0000000E+000	0.0000000E+000	11.8584	4.76247	78.1416	-0.000212245
7234.84	0.0767584	0.0174373	0.0787141	-12.7987	50.1117	-0.000226666	-0.641513	1261.57	61.9106	1	37	0.00509943	0.0647842	0	-0.00652961	0.280405	0.227073	6.72842	3.19671e-06	6.19115e-06	7.2324e-06	5.13053e-06	5.18421e-06	5.82764e-06	0.154728	0.034668	0.30995	1.44941e-05	9.79465e-05	3.26521e-06	1.1631e-05	5.95769e-06	5.236e-06	12.3886	2.81432	12.7042	12.7987	61910.6	272528	279472	-77.2013	0.0000000E+000	0.0000000E+000	0.0000000E+000	77.2013	0.0000000E+000	0.0000000E+000	0.0000000E+000	-77.2013	0.0000000E+000	0.0000000E+000	0.0000000E+000	-12.7987	0.0000000E+000	0.0000000E+000	0.0000000E+000	12.7987	4.40197	77.2013	-0.000302677
5743.33	0.0791387	0.0189683	0.0813801	-13.4786	52.6016	-0.000234253	-0.639783	1460.92	79.3686	1	37	0.00508231	0.0624514	0	-0.00708631	0.589553	1.1079	6.73471	6.86169e-06	1.85316e-05	1.39153e-05	7.56821e-06	8.67701e-06	6.12232e-06	0.130193	0.0435661	0.324554	1.66198e-05	7.86889e-05	3.74224e-06	8.05377e-06	5.94165e-06	1.77583e-06	11.9496	2.86413	12.288	13.4786	79368.6	331137	340516	-76.5213	0.0000000E+000	0.0000000E+000	0.0000000E+000	76.5213	0.0000000E+000	0.0000000E+000	0.0000000E+000	-76.5213	0.0000000E+000	0.0000000E+000	0.0000000E+000	-13.4786	0.0000000E+000	0.0000000E+000	0.0000000E+000	13.4786	4.17215	76.5213	-0.000326005
4558.54	0.0818753	0.0209655	0.084517	-14.3629	55.2668	-0.000228437	-0.643319	1665.29	102.473	1	37	0.00509761	0.0603146	0	-0.00746135	0.403851	0.193303	6.81609	7.2542e-06	1.29679e-05	7.25032e-06	4.0924e-06	6.37742e-06	7.25036e-06	0.119596	0.0180852	0.329061	1.27946e-05	7.037e-05	5.36922e-06	4.60906e-06	4.27469e-06	2.63154e-06	11.4621	2.93506	11.8319	14.3629	102473	400184	413095	-75.6371	0.0000000E+000	0.0000000E+000	0.0000000E+000	75.6371	0.0000000E+000	0.0000000E+000	0.0000000E+000	-75.6371	0.0000000E+000	0.0000000E+000	0.0000000E+000	-14.3629	0.0000000E+000	0.0000000E+000	0.0000000E+000	14.3629	3.90525	75.6371	-0.000150266
3621.16	0.0847276	0.0229802	0.0877887	-15.175	57.9247	-0.000230599	-0.623852	1912.57	131.054	1	37	0.00509063	0.0579872	0	-0.00793548	0.295299	0.14975	6.86305	4.85937e-06	8.01089e-06	3.79321e-06	8.60354e-06	3.26031e-06	4.4803e-06	0.104003	0.0602823	0.353483	1.27802e-05	5.77663e-05	3.7835e-06	8.63917e-06	4.8795e-06	2.50239e-06	10.9938	2.98179	11.391	15.175	131054	483192	500649	-74.8251	0.0000000E+000	0.0000000E+000	0.0000000E+000	74.8251	0.0000000E+000	0.0000000E+000	0.0000000E+000	-74.8251	0.0000000E+000	0.0000000E+000	0.0000000E+000	-15.175	0.0000000E+000	0.0000000E+000	0.0000000E+000	15.175	3.68698	74.8251	-0.000220673
2874.08	0.0881147	0.0252031	0.0916482	-15.9619	60.5798	-0.000234737	-0.651582	2197.19	166.16	1	37	0.00509154	0.0555553	0	-0.00828448	0.311545	0.17092	6.66923	6.04895e-06	8.85187e-06	6.43938e-06	6.40351e-06	4.3338e-06	4.46646e-06	0.0893693	0.0985857	0.367351	9.13488e-06	4.7898e-05	3.08273e-06	4.11124e-06	4.48191e-06	4.95926e-06	10.4906	3.00058	10.9113	15.9619	166160	580926	604222	-74.0381	0.0000000E+000	0.0000000E+000	0.0000000E+000	74.0381	0.0000000E+000	0.0000000E+000	0.0000000E+000	-74.0381	0.0000000E+000	0.0000000E+000	0.0000000E+000	-15.9619	0.0000000E+000	0.0000000E+000	0.0000000E+000	15.9619	3.49619	74.0381	-0.000156288
2282.19	0.0914241	0.0275432	0.0954829	-16.7659	63.2366	-0.000229145	-0.637456	2531.94	210.684	1	37	0.00508221	0.0532263	0	-0.00878997	0.294621	0.295256	6.83555	4.7324e-06	5.11103e-06	6.34114e-06	7.36156e-06	5.0214e-06	6.18138e-06	0.0743165	0.101761	0.382854	8.62807e-06	3.74384e-05	2.28635e-06	3.47408e-06	6.66121e-06	3.20562e-06	10.0279	3.02109	10.4731	16.7659	210684	699323	730370	-73.2341	0.0000000E+000	0.0000000E+000	0.0000000E+000	73.2341	0.0000000E+000	0.0000000E+000	0.0000000E+000	-73.2341	0.0000000E+000	0.0000000E+000	0.0000000E+000	-16.7659	0.0000000E+000	0.0000000E+000	0.0000000E+000	16.7659	3.31929	73.2341	-0.000197871
1811.74	0.0954193	0.029965	0.100014	-17.4341	65.8956	-0.000240031	-0.636824	2931.63	263.159	1	37	0.00506807	0.0506737	0	-0.00921715	0.278315	0.147127	6.96509	4.15437e-06	4.18767e-06	3.23361e-06	5.39439e-06	7.64706e-06	5.94741e-06	0.0493986	0.102108	0.41043	8.12602e-06	2.18529e-05	3.15422e-06	6.48422e-06	3.66038e-06	3.01728e-06	9.53931	2.99568	9.99863	17.4341	263159	837994	878343	-72.5659	0.0000000E+000	0.0000000E+000	0.0000000E+000	72.5659	0.0000000E+000	0.0000000E+000	0.0000000E+000	-72.5659	0.0000000E+000	0.0000000E+000	0.0000000E+000	-17.4341	0.0000000E+000	0.0000000E+000	0.0000000E+000	17.4341	3.18436	72.5659	-0.000191674
1438.62	0.0995625	0.0325644	0.104753	-18.1116	68.553	-0.000236396	-0.639448	3397.28	328.313	1	37	0.00508357	0.0485293	0	-0.00975323	0.366577	0.196657	6.82874	7.11334e-06	9.75364e-06	6.08751e-06	7.11502e-06	6.22516e-06	6.47915e-06	0.0380377	0.0372168	0.406765	5.06693e-06	1.44936e-05	2.64308e-06	7.31077e-06	4.75685e-06	2.78823e-06	9.0733	2.96765	9.54629	18.1116	328313	1.00378e+06	1.05611e+06	-71.8884	0.0000000E+000	0.0000000E+000	0.0000000E+000	71.8884	0.0000000E+000	0.0000000E+000	0.0000000E+000	-71.8884	0.0000000E+000	0.0000000E+000	0.0000000E+000	-18.1116	0.0000000E+000	0.0000000E+000	0.0000000E+000	18.1116	3.0574	71.8884	-0.000273513
1141.82	0.104269	0.0353155	0.110088	-18.711	71.2085	-0.00024266	-0.656515	3946.89	406.172	1	37	0.00507613	0.0461099	0	-0.0102094	0.351722	0.171926	6.85355	6.39542e-06	6.4235e-06	7.18189e-06	7.31718e-06	4.22215e-06	8.8192e-06	0.0354225	0.0984997	0.437555	3.11283e-06	7.41362e-06	5.38525e-06	1.13891e-05	3.42625e-06	3.08026e-06	8.60359	2.91399	9.08367	18.711	406172	1.19923e+06	1.26614e+06	-71.289	0.0000000E+000	0.0000000E+000	0.0000000E+000	71.289	0.0000000E+000	0.0000000E+000	0.0000000E+000	-71.289	0.0000000E+000	0.0000000E+000	0.0000000E+000	-18.711	0.0000000E+000	0.0000000E+000	0.0000000E+000	18.711	2.95251	71.289	-0.000218405
907.034	0.109269	0.038231	0.115764	-19.2839	73.8653	-0.000242324	-0.643375	4589.66	500.57	1	37	0.00502821	0.043435	0	-0.010713	0.346677	0.198226	6.87728	6.81014e-06	7.41617e-06	4.1058e-06	6.0697e-06	8.44445e-06	5.18565e-06	0.0502394	0.0625136	0.460671	6.74408e-06	1.23954e-05	4.13322e-06	1.2948e-05	5.75114e-06	4.75121e-06	8.1536	2.85278	8.63826	19.2839	500570	1.43069e+06	1.51573e+06	-70.7161	0.0000000E+000	0.0000000E+000	0.0000000E+000	70.7161	0.0000000E+000	0.0000000E+000	0.0000000E+000	-70.7161	0.0000000E+000	0.0000000E+000	0.0000000E+000	-19.2839	0.0000000E+000	0.0000000E+000	0.0000000E+000	19.2839	2.85812	70.7161	-0.000252253
719.771	0.114511	0.0411857	0.121692	-19.7819	76.5238	-0.000236434	-0.668947	5368.83	614.958	1	37	0.00506822	0.0416478	0	-0.0111848	0.304531	0.163747	6.86735	6.31032e-06	7.62574e-06	6.20402e-06	5.63991e-06	4.26583e-06	5.3633e-06	0.0537441	0.0433273	0.478619	6.70379e-06	1.81861e-05	2.26722e-06	9.1612e-06	3.61079e-06	2.78846e-06	7.73251	2.78112	8.21744	19.7819	614958	1.7098e+06	1.81703e+06	-70.2181	0.0000000E+000	0.0000000E+000	0.0000000E+000	70.2181	0.0000000E+000	0.0000000E+000	0.0000000E+000	-70.2181	0.0000000E+000	0.0000000E+000	0.0000000E+000	-19.7819	0.0000000E+000	0.0000000E+000	0.0000000E+000	19.7819	2.78036	70.2181	-0.00024101
571.647	0.120179	0.0446111	0.128192	-20.3651	78.9562	-0.000210448	-0.639262	6240.94	755.809	1	37	0.00496387	0.0387221	0	-0.0116077	0.337598	0.170112	6.96779	7.10103e-06	7.12386e-06	4.11071e-06	6.34437e-06	5.02288e-06	6.775e-06	0.0548877	0.0154324	0.513094	5.55751e-06	1.54894e-05	4.28356e-06	6.8154e-06	8.52693e-06	4.53944e-06	7.31319	2.71468	7.80079	20.3651	755809	2.0361e+06	2.17186e+06	-69.6349	0.0000000E+000	0.0000000E+000	0.0000000E+000	69.6349	0.0000000E+000	0.0000000E+000	0.0000000E+000	-69.6349	0.0000000E+000	0.0000000E+000	0.0000000E+000	-20.3651	0.0000000E+000	0.0000000E+000	0.0000000E+000	20.3651	2.69394	69.6349	-0.000206665
453.693	0.126098	0.0479963	0.134924	-20.8382	81.1723	-0.000210784	-0.648028	7308.86	924.89	1	37	0.0053046	0.0393156	0	-0.0119719	0.282818	0.227009	6.55917	3.41766e-06	6.56584e-06	4.41692e-06	3.19159e-06	9.28761e-06	5.93887e-06	0.0676736	0.0179567	0.503749	5.52924e-06	2.20651e-05	3.79278e-06	8.57285e-06	6.3789e-06	6.11804e-06	6.9268	2.63653	7.4116	20.8382	924890	2.42991e+06	2.59998e+06	-69.1618	0.0000000E+000	0.0000000E+000	0.0000000E+000	69.1618	0.0000000E+000	0.0000000E+000	0.0000000E+000	-69.1618	0.0000000E+000	0.0000000E+000	0.0000000E+000	-20.8382	0.0000000E+000	0.0000000E+000	0.0000000E+000	20.8382	2.62724	69.1618	-0.000177862
360.346	0.132289	0.0521053	0.142181	-21.4982	83.3876	-0.000215165	-0.660256	8476.54	1138.41	1	37	0.0054567	0.0383786	0	-0.0123659	0.348577	0.234706	6.45595	8.51319e-06	1.25315e-05	2.62404e-06	6.86178e-06	6.14132e-06	4.18004e-06	0.0753771	0.0260667	0.515922	6.98484e-06	1.96897e-05	3.62331e-06	1.68316e-05	5.91372e-06	5.98058e-06	6.54398	2.57751	7.0333	21.4982	1.13842e+06	2.8903e+06	3.10642e+06	-68.5018	0.0000000E+000	0.0000000E+000	0.0000000E+000	68.5018	0.0000000E+000	0.0000000E+000	0.0000000E+000	-68.5018	0.0000000E+000	0.0000000E+000	0.0000000E+000	-21.4982	0.0000000E+000	0.0000000E+000	0.0000000E+000	21.4982	2.53888	68.5018	-0.000208732
286.007	0.138943	0.0569477	0.150161	-22.2869	85.5961	-0.000220589	-0.639188	9771.63	1405.42	1	37	0.00548662	0.0365383	0	-0.0128142	0.283668	0.156029	6.34829	5.27819e-06	5.64173e-06	6.96868e-06	5.80058e-06	3.49228e-06	8.61652e-06	0.0966757	0.0238215	0.545226	3.48493e-06	2.86088e-05	5.99933e-06	1.819e-05	4.33933e-06	3.83259e-06	6.16203	2.52559	6.65952	22.2869	1.40542e+06	3.429e+06	3.70584e+06	-67.7131	0.0000000E+000	0.0000000E+000	0.0000000E+000	67.7131	0.0000000E+000	0.0000000E+000	0.0000000E+000	-67.7131	0.0000000E+000	0.0000000E+000	0.0000000E+000	-22.2869	0.0000000E+000	0.0000000E+000	0.0000000E+000	22.2869	2.43984	67.7131	-0.000220268
227.108	0.146683	0.0625412	0.159459	-23.092	87.8059	-0.000233134	-0.68419	11205.2	1723.67	1	37	0.00546437	0.0342681	0	-0.013233	0.254809	0.196302	6.35973	7.59821e-06	5.19915e-06	4.81965e-06	5.16626e-06	4.70501e-06	3.88002e-06	0.129316	0.0279405	0.585799	4.86486e-06	3.57787e-05	8.95515e-06	2.27277e-05	3.9528e-06	3.35969e-06	5.76872	2.45961	6.27119	23.092	1.72367e+06	4.04267e+06	4.39479e+06	-66.908	0.0000000E+000	0.0000000E+000	0.0000000E+000	66.908	0.0000000E+000	0.0000000E+000	0.0000000E+000	-66.908	0.0000000E+000	0.0000000E+000	0.0000000E+000	-23.092	0.0000000E+000	0.0000000E+000	0.0000000E+000	23.092	2.34538	66.908	-0.000253158
180.288	0.155657	0.0690292	0.170277	-23.9158	90.0145	-0.000188732	-0.624094	12788.5	2101.72	1	37	0.00540953	0.031769	0	-0.0135514	0.372435	0.144874	6.50216	8.8544e-06	9.09376e-06	8.8867e-06	5.39721e-06	5.63103e-06	7.91795e-06	0.130082	0.0183416	0.62737	4.82522e-06	3.261e-05	9.67727e-06	2.16407e-05	3.51335e-06	4.06471e-06	5.36857	2.38079	5.87279	23.9158	2.10172e+06	4.73926e+06	5.18438e+06	-66.0842	0.0000000E+000	0.0000000E+000	0.0000000E+000	66.0842	0.0000000E+000	0.0000000E+000	0.0000000E+000	-66.0842	0.0000000E+000	0.0000000E+000	0.0000000E+000	-23.9158	0.0000000E+000	0.0000000E+000	0.0000000E+000	23.9158	2.25495	66.0842	-0.000177178
143.122	0.166104	0.0761087	0.182711	-24.6171	92.2324	-0.000222584	-0.652998	14611	2535.25	1	37	0.00534223	0.0292387	0	-0.0139806	0.368537	0.161007	6.46549	9.13668e-06	8.0494e-06	5.93412e-06	4.46173e-06	5.42196e-06	1.00944e-05	0.152176	0.141832	0.672148	6.79118e-06	3.31936e-05	5.88619e-06	2.70797e-05	4.18092e-06	5.94169e-06	4.97569	2.27985	5.47313	24.6171	2.53525e+06	5.53308e+06	6.08625e+06	-65.3829	0.0000000E+000	0.0000000E+000	0.0000000E+000	65.3829	0.0000000E+000	0.0000000E+000	0.0000000E+000	-65.3829	0.0000000E+000	0.0000000E+000	0.0000000E+000	-24.6171	0.0000000E+000	0.0000000E+000	0.0000000E+000	24.6171	2.18246	65.3829	-0.000224696
113.654	0.178938	0.08346	0.197444	-25.0053	94.4601	-0.000223422	-0.668036	16778.6	2997.95	1	37	0.00528793	0.0267819	0	-0.0143687	0.374972	0.17118	6.6048	3.88098e-06	1.24347e-05	7.21277e-06	6.75979e-06	6.24715e-06	6.37896e-06	0.175358	0.0357852	0.746053	8.33514e-06	3.59272e-05	6.69895e-06	2.67983e-05	6.45001e-06	4.57919e-06	4.59	2.14086	5.06472	25.0053	2.99795e+06	6.42758e+06	7.09235e+06	-64.9947	0.0000000E+000	0.0000000E+000	0.0000000E+000	64.9947	0.0000000E+000	0.0000000E+000	0.0000000E+000	-64.9947	0.0000000E+000	0.0000000E+000	0.0000000E+000	-25.0053	0.0000000E+000	0.0000000E+000	0.0000000E+000	25.0053	2.14399	64.9947	-0.000215307
90.2601	0.193863	0.089892	0.21369	-24.8766	96.6662	-0.000225156	-0.684469	19615.7	3471.19	1	37	0.00523148	0.0244816	0	-0.0147696	0.314624	0.121318	6.64394	5.82256e-06	4.11037e-06	7.25079e-06	6.54334e-06	8.04761e-06	6.87577e-06	0.191322	0.0261227	0.816096	8.37723e-06	3.10567e-05	4.01561e-06	3.19133e-05	5.35076e-06	7.47595e-06	4.24548	1.96858	4.67968	24.8766	3.47119e+06	7.48602e+06	8.25165e+06	-65.1234	0.0000000E+000	0.0000000E+000	0.0000000E+000	65.1234	0.0000000E+000	0.0000000E+000	0.0000000E+000	-65.1234	0.0000000E+000	0.0000000E+000	0.0000000E+000	-24.8766	0.0000000E+000	0.0000000E+000	0.0000000E+000	24.8766	2.15662	65.1234	-0.000209249
71.6276	0.211027	0.0947559	0.231325	-24.1811	98.8672	-0.000224727	-0.673321	23449.5	3934.6	1	37	0.00518524	0.0224154	0	-0.0152209	0.315769	0.139317	6.77876	7.44159e-06	5.47921e-06	3.90593e-06	7.49689e-06	3.92103e-06	8.53913e-06	0.199339	0.0369945	0.900263	1.08499e-05	2.98658e-05	7.38136e-06	2.9418e-05	4.89814e-06	3.19202e-06	3.94361	1.77077	4.32292	24.1811	3.9346e+06	8.76261e+06	9.60543e+06	-65.8189	0.0000000E+000	0.0000000E+000	0.0000000E+000	65.8189	0.0000000E+000	0.0000000E+000	0.0000000E+000	-65.8189	0.0000000E+000	0.0000000E+000	0.0000000E+000	-24.1811	0.0000000E+000	0.0000000E+000	0.0000000E+000	24.1811	2.22706	65.8189	-0.000227159
56.8746	0.230283	0.0976145	0.250117	-22.9716	101.075	-0.00021345	-0.661354	28667.3	4366.45	1	37	0.00515841	0.020624	0	-0.0156201	0.358763	0.170136	6.9261	6.77389e-06	6.76132e-06	1.14397e-05	4.39807e-06	4.24788e-06	5.53404e-06	0.189768	0.0989268	0.972033	7.27582e-06	2.51714e-05	4.23982e-06	2.75352e-05	5.10977e-06	1.93824e-06	3.68107	1.56037	3.99812	22.9716	4.36645e+06	1.03009e+07	1.11881e+07	-67.0284	0.0000000E+000	0.0000000E+000	0.0000000E+000	67.0284	0.0000000E+000	0.0000000E+000	0.0000000E+000	-67.0284	0.0000000E+000	0.0000000E+000	0.0000000E+000	-22.9716	0.0000000E+000	0.0000000E+000	0.0000000E+000	22.9716	2.3591	67.0284	-0.00019182
45.1589	0.249879	0.0974967	0.268226	-21.3146	103.284	-0.00021865	-0.662359	36148.2	4776.02	1	37	0.00513585	0.0191475	0	-0.0159938	0.325298	0.158639	6.82285	5.02574e-06	4.56994e-06	6.11741e-06	5.70191e-06	6.46238e-06	8.55508e-06	0.191132	0.132272	1.05028	8.38689e-06	2.3215e-05	5.07055e-06	2.53193e-05	3.12103e-06	4.08153e-06	3.47319	1.35516	3.72821	21.3146	4.77602e+06	1.22407e+07	1.31394e+07	-68.6854	0.0000000E+000	0.0000000E+000	0.0000000E+000	68.6854	0.0000000E+000	0.0000000E+000	0.0000000E+000	-68.6854	0.0000000E+000	0.0000000E+000	0.0000000E+000	-21.3146	0.0000000E+000	0.0000000E+000	0.0000000E+000	21.3146	2.56294	68.6854	-0.000188026
35.8607	0.269044	0.0943019	0.285092	-19.316	105.484	-0.000207149	-0.648605	47063.2	5149.35	1	37	0.00511942	0.0179571	0	-0.0164011	0.302056	0.15813	6.98788	6.21668e-06	8.05701e-06	6.03216e-06	5.16667e-06	5.47306e-06	4.28901e-06	0.175975	0.0473525	1.1063	5.10707e-06	1.37455e-05	4.57866e-06	2.15819e-05	3.29716e-06	1.58207e-05	3.31019	1.16025	3.50764	19.316	5.14935e+06	1.46911e+07	1.55674e+07	-70.684	0.0000000E+000	0.0000000E+000	0.0000000E+000	70.684	0.0000000E+000	0.0000000E+000	0.0000000E+000	-70.684	0.0000000E+000	0.0000000E+000	0.0000000E+000	-19.316	0.0000000E+000	0.0000000E+000	0.0000000E+000	19.316	2.853	70.684	-0.000184715
28.4608	0.28625	0.0883826	0.299583	-17.1586	107.7	-0.00021729	-0.664407	63271.1	5506.85	1	37	0.00510037	0.0170249	0	-0.01684	0.301419	0.166291	6.87431	7.90726e-06	5.46011e-06	6.96515e-06	1.82668e-06	5.31495e-06	5.77635e-06	0.196872	0.0518118	1.18147	8.1576e-06	1.88164e-05	3.02856e-06	2.38676e-05	5.50739e-06	5.85029e-06	3.1894	0.984762	3.33797	17.1586	5.50685e+06	1.78353e+07	1.86661e+07	-72.8414	0.0000000E+000	0.0000000E+000	0.0000000E+000	72.8414	0.0000000E+000	0.0000000E+000	0.0000000E+000	-72.8414	0.0000000E+000	0.0000000E+000	0.0000000E+000	-17.1586	0.0000000E+000	0.0000000E+000	0.0000000E+000	17.1586	3.23875	72.8414	-0.00020558
22.6056	0.301695	0.0808671	0.312345	-15.005	109.958	-0.00022702	-0.6732	87062.8	5835.9	1	37	0.00509589	0.016315	0	-0.0172867	0.255802	0.0975008	4.59961	4.50362e-06	4.46028e-06	2.5177e-06	5.87147e-06	4.97718e-06	5.5171e-06	0.165598	0.0437295	0.932395	1.0274e-05	1.30259e-05	3.8335e-06	1.95963e-05	3.28489e-06	5.24536e-06	3.09243	0.828902	3.20159	15.005	5.8359e+06	2.17723e+07	2.25408e+07	-74.995	0.0000000E+000	0.0000000E+000	0.0000000E+000	74.995	0.0000000E+000	0.0000000E+000	0.0000000E+000	-74.995	0.0000000E+000	0.0000000E+000	0.0000000E+000	-15.005	0.0000000E+000	0.0000000E+000	0.0000000E+000	15.005	3.73075	74.995	-0.00021141
17.9391	0.314494	0.0722259	0.322681	-12.9341	112.226	-0.000214587	-0.657018	122836	6154.11	1	37	0.00508913	0.0157714	0	-0.0176598	0.246694	0.105531	4.65921	3.82708e-06	6.2524e-06	2.00036e-06	4.98554e-06	7.03352e-06	2.80461e-06	0.160721	0.0529688	0.967953	7.38988e-06	1.38826e-05	5.18027e-06	1.83938e-05	2.398e-06	3.55621e-06	3.02041	0.69366	3.09904	12.9341	6.15411e+06	2.67969e+07	2.74945e+07	-77.0659	0.0000000E+000	0.0000000E+000	0.0000000E+000	77.0659	0.0000000E+000	0.0000000E+000	0.0000000E+000	-77.0659	0.0000000E+000	0.0000000E+000	0.0000000E+000	-12.9341	0.0000000E+000	0.0000000E+000	0.0000000E+000	12.9341	4.35431	77.0659	-0.000160567
14.2477	0.324621	0.0632311	0.330722	-11.0223	114.433	-0.000208174	-0.630683	176662	6457.72	1	37	0.00508536	0.0153765	0	-0.0180967	0.336752	0.199417	6.7497	4.06348e-06	8.23469e-06	7.10524e-06	7.33695e-06	6.61246e-06	6.34288e-06	0.174478	0.0414434	1.28937	5.80018e-06	1.43326e-05	8.19943e-06	1.80919e-05	3.61376e-06	6.55637e-06	2.96791	0.578103	3.02369	11.0223	6.45772e+06	3.31532e+07	3.37762e+07	-78.9777	0.0000000E+000	0.0000000E+000	0.0000000E+000	78.9777	0.0000000E+000	0.0000000E+000	0.0000000E+000	-78.9777	0.0000000E+000	0.0000000E+000	0.0000000E+000	-11.0223	0.0000000E+000	0.0000000E+000	0.0000000E+000	11.0223	5.13388	78.9777	-0.000205116
11.3142	0.332828	0.0545971	0.337276	-9.31584	116.677	-0.000222677	-0.64935	257647	6751.4	1	37	0.0050831	0.015071	0	-0.0185368	0.359389	0.267308	6.97638	6.88948e-06	7.03668e-06	5.83718e-06	8.10485e-06	9.76308e-06	4.80107e-06	0.160492	0.0963681	1.30373	4.13455e-06	9.81478e-06	6.71124e-06	1.89961e-05	4.26429e-06	4.94118e-06	2.92583	0.479953	2.96493	9.31584	6.7514e+06	4.1157e+07	4.17071e+07	-80.6842	0.0000000E+000	0.0000000E+000	0.0000000E+000	80.6842	0.0000000E+000	0.0000000E+000	0.0000000E+000	-80.6842	0.0000000E+000	0.0000000E+000	0.0000000E+000	-9.31584	0.0000000E+000	0.0000000E+000	0.0000000E+000	9.31584	6.09607	80.6842	-0.000232433
8.97989	0.339087	0.0467166	0.34229	-7.84436	118.927	-0.000209554	-0.624634	379384	7066.96	1	37	0.00507871	0.0148375	0	-0.0188929	0.255436	0.112481	4.65139	3.77513e-06	6.67977e-06	4.24748e-06	6.33711e-06	4.59583e-06	3.70951e-06	0.124744	0.0618936	1.0083	5.37399e-06	1.2484e-05	3.05774e-06	1.01827e-05	4.60095e-06	3.57221e-06	2.89417	0.398734	2.9215	7.84436	7.06696e+06	5.12947e+07	5.17792e+07	-82.1556	0.0000000E+000	0.0000000E+000	0.0000000E+000	82.1556	0.0000000E+000	0.0000000E+000	0.0000000E+000	-82.1556	0.0000000E+000	0.0000000E+000	0.0000000E+000	-7.84436	0.0000000E+000	0.0000000E+000	0.0000000E+000	7.84436	7.25838	82.1556	-0.000185738
7.12819	0.343656	0.0400798	0.345985	-6.65222	121.405	-0.000211492	-0.657418	557077	7475.68	1	37	0.00507967	0.0146817	0	-0.0194825	0.241713	0.223052	5.36369	4.09236e-06	3.15276e-06	6.24191e-06	3.95618e-06	6.17249e-06	3.14728e-06	0.240487	0.0717342	1.02227	7.8812e-06	1.23825e-05	4.34002e-06	1.13725e-05	3.34282e-06	2.93154e-05	2.87084	0.334819	2.8903	6.65222	7.47568e+06	6.40987e+07	6.45332e+07	-83.3478	0.0000000E+000	0.0000000E+000	0.0000000E+000	83.3478	0.0000000E+000	0.0000000E+000	0.0000000E+000	-83.3478	0.0000000E+000	0.0000000E+000	0.0000000E+000	-6.65222	0.0000000E+000	0.0000000E+000	0.0000000E+000	6.65222	8.5743	83.3478	-0.000234109
5.66123	0.347437	0.0340683	0.349103	-5.6003	124.265	-0.000211318	-0.659437	825198	7858.73	1	37	0.00507737	0.014544	0	-0.0199158	0.200366	0.133067	3.7761	4.11709e-06	5.31734e-06	3.58431e-06	3.07885e-06	4.42938e-06	2.25641e-06	0.116233	0.0858587	0.879328	5.80952e-06	1.1155e-05	2.27161e-06	1.02887e-05	2.12809e-06	1.73272e-06	2.85081	0.27954	2.86448	5.6003	7.85873e+06	8.01452e+07	8.05295e+07	-84.3997	0.0000000E+000	0.0000000E+000	0.0000000E+000	84.3997	0.0000000E+000	0.0000000E+000	0.0000000E+000	-84.3997	0.0000000E+000	0.0000000E+000	0.0000000E+000	-5.6003	0.0000000E+000	0.0000000E+000	0.0000000E+000	5.6003	10.1982	84.3997	-0.00023268
4.49511	0.350159	0.0292206	0.351376	-4.77025	127.625	-0.000211977	-0.668492	1.21169e+06	8379.63	1	37	0.00507779	0.0144511	0	-0.0206032	0.209137	0.113402	3.1599	3.43756e-06	6.55178e-06	2.65714e-06	3.81233e-06	3.15838e-06	3.55905e-06	0.128186	0.0745507	0.804022	6.98039e-06	1.31055e-05	2.24629e-06	8.88161e-06	3.78155e-06	3.10613e-06	2.8361	0.236671	2.84595	4.77025	8.37962e+06	1.00416e+08	1.00765e+08	-85.2298	0.0000000E+000	0.0000000E+000	0.0000000E+000	85.2298	0.0000000E+000	0.0000000E+000	0.0000000E+000	-85.2298	0.0000000E+000	0.0000000E+000	0.0000000E+000	-4.77025	0.0000000E+000	0.0000000E+000	0.0000000E+000	4.77025	11.9833	85.2298	-0.000455894
3.56735	0.352617	0.0248648	0.353492	-4.03354	131.628	-0.000216473	-0.66055	1.79427e+06	8877.69	1	37	0.00507934	0.014369	0	-0.0211914	0.178818	0.0948993	2.79946	2.97076e-06	4.86341e-06	3.556e-06	2.29137e-06	2.43801e-06	4.72087e-06	0.130939	0.0732548	0.753915	6.14478e-06	1.37208e-05	1.8494e-06	9.76472e-06	2.41421e-06	3.72703e-06	2.82191	0.198987	2.82892	4.03354	8.87769e+06	1.25898e+08	1.2621e+08	-85.9665	0.0000000E+000	0.0000000E+000	0.0000000E+000	85.9665	0.0000000E+000	0.0000000E+000	0.0000000E+000	-85.9665	0.0000000E+000	0.0000000E+000	0.0000000E+000	-4.03354	0.0000000E+000	0.0000000E+000	0.0000000E+000	4.03354	14.1813	85.9665	-0.000148558
2.83369	0.35424	0.0217975	0.35491	-3.52114	136.456	-0.000216012	-0.669773	2.57669e+06	9719.34	1	37	0.00507645	0.0143035	0	-0.0222864	0.16189	0.0979698	2.51972	1.27055e-06	4.04828e-06	2.82306e-06	4.51966e-06	3.00713e-06	2.79483e-06	0.120297	0.049029	0.7123	5.71808e-06	1.30199e-05	1.9071e-06	8.58411e-06	2.91376e-06	1.87989e-06	2.8123	0.173049	2.81762	3.52114	9.71933e+06	1.57953e+08	1.58252e+08	-86.4789	0.0000000E+000	0.0000000E+000	0.0000000E+000	86.4789	0.0000000E+000	0.0000000E+000	0.0000000E+000	-86.4789	0.0000000E+000	0.0000000E+000	0.0000000E+000	-3.52114	0.0000000E+000	0.0000000E+000	0.0000000E+000	3.52114	16.2514	86.4789	-0.000665507
2.25014	0.355671	0.019103	0.356184	-3.07439	142.327	-0.000220542	-0.687208	3.70261e+06	10650.3	1	37	0.00507616	0.0142515	0	-0.0233335	0.120497	0.091792	2.18052	2.23369e-06	3.17927e-06	2.66007e-06	2.40085e-06	1.09027e-06	2.18219e-06	0.104146	0.0627341	0.666066	4.10057e-06	1.09237e-05	1.67966e-06	8.69811e-06	1.4995e-06	9.39109e-07	2.8035	0.150575	2.80754	3.07439	1.06503e+07	1.98294e+08	1.9858e+08	-86.9256	0.0000000E+000	0.0000000E+000	0.0000000E+000	86.9256	0.0000000E+000	0.0000000E+000	0.0000000E+000	-86.9256	0.0000000E+000	0.0000000E+000	0.0000000E+000	-3.07439	0.0000000E+000	0.0000000E+000	0.0000000E+000	3.07439	18.6186	86.9256	-0.000480827
1.78572	0.356891	0.0172953	0.35731	-2.77444	149.519	-0.000215369	-0.682031	5.15324e+06	12073.8	1	37	0.00507632	0.0142071	0	-0.0242126	0.134995	0.070083	1.95913	1.84704e-06	4.6517e-06	1.64197e-06	3.01911e-06	1.13246e-06	2.82508e-06	0.110121	0.0733802	0.635095	5.79509e-06	1.09719e-05	2.68544e-06	8.26916e-06	2.60898e-06	1.41742e-06	2.79541	0.135468	2.79869	2.77444	1.20738e+07	2.49146e+08	2.49438e+08	-87.2256	0.0000000E+000	0.0000000E+000	0.0000000E+000	87.2256	0.0000000E+000	0.0000000E+000	0.0000000E+000	-87.2256	0.0000000E+000	0.0000000E+000	0.0000000E+000	-2.77444	0.0000000E+000	0.0000000E+000	0.0000000E+000	2.77444	20.6352	87.2256	-0.000556953
1.41736	0.357962	0.0160825	0.358323	-2.57246	159.847	-0.00021202	-0.629711	6.98208e+06	14065.2	1	38	0.00507439	0.0141615	0	-0.0266545	0.149247	0.109167	1.75241	1.92412e-06	5.04457e-06	2.57032e-06	3.53128e-06	1.89247e-06	9.23059e-07	0.133647	0.080842	0.45691	5.41921e-06	1.1702e-05	2.40713e-06	1.28039e-05	4.24161e-06	1.09348e-06	2.78797	0.125258	2.79078	2.57246	1.40652e+07	3.1306e+08	3.13375e+08	-87.4275	0.0000000E+000	0.0000000E+000	0.0000000E+000	87.4275	0.0000000E+000	0.0000000E+000	0.0000000E+000	-87.4275	0.0000000E+000	0.0000000E+000	0.0000000E+000	-2.57246	0.0000000E+000	0.0000000E+000	0.0000000E+000	2.57246	22.2578	87.4275	-0.000995771
1.12508	0.359055	0.0153578	0.359383	-2.44921	170.816	-0.000206351	-0.615008	9.21105e+06	16821	1	38	0.00507548	0.0141228	0	-0.0287657	0.116614	0.0744751	1.50675	2.71564e-06	3.51145e-06	1.60619e-06	1.9886e-06	1.83663e-06	1.86965e-06	0.120228	0.0632523	0.447927	4.44175e-06	1.27643e-05	1.23031e-06	9.97084e-06	1.25068e-06	9.83619e-07	2.78	0.118909	2.78255	2.44921	1.6821e+07	3.93264e+08	3.93623e+08	-87.5508	0.0000000E+000	0.0000000E+000	0.0000000E+000	87.5508	0.0000000E+000	0.0000000E+000	0.0000000E+000	-87.5508	0.0000000E+000	0.0000000E+000	0.0000000E+000	-2.44921	0.0000000E+000	0.0000000E+000	0.0000000E+000	2.44921	23.3793	87.5508	-0.0016943
0.893876	0.360234	0.0152433	0.360557	-2.42302	184.419	-0.000200977	-0.592732	1.16806e+07	20877.3	1	38	0.0050753	0.0140763	0	-0.0305656	0.130632	0.109852	1.33473	1.14949e-06	5.67887e-06	1.30176e-06	2.05769e-06	1.07587e-06	1.48309e-06	0.121182	0.065975	0.443981	5.13496e-06	1.23283e-05	1.78068e-06	1.01582e-05	7.74197e-07	1.29134e-06	2.77101	0.117255	2.77349	2.42302	2.08774e+07	4.93379e+08	4.93821e+08	-87.577	0.0000000E+000	0.0000000E+000	0.0000000E+000	87.577	0.0000000E+000	0.0000000E+000	0.0000000E+000	-87.577	0.0000000E+000	0.0000000E+000	0.0000000E+000	-2.42302	0.0000000E+000	0.0000000E+000	0.0000000E+000	2.42302	23.6323	87.577	-0.00143148
0.709519	0.361507	0.0154318	0.361837	-2.44432	201.332	-0.000192023	-0.585029	1.45358e+07	26439.2	1	38	0.00507767	0.014033	0	-0.032565	0.11751	0.0737536	1.18353	1.48027e-06	4.55009e-06	1.87705e-06	1.89147e-06	1.29836e-06	1.27351e-06	0.114155	0.0734433	0.451308	6.24223e-06	9.90951e-06	3.19056e-06	9.22725e-06	3.27998e-06	1.58343e-06	2.76116	0.117867	2.76368	2.44432	2.64392e+07	6.19367e+08	6.19932e+08	-87.5557	0.0000000E+000	0.0000000E+000	0.0000000E+000	87.5557	0.0000000E+000	0.0000000E+000	0.0000000E+000	-87.5557	0.0000000E+000	0.0000000E+000	0.0000000E+000	-2.44432	0.0000000E+000	0.0000000E+000	0.0000000E+000	2.44432	23.4261	87.5557	5.71017e-06
0.563185	0.362294	0.0162826	0.362659	-2.57332	222.467	-0.000193941	-0.573506	1.73558e+07	34986.1	1	38	0.00507551	0.0139953	0	-0.0378599	0.120531	0.0594685	1.05942	2.00361e-06	4.19529e-06	1.24458e-06	3.05736e-06	1.38858e-06	1.13272e-06	0.126936	0.0751054	0.448644	4.46805e-06	1.18515e-05	2.68969e-06	1.04675e-05	3.94892e-06	2.45523e-06	2.75463	0.123802	2.75741	2.57332	3.49861e+07	7.78453e+08	7.79238e+08	-87.4267	0.0000000E+000	0.0000000E+000	0.0000000E+000	87.4267	0.0000000E+000	0.0000000E+000	0.0000000E+000	-87.4267	0.0000000E+000	0.0000000E+000	0.0000000E+000	-2.57332	0.0000000E+000	0.0000000E+000	0.0000000E+000	2.57332	22.2504	87.4267	-0.00283387
0.447298	0.363549	0.0185457	0.364022	-2.92029	248.923	-0.000198096	-0.6045	1.91858e+07	49797.8	1	38	0.00507368	0.0139378	0	-0.0399427	0.132104	0.0782444	0.948219	1.78419e-06	4.80938e-06	2.17942e-06	2.67344e-06	1.29398e-06	8.61706e-07	0.124755	0.0825747	0.448972	5.35557e-06	1.16413e-05	3.82966e-06	1.02494e-05	1.66247e-06	2.02469e-06	2.74352	0.139955	2.74709	2.92029	4.97979e+07	9.76183e+08	9.77452e+08	-87.0797	0.0000000E+000	0.0000000E+000	0.0000000E+000	87.0797	0.0000000E+000	0.0000000E+000	0.0000000E+000	-87.0797	0.0000000E+000	0.0000000E+000	0.0000000E+000	-2.92029	0.0000000E+000	0.0000000E+000	0.0000000E+000	2.92029	19.6029	87.0797	-0.00169879
0.355178	0.366266	0.0214434	0.366893	-3.3506	282.061	-0.000196139	-0.598383	2.08969e+07	71381.7	1	38	0.00507646	0.0138363	0	-0.0482544	0.110762	0.0920396	0.85455	1.60648e-06	4.6449e-06	9.33885e-07	1.62744e-06	1.32203e-06	1.08479e-06	0.120197	0.0959566	0.441878	4.87127e-06	1.17332e-05	2.30625e-06	9.6809e-06	2.29511e-06	1.58351e-06	2.72093	0.159299	2.72559	3.3506	7.13817e+07	1.21925e+09	1.22133e+09	-86.6494	0.0000000E+000	0.0000000E+000	0.0000000E+000	86.6494	0.0000000E+000	0.0000000E+000	0.0000000E+000	-86.6494	0.0000000E+000	0.0000000E+000	0.0000000E+000	-3.3506	0.0000000E+000	0.0000000E+000	0.0000000E+000	3.3506	17.0806	86.6494	-0.00380134
0.281811	0.370875	0.0240762	0.371655	-3.71428	323.646	-0.000200751	-0.608982	2.34571e+07	98439.6	1	38	0.00507464	0.0136542	0	-0.0516158	0.101848	0.0971465	0.76752	1.92274e-06	3.38284e-06	1.20481e-06	2.0596e-06	1.12758e-06	6.03056e-07	0.123991	0.0905435	0.429433	6.6622e-06	9.48543e-06	4.27276e-06	9.94621e-06	3.41197e-06	2.18662e-06	2.68501	0.174304	2.69067	3.71428	9.84396e+07	1.51638e+09	1.51958e+09	-86.2857	0.0000000E+000	0.0000000E+000	0.0000000E+000	86.2857	0.0000000E+000	0.0000000E+000	0.0000000E+000	-86.2857	0.0000000E+000	0.0000000E+000	0.0000000E+000	-3.71428	0.0000000E+000	0.0000000E+000	0.0000000E+000	3.71428	15.4042	86.2857	-0.00186435
0.223912	0.376381	0.0253502	0.377234	-3.8532	375.849	-0.000204903	-0.628751	2.80389e+07	126621	1	38	0.00507474	0.0134525	0	-0.0641483	0.0887372	0.0570582	0.669734	1.10837e-06	3.35456e-06	7.45337e-07	2.01745e-06	1.11076e-06	8.18831e-07	0.137944	0.0826681	0.399372	5.26045e-06	1.216e-05	2.3829e-06	1.02629e-05	6.51493e-06	2.87828e-06	2.64488	0.17814	2.65088	3.8532	1.2662e+08	1.87997e+09	1.88423e+09	-86.1468	0.0000000E+000	0.0000000E+000	0.0000000E+000	86.1468	0.0000000E+000	0.0000000E+000	0.0000000E+000	-86.1468	0.0000000E+000	0.0000000E+000	0.0000000E+000	-3.8532	0.0000000E+000	0.0000000E+000	0.0000000E+000	3.8532	14.8472	86.1468	-0.00754123
0.177799	0.381887	0.0253431	0.382727	-3.79674	441.418	-0.000219977	-0.632255	3.53209e+07	154872	1	38	0.00507526	0.0132608	0	-0.0752726	0.108737	0.069436	0.599935	1.0536e-06	4.5827e-06	7.11549e-07	2.32349e-06	9.25985e-07	6.32161e-07	0.128908	0.0519546	0.402406	3.04263e-06	1.24163e-05	1.59214e-06	1.0349e-05	2.87449e-06	2.61864e-06	2.6071	0.173014	2.61283	3.79674	1.54872e+08	2.33371e+09	2.33885e+09	-86.2033	0.0000000E+000	0.0000000E+000	0.0000000E+000	86.2033	0.0000000E+000	0.0000000E+000	0.0000000E+000	-86.2033	0.0000000E+000	0.0000000E+000	0.0000000E+000	-3.79674	0.0000000E+000	0.0000000E+000	0.0000000E+000	3.79674	15.0687	86.2033	-0.00438518
0.141153	0.386638	0.0241245	0.38739	-3.57037	523.846	-0.000229104	-0.666216	4.67381e+07	181255	1	38	0.00507568	0.0131023	0	-0.0847066	0.0902832	0.0685249	0.527165	1.23392e-06	3.55901e-06	1.18678e-06	1.89526e-06	7.40373e-07	4.09064e-07	0.114597	0.0586074	0.354587	2.30534e-06	1.02315e-05	2.81589e-06	9.8537e-06	1.75137e-06	1.44019e-06	2.57637	0.160754	2.58138	3.57037	1.81255e+08	2.90494e+09	2.91059e+09	-86.4296	0.0000000E+000	0.0000000E+000	0.0000000E+000	86.4296	0.0000000E+000	0.0000000E+000	0.0000000E+000	-86.4296	0.0000000E+000	0.0000000E+000	0.0000000E+000	-3.57037	0.0000000E+000	0.0000000E+000	0.0000000E+000	3.57037	16.0268	86.4296	-0.0058424
0.112067	0.391471	0.0225049	0.392117	-3.2902	627.498	-0.000220057	-0.614279	6.31053e+07	207867	1	38	0.005074	0.01294	0	-0.10871	0.103906	0.0821322	0.482936	1.69005e-06	4.03899e-06	1.01953e-06	2.2103e-06	9.43654e-07	7.66153e-07	0.128699	0.0844622	0.338702	5.24807e-06	1.13538e-05	2.19226e-06	9.85603e-06	9.33108e-07	2.26016e-06	2.54605	0.146367	2.55026	3.2902	2.07868e+08	3.61584e+09	3.62181e+09	-86.7098	0.0000000E+000	0.0000000E+000	0.0000000E+000	86.7098	0.0000000E+000	0.0000000E+000	0.0000000E+000	-86.7098	0.0000000E+000	0.0000000E+000	0.0000000E+000	-3.2902	0.0000000E+000	0.0000000E+000	0.0000000E+000	3.2902	17.3949	86.7098	-0.0137466
0.0888996	0.393955	0.0205638	0.394491	-2.98804	757.97	-0.000243845	-0.660098	8.70596e+07	236565	1	38	0.00507567	0.0128664	0	-0.136493	0.101053	0.100075	0.421104	1.21279e-06	4.20579e-06	1.31885e-06	1.86917e-06	4.48437e-07	7.79943e-07	0.121077	0.0737419	0.282996	4.78373e-06	1.05361e-05	2.37374e-06	9.55153e-06	1.23263e-06	1.08352e-06	2.53147	0.132139	2.53491	2.98804	2.36565e+08	4.53203e+09	4.5382e+09	-87.012	0.0000000E+000	0.0000000E+000	0.0000000E+000	87.012	0.0000000E+000	0.0000000E+000	0.0000000E+000	-87.012	0.0000000E+000	0.0000000E+000	0.0000000E+000	-2.98804	0.0000000E+000	0.0000000E+000	0.0000000E+000	2.98804	19.1577	87.012	-0.0133882
0.0705771	0.398078	0.0198405	0.398572	-2.85331	922.197	-0.000241051	-0.632992	1.13659e+08	281641	1	38	0.00507275	0.0127273	0	-0.155867	0.0893032	0.0815383	0.39129	1.19796e-06	3.29262e-06	1.12803e-06	1.93825e-06	3.43206e-07	7.67655e-07	0.130581	0.0742513	0.28052	2.85925e-06	1.03965e-05	3.16367e-06	1.11801e-05	1.06113e-06	1.70107e-06	2.50585	0.124894	2.50896	2.85331	2.81641e+08	5.65081e+09	5.65783e+09	-87.1467	0.0000000E+000	0.0000000E+000	0.0000000E+000	87.1467	0.0000000E+000	0.0000000E+000	0.0000000E+000	-87.1467	0.0000000E+000	0.0000000E+000	0.0000000E+000	-2.85331	0.0000000E+000	0.0000000E+000	0.0000000E+000	2.85331	20.0639	87.1467	-0.0090052
0.0560337	0.4009	0.0159928	0.401219	-2.28445	1128.88	-0.000217385	-0.644281	1.77601e+08	282185	1	38	0.00507378	0.0126459	0	-0.18622	0.0993869	0.0977158	0.358133	2.79e-06	3.3958e-06	9.46792e-07	1.73407e-06	5.56428e-07	5.87667e-07	0.128149	0.128327	0.285991	6.71511e-06	9.39353e-06	3.08266e-06	1.0099e-05	2.50787e-06	1.96166e-06	2.49042	0.0993488	2.4924	2.28445	2.82185e+08	7.07366e+09	7.07928e+09	-87.7155	0.0000000E+000	0.0000000E+000	0.0000000E+000	87.7155	0.0000000E+000	0.0000000E+000	0.0000000E+000	-87.7155	0.0000000E+000	0.0000000E+000	0.0000000E+000	-2.28445	0.0000000E+000	0.0000000E+000	0.0000000E+000	2.28445	25.0675	87.7155	-0.0191279
0.0445025	0.400709	0.0146228	0.400976	-2.08992	1388.93	-0.000213683	-0.61075	2.44572e+08	325258	1	38	0.00507279	0.0126511	0	-0.24652	0.108473	0.0784154	0.334256	1.63359e-06	4.01974e-06	1.47705e-06	2.1697e-06	8.73817e-07	1.20504e-06	0.129525	0.131674	0.268259	7.20803e-06	8.67837e-06	3.24184e-06	9.80391e-06	2.36626e-06	2.20722e-06	2.49226	0.0909479	2.49392	2.08992	3.25258e+08	8.9131e+09	8.91903e+09	-87.9101	0.0000000E+000	0.0000000E+000	0.0000000E+000	87.9101	0.0000000E+000	0.0000000E+000	0.0000000E+000	-87.9101	0.0000000E+000	0.0000000E+000	0.0000000E+000	-2.08992	0.0000000E+000	0.0000000E+000	0.0000000E+000	2.08992	27.4031	87.9101	-0.0333011
0.0353467	0.402636	0.0156656	0.402941	-2.22812	1716.32	-0.000207645	-0.601808	2.87425e+08	434447	1	38	0.00507324	0.0125905	0	-0.306716	0.107815	0.119957	0.300335	1.81793e-06	4.41481e-06	1.23262e-06	1.57928e-06	7.5352e-07	7.94042e-07	0.126835	0.144345	0.229686	3.98274e-06	1.09842e-05	3.43292e-06	9.70178e-06	1.66741e-06	2.07055e-06	2.47988	0.0964863	2.48176	2.22812	4.34447e+08	1.11661e+10	1.11746e+10	-87.7719	0.0000000E+000	0.0000000E+000	0.0000000E+000	87.7719	0.0000000E+000	0.0000000E+000	0.0000000E+000	-87.7719	0.0000000E+000	0.0000000E+000	0.0000000E+000	-2.22812	0.0000000E+000	0.0000000E+000	0.0000000E+000	2.22812	25.7019	87.7719	-0.0282921
0.0280409	0.406354	0.0158724	0.406664	-2.23686	2128.51	-0.000223011	-0.629224	3.57591e+08	544753	1	38	0.00507519	0.0124801	0	-0.356339	0.124028	0.150006	0.274611	1.91892e-06	4.8134e-06	1.79992e-06	2.6398e-06	7.53842e-07	8.98636e-07	0.146118	0.155953	0.221536	8.16072e-06	9.93689e-06	4.1054e-06	1.10306e-05	1.14945e-06	3.15062e-06	2.45716	0.0959778	2.45903	2.23686	5.44753e+08	1.39464e+10	1.3957e+10	-87.7631	0.0000000E+000	0.0000000E+000	0.0000000E+000	87.7631	0.0000000E+000	0.0000000E+000	0.0000000E+000	-87.7631	0.0000000E+000	0.0000000E+000	0.0000000E+000	-2.23686	0.0000000E+000	0.0000000E+000	0.0000000E+000	2.23686	25.6013	87.7631	-0.0241519
920001	-0.129859	-0.12693	0.181589	135.653	2374.68	-0.000116294	-0.719292	-1.36291	-0.665912	2	37	0.000540191	0.0029748	0	-0.000470602	-1	-1	-1	0	0	0	0	0	0	-1	-1	-1	0	0	0	0	0	0	-3.93815	-3.84933	5.50694	-135.653	-665.912	-681.278	952.669	134.347	0.0000000E+000	0.0000000E+000	0.0000000E+000	-134.347	0.0000000E+000	0.0000000E+000	0.0000000E+000	134.347	0.0000000E+000	0.0000000E+000	0.0000000E+000	135.653	0.0000000E+000	0.0000000E+000	0.0000000E+000	-135.653	1.02307	45.6535	0.386885
730432	-0.0500607	-0.0494324	0.0703536	135.362	2376.98	-0.000105184	-0.55862	-4.40787	-2.1761	2	37	0.000357836	0.00508624	0	-0.000856058	-1	-1	-1	0	0	0	0	0	0	-1	-1	-1	0	0	0	0	0	0	-10.114	-9.98707	14.2139	-135.362	-2176.1	-2203.76	3097.09	134.638	0.0000000E+000	0.0000000E+000	0.0000000E+000	-134.638	0.0000000E+000	0.0000000E+000	0.0000000E+000	134.638	0.0000000E+000	0.0000000E+000	0.0000000E+000	135.362	0.0000000E+000	0.0000000E+000	0.0000000E+000	-135.362	1.01271	45.3618	-0.000179762
579916	0.00157272	-0.0192307	0.0192949	85.3246	2379.27	-0.000116257	-0.480416	-14.2712	-14.1764	2	37	0.000189608	0.00982685	0	-0.00118294	-1	-1	-1	0	0	0	0	0	0	-1	-1	-1	0	0	0	0	0	0	4.22442	-51.6547	51.8272	-85.3246	-14176.4	1159.37	14223.7	-175.325	0.0000000E+000	0.0000000E+000	0.0000000E+000	175.325	0.0000000E+000	0.0000000E+000	0.0000000E+000	-175.325	0.0000000E+000	0.0000000E+000	0.0000000E+000	85.3246	0.0000000E+000	0.0000000E+000	0.0000000E+000	-85.3246	0.081782	4.67535	-0.000166674
460427	0.0283232	-0.00850297	0.029572	16.7104	2381.56	-0.000104569	-0.414401	-40.6526	-3.36101	2	37	0.000303969	0.010279	0	-0.00147974	-1	-1	-1	0	0	0	0	0	0	-1	-1	-1	0	0	0	0	0	0	32.3878	-9.72322	33.8158	-16.7104	-3361.01	11195.4	11689	-106.71	0.0000000E+000	0.0000000E+000	0.0000000E+000	106.71	0.0000000E+000	0.0000000E+000	0.0000000E+000	-106.71	0.0000000E+000	0.0000000E+000	0.0000000E+000	16.7104	0.0000000E+000	0.0000000E+000	0.0000000E+000	-16.7104	3.33097	73.2896	-0.000140305