File: Python/Experiments/IRFB/240515-Paper-1p5M_FeCl2FeCl3-1M_HCl/Data/240515-EIS-Paper-1p5M_FeCl2FeCl3-1M_HCl-Wamup_10mLmin-4xFlowRate-20mHz_10ppd_07_PEIS_C15.mpt
EC-Lab ASCII FILE
Nb header lines : 75

Potentio Electrochemical Impedance Spectroscopy

Run on channel : 15 (SN 19485)
User :
Electrode connection : standard
Potential control : Ewe
Ewe ctrl range : min = -1.00 V, max = 1.00 V
Ewe,I filtering : 50 kHz
Safety Limits :
	Do not start on E overload
Channel : Grounded
Acquisition started on : 05/15/2024 11:35:32.904
Loaded Setting File :  C:\Data\mathias\IRFB\240507-EIS-Cloth-1p5M_FeCl2FeCl3-1M_HCl-Wamup_10mLmin-4xFlowRate-20mHz_10ppd.mps
Saved on :
	File : 240515-EIS-Paper-1p5M_FeCl2FeCl3-1M_HCl-Wamup_10mLmin-4xFlowRate-20mHz_10ppd_07_PEIS_C15.mpr
	Directory : C:\Data\mathias\IRFB\
	Host : 192.168.0.1
Device : VMP-300 (SN 0826)
Address : USB
EC-Lab for windows v11.52 (software)
Internet server v11.52 (firmware)
Command interpretor v11.52 (firmware)
Electrode material :
Initial state :
Electrolyte :
Comments :
Cable : special
Electrode surface area : 0.001 cm²
Characteristic mass : 0.001 g
Equivalent Weight : 0.000 g/eq.
Density : 0.000 g/cm3
Volume (V) : 0.001 cm³
Record EIS quality indicators
Cycle Definition : Charge/Discharge alternance
External device configuration :
   device type : Other
   device name : Other
   Analog OUT :
      mode : E/V
      unit : KNF Pump/ml/min
      max : 120.000 at 5.000 V
      min : 0.000 at 0.000 V
      current : 3.400
Mode                Single sine
E (V)               0.0000
vs.                 Eoc
tE (h:m:s)          0:00:0.0000
record              0
dI                  0.000
unit dI             mA
dt (s)              0.000
fi                  220.000
unit fi             kHz
ff                  20.000
unit ff             mHz
Nd                  10
Points              per decade
spacing             Logarithmic
Va (mV)             5.0
pw                  0.10
Na                  3
corr                0
E range min (V)     -1.000
E range max (V)     1.000
I Range             Auto
Bandwidth           8
nc cycles           2
goto Ns'            0
nr cycles           0
inc. cycle          0

freq/Hz	Re(Z)/Ohm	-Im(Z)/Ohm	|Z|/Ohm	Phase(Z)/deg	time/s	<Ewe>/V	<I>/mA	Cs/µF	Cp/µF	cycle number	I Range	|Ewe|/V	|I|/A	Ns	(Q-Qo)/mA.h	Analog OUT/V	THD Ewe/%	NSD Ewe/%	NSR Ewe/%	|Ewe h2|/V	|Ewe h3|/V	|Ewe h4|/V	|Ewe h5|/V	|Ewe h6|/V	|Ewe h7|/V	THD I/%	NSD I/%	NSR I/%	|I h2|/A	|I h3|/A	|I h4|/A	|I h5|/A	|I h6|/A	|I h7|/A	Re(Y)/Ohm-1	Im(Y)/Ohm-1	|Y|/Ohm-1	Phase(Y)/deg	Re(C)/nF	Im(C)/nF	|C|/nF	Phase(C)/deg	Re(M)	Im(M)	|M|	Phase(M)/deg	Re(Permittivity)	Im(Permittivity)	|Permittivity|	Phase(Permittivity)/deg	Re(Resistivity)/Ohm.cm	Im(Resistivity)/Ohm.cm	|Resistivity|/Ohm.cm	Phase(Resistivity)/deg	Re(Conductivity)/mS/cm	Im(Conductivity)/mS/cm	|Conductivity|/mS/cm	Phase(Conductivity)/deg	Tan(Delta)	Loss Angle(Delta)/deg	dq/mA.h
220003	0.0955343	-0.0120191	0.0962874	7.17068	103741	-0.00109262	-7.51004	-60.1893	-0.937835	1	37	0.00338364	0.0351411	0	-0.00340911	7	-1	-1	-1	0	0	0	0	0	0	-1	-1	-1	0	0	0	0	0	0	10.3043	-1.29639	10.3856	-7.17068	-937.835	7454.4	7513.17	-97.1707	0.0000000E+000	0.0000000E+000	0.0000000E+000	97.1707	0.0000000E+000	0.0000000E+000	0.0000000E+000	-97.1707	0.0000000E+000	0.0000000E+000	0.0000000E+000	7.17068	0.0000000E+000	0.0000000E+000	0.0000000E+000	-7.17068	7.94852	82.8293	-0.00340911
109811	0.0991219	-0.00627807	0.0993205	3.6241	103744	-0.00107752	-7.2252	-230.859	-0.922407	1	37	0.00523599	0.0527181	0	-0.0101271	7	-1	-1	-1	0	0	0	0	0	0	-1	-1	-1	0	0	0	0	0	0	10.0483	-0.636427	10.0684	-3.6241	-922.408	14563.5	14592.7	-93.6241	0.0000000E+000	0.0000000E+000	0.0000000E+000	93.6241	0.0000000E+000	0.0000000E+000	0.0000000E+000	-93.6241	0.0000000E+000	0.0000000E+000	0.0000000E+000	3.6241	0.0000000E+000	0.0000000E+000	0.0000000E+000	-3.6241	15.7886	86.3759	-0.00236065
54808.1	0.0994307	-0.00333324	0.0994866	1.92002	103747	-0.00108641	-7.28574	-871.181	-0.977941	1	37	0.00519243	0.0521922	0	-0.0170172	7	0.322573	0.136781	5.46895	4.15299e-06	7.03486e-06	6.51956e-06	5.6044e-06	5.99062e-06	6.96509e-06	0.1163	0.0486172	0.413015	1.173e-05	5.88797e-05	3.04712e-06	5.98073e-06	3.12049e-06	3.17737e-06	10.046	-0.336773	10.0516	-1.92002	-977.941	29172	29188.4	-91.92	0.0000000E+000	0.0000000E+000	0.0000000E+000	91.92	0.0000000E+000	0.0000000E+000	0.0000000E+000	-91.92	0.0000000E+000	0.0000000E+000	0.0000000E+000	1.92002	0.0000000E+000	0.0000000E+000	0.0000000E+000	-1.92002	29.83	88.08	-0.00223587
27362.3	0.0993383	-0.00117253	0.0993452	0.676254	103751	-0.00110133	-7.26037	-4960.71	-0.691031	1	37	0.0051709	0.0520498	0	-0.0239893	7	0.342259	0.135135	5.47113	5.43808e-06	1.13784e-05	7.38819e-06	4.5967e-06	5.04809e-06	6.26978e-06	0.113848	0.0346854	0.414547	8.84271e-06	5.67768e-05	2.17431e-06	1.19799e-05	3.35455e-06	4.95316e-06	10.0652	-0.118804	10.0659	-0.676254	-691.031	58545.1	58549.1	-90.6763	0.0000000E+000	0.0000000E+000	0.0000000E+000	90.6763	0.0000000E+000	0.0000000E+000	0.0000000E+000	-90.6763	0.0000000E+000	0.0000000E+000	0.0000000E+000	0.676254	0.0000000E+000	0.0000000E+000	0.0000000E+000	-0.676254	84.7213	89.3237	-0.00237945
13658	0.099768	0.000359404	0.0997687	-0.206401	103754	-0.00110375	-7.30748	32422.9	0.420754	1	37	0.00515163	0.0516358	0	-0.0310184	7	0.299605	0.174371	5.49605	4.87186e-06	6.66657e-06	5.41785e-06	8.74853e-06	4.79785e-06	3.86512e-06	0.0967769	0.0120977	0.414324	3.74874e-06	4.85611e-05	4.02284e-06	7.04153e-06	5.57276e-06	4.12161e-06	10.0231	0.0361072	10.0232	0.206401	420.748	116799	116799	-89.7936	0.0000000E+000	0.0000000E+000	0.0000000E+000	89.7936	0.0000000E+000	0.0000000E+000	0.0000000E+000	-89.7936	0.0000000E+000	0.0000000E+000	0.0000000E+000	-0.206401	0.0000000E+000	0.0000000E+000	0.0000000E+000	0.206401	277.593	89.7936	-0.00236325
6816.86	0.100452	0.00128207	0.10046	-0.731232	103758	-0.00122825	-8.01158	18210.5	2.96595	1	37	0.00518404	0.0516031	0	-0.0383773	7	0.250073	0.166572	5.42678	5.89353e-06	7.9876e-06	2.23425e-06	2.76394e-06	5.32799e-06	3.57208e-06	0.108917	0.0448944	0.419517	4.98056e-06	5.36013e-05	8.12128e-06	1.073e-05	5.20988e-06	4.45537e-06	9.95342	0.127036	9.95423	0.731232	2965.95	232385	232404	-89.2688	0.0000000E+000	0.0000000E+000	0.0000000E+000	89.2688	0.0000000E+000	0.0000000E+000	0.0000000E+000	-89.2688	0.0000000E+000	0.0000000E+000	0.0000000E+000	-0.731232	0.0000000E+000	0.0000000E+000	0.0000000E+000	0.731232	78.3509	89.2688	-0.00257886
3403.27	0.101359	0.00192018	0.101377	-1.0853	103762	-0.00121645	-8.04789	24354.6	8.73746	1	37	0.00516573	0.0509555	0	-0.0472201	7	0.321874	0.247113	5.37949	3.77289e-06	8.53165e-06	2.23245e-06	9.21488e-06	5.35485e-06	5.04273e-06	0.0755885	0.0519718	0.4315	7.23255e-06	3.67534e-05	2.8285e-06	5.57635e-06	2.59124e-06	4.864e-06	9.86237	0.186836	9.86414	1.0853	8737.48	461217	461300	-88.9147	0.0000000E+000	0.0000000E+000	0.0000000E+000	88.9147	0.0000000E+000	0.0000000E+000	0.0000000E+000	-88.9147	0.0000000E+000	0.0000000E+000	0.0000000E+000	-1.0853	0.0000000E+000	0.0000000E+000	0.0000000E+000	1.0853	52.7862	88.9147	-0.00298389
1698.37	0.102546	0.00246147	0.102576	-1.37503	103766	-0.00122365	-8.01817	38071	21.9226	1	37	0.00515628	0.050268	0	-0.056181	7	0.285223	0.196343	5.51151	6.41505e-06	3.43858e-06	3.62139e-06	8.59819e-06	3.62944e-06	6.45626e-06	0.0531173	0.0674804	0.445183	1.26953e-05	2.16514e-05	2.26856e-06	3.72184e-06	5.82135e-06	4.34735e-06	9.74607	0.233939	9.74888	1.37503	21922.6	913310	913573	-88.625	0.0000000E+000	0.0000000E+000	0.0000000E+000	88.625	0.0000000E+000	0.0000000E+000	0.0000000E+000	-88.625	0.0000000E+000	0.0000000E+000	0.0000000E+000	-1.37503	0.0000000E+000	0.0000000E+000	0.0000000E+000	1.37503	41.6607	88.625	-0.00303958
847.556	0.103813	0.00255314	0.103845	-1.40882	103770	-0.00121969	-8.02308	73549.1	44.4587	1	37	0.00508546	0.0489717	0	-0.0650904	7	0.25696	0.168055	5.60632	5.45916e-06	4.4703e-06	3.97431e-06	5.06257e-06	4.83763e-06	5.90473e-06	0.036513	0.0941629	0.454504	1.05673e-05	3.09984e-06	6.77084e-06	8.4792e-06	5.80393e-06	5.0862e-06	9.62684	0.236758	9.62975	1.40882	44458.7	1.80774e+06	1.80829e+06	-88.5912	0.0000000E+000	0.0000000E+000	0.0000000E+000	88.5912	0.0000000E+000	0.0000000E+000	0.0000000E+000	-88.5912	0.0000000E+000	0.0000000E+000	0.0000000E+000	-1.40882	0.0000000E+000	0.0000000E+000	0.0000000E+000	1.40882	40.6611	88.5912	-0.00290326
423.239	0.1049	0.00251652	0.10493	-1.37425	103774	-0.00119239	-8.09961	149429	85.948	1	37	0.00501844	0.0478266	0	-0.0738075	7	0.259674	0.17785	5.6314	4.42993e-06	6.05322e-06	5.70863e-06	3.63952e-06	5.01353e-06	5.66724e-06	0.0615107	0.010744	0.462522	1.50095e-05	1.99454e-05	4.17345e-06	1.33361e-05	3.62939e-06	4.5202e-06	9.52742	0.228561	9.53016	1.37425	85948.2	3.58269e+06	3.58373e+06	-88.6257	0.0000000E+000	0.0000000E+000	0.0000000E+000	88.6257	0.0000000E+000	0.0000000E+000	0.0000000E+000	-88.6257	0.0000000E+000	0.0000000E+000	0.0000000E+000	-1.37425	0.0000000E+000	0.0000000E+000	0.0000000E+000	1.37425	41.6844	88.6257	-0.00291943
211.149	0.106066	0.00231803	0.106091	-1.25198	103777	-0.00119332	-7.98904	325172	155.236	1	37	0.00517421	0.0487714	0	-0.0817592	7	0.305385	0.153609	5.53604	6.58273e-06	5.93389e-06	6.86837e-06	7.01886e-06	4.45046e-06	5.60496e-06	0.0740662	0.0128644	0.456425	1.26729e-05	2.61273e-05	4.53368e-06	1.76147e-05	7.06722e-06	7.04772e-06	9.42361	0.20595	9.42586	1.25198	155236	7.10312e+06	7.10481e+06	-88.748	0.0000000E+000	0.0000000E+000	0.0000000E+000	88.748	0.0000000E+000	0.0000000E+000	0.0000000E+000	-88.748	0.0000000E+000	0.0000000E+000	0.0000000E+000	-1.25198	0.0000000E+000	0.0000000E+000	0.0000000E+000	1.25198	45.7569	88.748	-0.00249628
105.438	0.107051	0.00230664	0.107076	-1.23437	103780	-0.00118361	-7.97577	654399	303.681	1	37	0.00537778	0.050224	0	-0.0891298	7	0.24092	0.182382	5.37104	5.7663e-06	5.67856e-06	4.42713e-06	4.07619e-06	7.12906e-06	2.93167e-06	0.0967029	0.0245197	0.440643	7.66942e-06	3.10816e-05	4.5217e-06	3.48192e-05	3.65085e-06	5.24166e-06	9.33702	0.201186	9.33918	1.23437	303682	1.40938e+07	1.40971e+07	-88.7656	0.0000000E+000	0.0000000E+000	0.0000000E+000	88.7656	0.0000000E+000	0.0000000E+000	0.0000000E+000	-88.7656	0.0000000E+000	0.0000000E+000	0.0000000E+000	-1.23437	0.0000000E+000	0.0000000E+000	0.0000000E+000	1.23437	46.41	88.7656	-0.00241913
52.6255	0.107978	0.0025697	0.108009	-1.36329	103784	-0.00118929	-8.08969	1.17691e+06	666.175	1	37	0.0054251	0.0502284	0	-0.0966213	7	0.283115	0.127244	5.16343	7.63761e-06	6.20385e-06	3.18107e-06	5.36349e-06	6.75322e-06	6.12398e-06	0.0910011	0.0904382	0.427152	7.3028e-06	2.30473e-05	7.44411e-06	3.69265e-05	6.6173e-06	4.06019e-06	9.2559	0.220275	9.25852	1.36329	666176	2.79925e+07	2.80005e+07	-88.6367	0.0000000E+000	0.0000000E+000	0.0000000E+000	88.6367	0.0000000E+000	0.0000000E+000	0.0000000E+000	-88.6367	0.0000000E+000	0.0000000E+000	0.0000000E+000	-1.36329	0.0000000E+000	0.0000000E+000	0.0000000E+000	1.36329	42.0198	88.6367	-0.00253497
26.2693	0.109074	0.0028024	0.10911	-1.47175	103787	-0.00117559	-7.91011	2.16193e+06	1426.17	1	37	0.00543671	0.0498277	0	-0.103879	7	0.323878	0.145003	5.19306	5.98153e-06	9.64275e-06	1.3714e-06	1.09991e-05	3.6565e-06	3.12391e-06	0.130172	0.0358905	0.434862	3.51289e-05	3.34376e-05	1.16759e-05	3.59241e-05	1.8174e-05	6.74806e-06	9.16202	0.235396	9.16504	1.47175	1.42617e+06	5.55089e+07	5.55272e+07	-88.5282	0.0000000E+000	0.0000000E+000	0.0000000E+000	88.5282	0.0000000E+000	0.0000000E+000	0.0000000E+000	-88.5282	0.0000000E+000	0.0000000E+000	0.0000000E+000	-1.47175	0.0000000E+000	0.0000000E+000	0.0000000E+000	1.47175	38.9217	88.5282	-0.00234134
13.1083	0.110165	0.00296931	0.110205	-1.54394	103790	-0.00117574	-7.9968	4.08902e+06	2968.45	1	37	0.00544	0.0493626	0	-0.111144	7	0.238799	0.255552	3.70868	4.59103e-06	5.40788e-06	2.87698e-06	5.97187e-06	3.92952e-06	5.21655e-06	0.133414	0.0845284	0.328064	1.4587e-05	4.02223e-05	3.74451e-05	3.10138e-05	7.18898e-06	6.83731e-06	9.07072	0.244486	9.07401	1.54394	2.96845e+06	1.10133e+08	1.10173e+08	-88.4561	0.0000000E+000	0.0000000E+000	0.0000000E+000	88.4561	0.0000000E+000	0.0000000E+000	0.0000000E+000	-88.4561	0.0000000E+000	0.0000000E+000	0.0000000E+000	-1.54394	0.0000000E+000	0.0000000E+000	0.0000000E+000	1.54394	37.1011	88.4561	-0.00243105
6.54313	0.111183	0.00405466	0.111257	-2.08856	103794	-0.00117533	-8.03298	5.99901e+06	7967.73	1	37	0.00543685	0.0488674	0	-0.118731	7	0.254478	0.152328	3.71165	3.55098e-06	6.29755e-06	4.03139e-06	7.87022e-06	6.1187e-06	3.17246e-06	0.158966	0.0941495	0.360465	3.95922e-05	5.06542e-05	1.2436e-05	3.70946e-05	6.56645e-06	1.29023e-05	8.98223	0.327567	8.9882	2.08856	7.96772e+06	2.18484e+08	2.18629e+08	-87.9114	0.0000000E+000	0.0000000E+000	0.0000000E+000	87.9114	0.0000000E+000	0.0000000E+000	0.0000000E+000	-87.9114	0.0000000E+000	0.0000000E+000	0.0000000E+000	-2.08856	0.0000000E+000	0.0000000E+000	0.0000000E+000	2.08856	27.421	87.9114	-0.00266281
3.26541	0.112785	0.0056505	0.112926	-2.86811	103800	-0.00118206	-7.94401	8.62572e+06	21596.2	1	37	0.00543728	0.0481489	0	-0.131799	7	0.171887	0.0695749	2.32055	3.04368e-06	4.51616e-06	2.31913e-06	5.13368e-06	3.65301e-06	2.4128e-06	0.128554	0.112919	0.297908	1.58067e-05	3.78128e-05	8.69586e-06	4.24313e-05	1.12344e-05	5.89826e-06	8.84423	0.443094	8.85532	2.86811	2.15963e+07	4.31065e+08	4.31605e+08	-87.1319	0.0000000E+000	0.0000000E+000	0.0000000E+000	87.1319	0.0000000E+000	0.0000000E+000	0.0000000E+000	-87.1319	0.0000000E+000	0.0000000E+000	0.0000000E+000	-2.86811	0.0000000E+000	0.0000000E+000	0.0000000E+000	2.86811	19.9602	87.1319	-0.0056224
1.63084	0.115125	0.00819908	0.115416	-4.07367	103810	-0.00118881	-8.01001	1.19027e+07	60067.6	1	37	0.00543286	0.0470718	0	-0.152859	7	0.130307	0.120207	1.54614	2.57118e-06	2.61049e-06	2.01649e-06	3.79536e-06	3.35934e-06	1.66966e-06	0.109273	0.132985	0.276571	9.14493e-06	3.2171e-05	9.09892e-06	3.46474e-05	8.58513e-06	8.57733e-06	8.64239	0.615503	8.66428	4.07367	6.00675e+07	8.4342e+08	8.45556e+08	-85.9263	0.0000000E+000	0.0000000E+000	0.0000000E+000	85.9263	0.0000000E+000	0.0000000E+000	0.0000000E+000	-85.9263	0.0000000E+000	0.0000000E+000	0.0000000E+000	-4.07367	0.0000000E+000	0.0000000E+000	0.0000000E+000	4.07367	14.0412	85.9263	-0.00815768
0.813551	0.118999	0.0116128	0.119564	-5.57372	103829	-0.0011673	-7.91858	1.6846e+07	158917	1	37	0.00543092	0.0454227	0	-0.198028	7	0.133972	0.0647889	1.09727	2.71048e-06	3.54967e-06	1.89559e-06	3.7141e-06	2.16804e-06	1.44036e-06	0.12515	0.186073	0.284677	1.53968e-05	3.59943e-05	1.0602e-05	3.38416e-05	8.06192e-06	9.93873e-06	8.32417	0.812337	8.36372	5.57372	1.58917e+08	1.62846e+09	1.63619e+09	-84.4263	0.0000000E+000	0.0000000E+000	0.0000000E+000	84.4263	0.0000000E+000	0.0000000E+000	0.0000000E+000	-84.4263	0.0000000E+000	0.0000000E+000	0.0000000E+000	-5.57372	0.0000000E+000	0.0000000E+000	0.0000000E+000	5.57372	10.2472	84.4263	-0.0208732
0.406108	0.12454	0.0154684	0.125497	-7.08011	103867	-0.00116124	-7.83234	2.53356e+07	384907	1	37	0.00542842	0.0432553	0	-0.2774	7	0.111444	0.0810841	0.777136	1.47786e-06	3.40346e-06	4.75615e-07	3.75835e-06	2.29238e-06	1.05269e-06	0.193969	0.191741	0.284387	4.91028e-05	5.00472e-05	8.12437e-06	4.24736e-05	9.81683e-06	5.22743e-06	7.90753	0.982148	7.96829	7.08011	3.84907e+08	3.09898e+09	3.1228e+09	-82.9199	0.0000000E+000	0.0000000E+000	0.0000000E+000	82.9199	0.0000000E+000	0.0000000E+000	0.0000000E+000	-82.9199	0.0000000E+000	0.0000000E+000	0.0000000E+000	-7.08011	0.0000000E+000	0.0000000E+000	0.0000000E+000	7.08011	8.05126	82.9199	-0.0361565
0.202719	0.134673	0.0210476	0.136308	-8.88268	103941	-0.00116228	-7.67786	3.73013e+07	889373	1	37	0.00542106	0.0397707	0	-0.435187	7	0.118401	0.0731155	0.558916	1.61949e-06	4.03641e-06	1.36428e-06	3.37351e-06	2.58176e-06	1.04986e-06	0.256213	0.107762	0.297756	2.06733e-05	9.50077e-05	1.17416e-05	2.21123e-05	7.44701e-06	5.92653e-06	7.24834	1.13281	7.33632	8.88268	8.89373e+08	5.69067e+09	5.75975e+09	-81.1173	0.0000000E+000	0.0000000E+000	0.0000000E+000	81.1173	0.0000000E+000	0.0000000E+000	0.0000000E+000	-81.1173	0.0000000E+000	0.0000000E+000	0.0000000E+000	-8.88268	0.0000000E+000	0.0000000E+000	0.0000000E+000	8.88268	6.39852	81.1173	-0.0571584
0.101164	0.148165	0.017855	0.149237	-6.87144	104088	-0.00115809	-7.68338	8.81118e+07	1.26125e+06	1	37	0.00541827	0.0363064	0	-0.754562	7	0.130625	0.108873	0.409588	1.96862e-06	4.59606e-06	1.21616e-06	4.11574e-06	2.05115e-06	1.02145e-06	0.305619	0.107796	0.282573	1.13071e-05	8.65404e-05	4.09233e-05	4.86364e-05	5.40831e-06	1.83584e-05	6.65262	0.80169	6.70075	6.87144	1.26125e+09	1.04661e+10	1.05419e+10	-83.1286	0.0000000E+000	0.0000000E+000	0.0000000E+000	83.1286	0.0000000E+000	0.0000000E+000	0.0000000E+000	-83.1286	0.0000000E+000	0.0000000E+000	0.0000000E+000	-6.87144	0.0000000E+000	0.0000000E+000	0.0000000E+000	6.87144	8.29824	83.1286	-0.141061
0.0505041	0.155119	0.0110814	0.155514	-4.08615	104381	-0.001149	-7.51515	2.8438e+08	1.44393e+06	1	37	0.00541615	0.0348273	0	-1.39453	7	0.107684	0.105908	0.304944	1.29593e-06	3.24182e-06	1.41189e-06	3.96674e-06	1.34591e-06	7.92299e-07	0.275821	0.115503	0.343739	1.08812e-05	3.41091e-05	6.52728e-06	3.6597e-05	5.67492e-06	7.94999e-05	6.41393	0.458198	6.43027	4.08615	1.44393e+09	2.02124e+10	2.02639e+10	-85.9138	0.0000000E+000	0.0000000E+000	0.0000000E+000	85.9138	0.0000000E+000	0.0000000E+000	0.0000000E+000	-85.9138	0.0000000E+000	0.0000000E+000	0.0000000E+000	-4.08615	0.0000000E+000	0.0000000E+000	0.0000000E+000	4.08615	13.9982	85.9138	-0.247586
0.0252177	0.157408	0.00605036	0.157525	-2.20121	104969	-0.00118044	-7.634	1.04312e+09	1.53886e+06	1	37	0.00541253	0.0343599	0	-2.54814	7	0.122662	0.145143	0.243642	2.89647e-06	4.15188e-06	1.23635e-06	3.07849e-06	1.63574e-06	1.30001e-06	0.142806	0.116991	0.355224	1.38426e-05	3.79683e-05	5.79752e-06	2.59386e-05	4.74624e-06	3.24676e-06	6.34353	0.243828	6.34822	2.20121	1.53886e+09	4.00356e+10	4.00651e+10	-87.7988	0.0000000E+000	0.0000000E+000	0.0000000E+000	87.7988	0.0000000E+000	0.0000000E+000	0.0000000E+000	-87.7988	0.0000000E+000	0.0000000E+000	0.0000000E+000	-2.20121	0.0000000E+000	0.0000000E+000	0.0000000E+000	2.20121	26.0164	87.7988	-0.488891
174510	0.0972665	-0.00961908	0.097741	5.64785	105277	-0.0010761	-6.56922	-94.8126	-0.91829	2	37	0.00487288	0.049855	0	-3.20851	7	-1	-1	-1	0	0	0	0	0	0	-1	-1	-1	0	0	0	0	0	0	10.1815	-1.00689	10.2311	-5.64785	-918.29	9285.59	9330.89	-95.6479	0.0000000E+000	0.0000000E+000	0.0000000E+000	95.6479	0.0000000E+000	0.0000000E+000	0.0000000E+000	-95.6479	0.0000000E+000	0.0000000E+000	0.0000000E+000	5.64785	0.0000000E+000	0.0000000E+000	0.0000000E+000	-5.64785	10.1118	84.3521	-0.00176078
87106.6	0.0991042	-0.00506972	0.0992337	2.92844	105280	-0.00108429	-6.85909	-360.4	-0.940663	2	37	0.00522575	0.052661	0	-3.21481	7	0.277853	0.181263	5.41609	5.4242e-06	8.54015e-06	4.75765e-06	3.35949e-06	5.70076e-06	4.41486e-06	0.0831043	0.0248502	0.405011	1.1725e-05	4.11254e-05	5.24515e-06	4.15708e-06	3.18598e-06	4.75026e-06	10.0641	-0.514831	10.0772	-2.92844	-940.662	18388.3	18412.4	-92.9284	0.0000000E+000	0.0000000E+000	0.0000000E+000	92.9284	0.0000000E+000	0.0000000E+000	0.0000000E+000	-92.9284	0.0000000E+000	0.0000000E+000	0.0000000E+000	2.92844	0.0000000E+000	0.0000000E+000	0.0000000E+000	-2.92844	19.5483	87.0716	-0.00211765
43479.1	0.0991473	-0.00246752	0.099178	1.42565	105284	-0.00108891	-6.94128	-1483.47	-0.918269	2	37	0.00518806	0.0523105	0	-3.22136	7	0.27624	0.184799	5.51607	4.69954e-06	9.35123e-06	5.98017e-06	4.22213e-06	2.75732e-06	4.68035e-06	0.10731	0.0410694	0.409501	9.95167e-06	5.37308e-05	3.6469e-06	7.17459e-06	3.24081e-06	7.80257e-06	10.0798	-0.250859	10.0829	-1.42565	-918.27	36896.9	36908.3	-91.4257	0.0000000E+000	0.0000000E+000	0.0000000E+000	91.4257	0.0000000E+000	0.0000000E+000	0.0000000E+000	-91.4257	0.0000000E+000	0.0000000E+000	0.0000000E+000	1.42565	0.0000000E+000	0.0000000E+000	0.0000000E+000	-1.42565	40.1809	88.5743	-0.00217498
21702.4	0.0992985	-0.000531918	0.0992999	0.306917	105287	-0.00108693	-6.90776	-13786.9	-0.395602	2	37	0.00517271	0.0520918	0	-3.22805	7	0.35008	0.15742	5.43473	1.09368e-05	9.49427e-06	4.57986e-06	6.05883e-06	3.2866e-06	4.30212e-06	0.121657	0.0588358	0.41458	7.58076e-06	6.11517e-05	2.44509e-06	8.18018e-06	6.46299e-06	8.6519e-06	10.0704	-0.0539444	10.0705	-0.306917	-395.601	73851.1	73852.2	-90.3069	0.0000000E+000	0.0000000E+000	0.0000000E+000	90.3069	0.0000000E+000	0.0000000E+000	0.0000000E+000	-90.3069	0.0000000E+000	0.0000000E+000	0.0000000E+000	0.306917	0.0000000E+000	0.0000000E+000	0.0000000E+000	-0.306917	186.68	89.6931	-0.00226182
10837.3	0.0997619	0.000583127	0.0997636	-0.334901	105291	-0.00108962	-7.03129	25184.6	0.860436	2	37	0.00514709	0.0515929	0	-3.23468	7	0.349344	0.214915	5.51569	8.76179e-06	7.59771e-06	6.03077e-06	4.52157e-06	3.70712e-06	9.86812e-06	0.156508	0.0350353	0.409636	6.98528e-06	4.81606e-05	4.23939e-06	7.24509e-06	5.77633e-06	6.33962e-05	10.0235	0.0585894	10.0237	0.334901	860.433	147204	147207	-89.6651	0.0000000E+000	0.0000000E+000	0.0000000E+000	89.6651	0.0000000E+000	0.0000000E+000	0.0000000E+000	-89.6651	0.0000000E+000	0.0000000E+000	0.0000000E+000	-0.334901	0.0000000E+000	0.0000000E+000	0.0000000E+000	0.334901	171.081	89.6651	-0.00218442
5406.63	0.100457	0.00156488	0.100469	-0.892458	105294	-0.0012163	-7.7062	18811.1	4.56361	2	37	0.00516558	0.0514145	0	-3.24236	7	0.326863	0.224636	5.4263	5.80114e-06	8.81348e-06	3.83043e-06	6.61902e-06	5.46144e-06	5.94103e-06	0.107993	0.0940251	0.432621	8.79492e-06	5.23009e-05	4.62991e-06	1.26874e-05	4.66975e-06	6.63035e-06	9.95209	0.15503	9.95329	0.892458	4563.6	292960	292995	-89.1075	0.0000000E+000	0.0000000E+000	0.0000000E+000	89.1075	0.0000000E+000	0.0000000E+000	0.0000000E+000	-89.1075	0.0000000E+000	0.0000000E+000	0.0000000E+000	-0.892458	0.0000000E+000	0.0000000E+000	0.0000000E+000	0.892458	64.1948	89.1075	-0.00267419
2699.14	0.101436	0.00208787	0.101458	-1.17916	105298	-0.00120881	-7.76351	28241.7	11.96	2	37	0.00515504	0.0508098	0	-3.25102	7	0.304632	0.108317	5.53741	6.65596e-06	6.37312e-06	4.96338e-06	7.79242e-06	4.95386e-06	6.35666e-06	0.06555	0.0171229	0.430609	3.89872e-06	3.09437e-05	2.68394e-06	7.9422e-06	4.17334e-06	5.0415e-06	9.85425	0.202831	9.85634	1.17916	11960	581057	581180	-88.8208	0.0000000E+000	0.0000000E+000	0.0000000E+000	88.8208	0.0000000E+000	0.0000000E+000	0.0000000E+000	-88.8208	0.0000000E+000	0.0000000E+000	0.0000000E+000	-1.17916	0.0000000E+000	0.0000000E+000	0.0000000E+000	1.17916	48.5835	88.8208	-0.00285832
1347.15	0.102666	0.00253975	0.102697	-1.41709	105302	-0.00121846	-7.7229	46517.1	28.4495	2	37	0.00511537	0.0498102	0	-3.25957	7	0.249201	0.157146	5.51424	3.28261e-06	4.95049e-06	3.75503e-06	4.94476e-06	5.99518e-06	4.74522e-06	0.0409684	0.0347588	0.436879	6.47114e-06	1.47209e-05	4.27816e-06	3.90809e-06	5.11725e-06	8.92722e-06	9.73438	0.240809	9.73736	1.41709	28449.5	1.15004e+06	1.15039e+06	-88.5829	0.0000000E+000	0.0000000E+000	0.0000000E+000	88.5829	0.0000000E+000	0.0000000E+000	0.0000000E+000	-88.5829	0.0000000E+000	0.0000000E+000	0.0000000E+000	-1.41709	0.0000000E+000	0.0000000E+000	0.0000000E+000	1.41709	40.4237	88.5829	-0.00281721
672.366	0.104025	0.00242775	0.104054	-1.33693	105306	-0.00117723	-7.64762	97501.3	53.0767	2	37	0.0050301	0.0483414	0	-3.26801	7	0.244453	0.277343	5.46258	5.91941e-06	3.36096e-06	3.24497e-06	3.57462e-06	6.58648e-06	5.54734e-06	0.0428906	0.0143723	0.447367	7.95059e-06	9.70452e-06	5.74276e-06	1.17971e-05	6.88265e-06	5.43595e-06	9.60781	0.224228	9.61043	1.33693	53076.6	2.27425e+06	2.27487e+06	-88.6631	0.0000000E+000	0.0000000E+000	0.0000000E+000	88.6631	0.0000000E+000	0.0000000E+000	0.0000000E+000	-88.6631	0.0000000E+000	0.0000000E+000	0.0000000E+000	-1.33693	0.0000000E+000	0.0000000E+000	0.0000000E+000	1.33693	42.8484	88.6631	-0.00277647
335.537	0.105165	0.00250699	0.105195	-1.3656	105310	-0.00119496	-7.69958	189203	107.459	2	37	0.00548971	0.0521862	0	-3.2759	7	0.271323	0.17811	5.08406	4.78915e-06	6.94851e-06	5.82371e-06	6.38027e-06	3.47823e-06	5.36824e-06	0.052898	0.0120401	0.416095	7.40618e-06	1.92738e-05	5.03969e-06	1.52932e-05	3.82807e-06	6.98187e-06	9.50348	0.22655	9.50618	1.3656	107459	4.50778e+06	4.50906e+06	-88.6344	0.0000000E+000	0.0000000E+000	0.0000000E+000	88.6344	0.0000000E+000	0.0000000E+000	0.0000000E+000	-88.6344	0.0000000E+000	0.0000000E+000	0.0000000E+000	-1.3656	0.0000000E+000	0.0000000E+000	0.0000000E+000	1.3656	41.9487	88.6344	-0.00238344
167.481	0.106221	0.00239567	0.106248	-1.29201	105314	-0.0011812	-7.69588	396668	201.668	2	37	0.00527552	0.0496527	0	-3.28339	7	0.271316	0.161658	5.32879	4.44171e-06	4.26352e-06	5.13545e-06	6.11842e-06	4.70261e-06	6.74703e-06	0.0770569	0.0250267	0.439304	8.13341e-06	2.82539e-05	4.81247e-06	2.19083e-05	5.53509e-06	5.79622e-06	9.40952	0.212218	9.41191	1.29201	201669	8.94175e+06	8.94402e+06	-88.708	0.0000000E+000	0.0000000E+000	0.0000000E+000	88.708	0.0000000E+000	0.0000000E+000	0.0000000E+000	-88.708	0.0000000E+000	0.0000000E+000	0.0000000E+000	-1.29201	0.0000000E+000	0.0000000E+000	0.0000000E+000	1.29201	44.3388	88.708	-0.00238867
83.635	0.107146	0.0024088	0.107173	-1.28787	105317	-0.00118344	-7.60777	790008	399.079	2	37	0.00540414	0.0504243	0	-3.29033	7	0.278537	0.160751	5.27995	3.64258e-06	4.63483e-06	3.06547e-06	6.64717e-06	5.77059e-06	8.54762e-06	0.10909	0.0154961	0.434757	1.04081e-05	3.82439e-05	6.58169e-06	3.34704e-05	6.39303e-06	6.91124e-06	9.32832	0.209714	9.33068	1.28787	399079	1.77515e+07	1.7756e+07	-88.7121	0.0000000E+000	0.0000000E+000	0.0000000E+000	88.7121	0.0000000E+000	0.0000000E+000	0.0000000E+000	-88.7121	0.0000000E+000	0.0000000E+000	0.0000000E+000	-1.28787	0.0000000E+000	0.0000000E+000	0.0000000E+000	1.28787	44.4812	88.7121	-0.00230923
41.7501	0.108163	0.00266294	0.108196	-1.41032	105320	-0.00117412	-7.65229	1.43153e+06	867.17	2	37	0.00543228	0.050208	0	-3.29728	7	0.312917	0.198193	5.23724	8.03649e-06	7.97884e-06	3.86371e-06	4.71144e-06	4.55134e-06	7.68312e-06	0.114759	0.0639506	0.439174	1.12576e-05	3.34326e-05	6.25116e-06	4.14645e-05	1.50401e-05	5.30636e-06	9.23973	0.22748	9.24253	1.41032	867172	3.52226e+07	3.52333e+07	-88.5897	0.0000000E+000	0.0000000E+000	0.0000000E+000	88.5897	0.0000000E+000	0.0000000E+000	0.0000000E+000	-88.5897	0.0000000E+000	0.0000000E+000	0.0000000E+000	-1.41032	0.0000000E+000	0.0000000E+000	0.0000000E+000	1.41032	40.6178	88.5897	-0.00234548
20.8333	0.109102	0.0028424	0.109139	-1.49237	105324	-0.00117085	-7.57768	2.68767e+06	1823	2	37	0.00543404	0.0497901	0	-3.30432	7	0.271407	0.152605	5.14457	5.30345e-06	6.31722e-06	6.71015e-06	7.95395e-06	3.47942e-06	3.58042e-06	0.113516	0.105286	0.42171	8.49488e-06	3.70986e-05	7.94748e-06	3.64599e-05	9.1113e-06	1.28345e-05	9.15952	0.23863	9.16263	1.49237	1.823e+06	6.99736e+07	6.99974e+07	-88.5076	0.0000000E+000	0.0000000E+000	0.0000000E+000	88.5076	0.0000000E+000	0.0000000E+000	0.0000000E+000	-88.5076	0.0000000E+000	0.0000000E+000	0.0000000E+000	-1.49237	0.0000000E+000	0.0000000E+000	0.0000000E+000	1.49237	38.3837	88.5076	-0.002402
10.3959	0.110303	0.00340539	0.110355	-1.76834	105327	-0.00117371	-7.67032	4.49565e+06	4280.94	2	37	0.00544066	0.0493013	0	-3.31097	7	0.374987	0.141124	5.19886	7.97795e-06	6.74231e-06	9.06553e-06	1.04534e-05	4.75543e-06	8.4345e-06	0.141133	0.111496	0.414079	1.33289e-05	3.463e-05	1.60507e-05	5.11995e-05	8.03031e-06	1.24283e-05	9.05732	0.279627	9.06163	1.76834	4.28093e+06	1.38662e+08	1.38728e+08	-88.2317	0.0000000E+000	0.0000000E+000	0.0000000E+000	88.2317	0.0000000E+000	0.0000000E+000	0.0000000E+000	-88.2317	0.0000000E+000	0.0000000E+000	0.0000000E+000	-1.76834	0.0000000E+000	0.0000000E+000	0.0000000E+000	1.76834	32.3907	88.2317	-0.00199108
5.19276	0.11143	0.00438946	0.111517	-2.25582	105331	-0.00116692	-7.68182	6.98251e+06	10818.1	2	37	0.00544023	0.0487839	0	-3.32008	7	0.148026	0.0765785	3.04304	3.16207e-06	3.53766e-06	3.15075e-06	3.16476e-06	1.96255e-06	2.20362e-06	0.14272	0.0394428	0.303657	6.05202e-06	5.47256e-05	1.30608e-05	3.56441e-05	7.06179e-06	1.08089e-05	8.9603	0.352963	8.96725	2.25582	1.08181e+07	2.74628e+08	2.74841e+08	-87.7442	0.0000000E+000	0.0000000E+000	0.0000000E+000	87.7442	0.0000000E+000	0.0000000E+000	0.0000000E+000	-87.7442	0.0000000E+000	0.0000000E+000	0.0000000E+000	-2.25582	0.0000000E+000	0.0000000E+000	0.0000000E+000	2.25582	25.3859	87.7442	-0.00311786
2.58949	0.113114	0.0064126	0.113296	-3.24471	105338	-0.00117555	-7.65511	9.58454e+06	30705.2	2	37	0.00543516	0.0479732	0	-3.334	7	0.159221	0.0798291	1.96336	2.50335e-06	4.64211e-06	3.91763e-06	4.07386e-06	1.67724e-06	2.92277e-06	0.146675	0.0988672	0.275246	2.11452e-05	3.56373e-05	1.4009e-05	3.45195e-05	4.11928e-05	8.56716e-06	8.81231	0.499583	8.82646	3.24471	3.07052e+07	5.4162e+08	5.4249e+08	-86.7553	0.0000000E+000	0.0000000E+000	0.0000000E+000	86.7553	0.0000000E+000	0.0000000E+000	0.0000000E+000	-86.7553	0.0000000E+000	0.0000000E+000	0.0000000E+000	-3.24471	0.0000000E+000	0.0000000E+000	0.0000000E+000	3.24471	17.6394	86.7553	-0.00546143
1.29325	0.11598	0.00921869	0.116346	-4.54459	105350	-0.00115685	-7.63457	1.33496e+07	83811.3	2	37	0.00543203	0.0466885	0	-3.35924	7	0.144793	0.0646043	1.40477	2.63916e-06	3.77285e-06	2.02303e-06	4.66897e-06	3.12906e-06	1.48709e-06	0.143581	0.11374	0.278233	1.75023e-05	4.39133e-05	1.91713e-05	4.01112e-05	7.94091e-06	5.74853e-06	8.56801	0.681028	8.59504	4.54459	8.38113e+07	1.05443e+09	1.05776e+09	-85.4554	0.0000000E+000	0.0000000E+000	0.0000000E+000	85.4554	0.0000000E+000	0.0000000E+000	0.0000000E+000	-85.4554	0.0000000E+000	0.0000000E+000	0.0000000E+000	-4.54459	0.0000000E+000	0.0000000E+000	0.0000000E+000	4.54459	12.581	85.4554	-0.00790431
0.645874	0.120398	0.0128835	0.121086	-6.10784	105374	-0.00116537	-7.65329	1.91266e+07	216532	2	37	0.00542873	0.0448338	0	-3.40968	7	0.106949	0.0403056	0.973438	1.93268e-06	3.00363e-06	4.40935e-07	3.85002e-06	1.8743e-06	1.04517e-06	0.12656	0.134767	0.277929	1.91671e-05	3.45624e-05	1.03817e-05	3.44224e-05	7.22842e-06	4.68705e-06	8.21174	0.878718	8.25862	6.10784	2.16532e+08	2.02352e+09	2.03507e+09	-83.8922	0.0000000E+000	0.0000000E+000	0.0000000E+000	83.8922	0.0000000E+000	0.0000000E+000	0.0000000E+000	-83.8922	0.0000000E+000	0.0000000E+000	0.0000000E+000	-6.10784	0.0000000E+000	0.0000000E+000	0.0000000E+000	6.10784	9.34513	83.8922	-0.0202293
0.322118	0.126662	0.0173168	0.127841	-7.78499	105421	-0.00118134	-7.84571	2.85323e+07	523520	2	37	0.0054262	0.042445	0	-3.50701	7	0.11189	0.0717238	0.700874	2.18509e-06	3.0282e-06	7.1998e-07	3.76389e-06	2.1529e-06	9.41932e-07	0.146992	0.180165	0.293708	2.47784e-05	2.92271e-05	7.95716e-06	4.36464e-05	6.36443e-06	7.64836e-06	7.75014	1.05957	7.82224	7.78499	5.2352e+08	3.82925e+09	3.86488e+09	-82.215	0.0000000E+000	0.0000000E+000	0.0000000E+000	82.215	0.0000000E+000	0.0000000E+000	0.0000000E+000	-82.215	0.0000000E+000	0.0000000E+000	0.0000000E+000	-7.78499	0.0000000E+000	0.0000000E+000	0.0000000E+000	7.78499	7.31443	82.215	-0.0349975
0.160792	0.139366	0.0208158	0.140912	-8.4949	105514	-0.00116604	-7.68863	4.75513e+07	1.03765e+06	2	37	0.00542018	0.0384649	0	-3.72257	7	0.129212	0.100827	0.501074	2.41855e-06	4.2074e-06	1.3362e-06	4.21457e-06	1.61566e-06	1.22686e-06	0.165098	0.231399	0.325372	1.91619e-05	3.16829e-05	1.601e-05	4.14694e-05	1.23517e-05	1.33909e-05	7.01876	1.04832	7.09661	8.4949	1.03765e+09	6.94728e+09	7.02434e+09	-81.5051	0.0000000E+000	0.0000000E+000	0.0000000E+000	81.5051	0.0000000E+000	0.0000000E+000	0.0000000E+000	-81.5051	0.0000000E+000	0.0000000E+000	0.0000000E+000	-8.4949	0.0000000E+000	0.0000000E+000	0.0000000E+000	8.4949	6.69523	81.5051	-0.0902366
0.0802383	0.150988	0.0156069	0.151793	-5.90142	105699	-0.00117599	-7.66051	1.27093e+08	1.34355e+06	2	37	0.00541727	0.0356886	0	-4.09232	7	0.115639	0.0836257	0.364843	2.67839e-06	3.61824e-06	8.73704e-07	3.82984e-06	1.38285e-06	5.85761e-07	0.262508	0.108055	0.278225	1.17807e-05	3.45105e-05	6.03132e-05	4.70328e-05	3.76142e-05	5.25554e-06	6.55303	0.677354	6.58794	5.90142	1.34355e+09	1.29981e+10	1.30674e+10	-84.0986	0.0000000E+000	0.0000000E+000	0.0000000E+000	84.0986	0.0000000E+000	0.0000000E+000	0.0000000E+000	-84.0986	0.0000000E+000	0.0000000E+000	0.0000000E+000	-5.90142	0.0000000E+000	0.0000000E+000	0.0000000E+000	5.90142	9.67445	84.0986	-0.147078
0.04008	0.155982	0.00915653	0.156251	-3.35955	106069	-0.00115954	-7.62436	4.33673e+08	1.4893e+06	2	37	0.00541522	0.0346573	0	-4.89972	7	0.117171	0.0937206	0.280176	2.86181e-06	3.74675e-06	9.56103e-07	3.74139e-06	1.4046e-06	5.95108e-07	0.146062	0.143234	0.333209	8.95989e-06	3.65813e-05	5.21604e-06	3.20323e-05	5.9445e-06	4.46866e-06	6.38898	0.375049	6.39998	3.35955	1.4893e+09	2.53702e+10	2.54139e+10	-86.6405	0.0000000E+000	0.0000000E+000	0.0000000E+000	86.6405	0.0000000E+000	0.0000000E+000	0.0000000E+000	-86.6405	0.0000000E+000	0.0000000E+000	0.0000000E+000	-3.35955	0.0000000E+000	0.0000000E+000	0.0000000E+000	3.35955	17.0351	86.6405	-0.346995
0.0199946	0.157702	0.00482704	0.157776	-1.7532	106810	-0.00119392	-7.75474	1.64902e+09	1.5435e+06	2	37	0.00541451	0.0343177	0	-6.54729	7	0.103794	0.0958485	0.2149	2.73555e-06	2.16234e-06	8.67834e-07	3.52693e-06	1.69936e-06	4.72338e-07	0.147643	0.122926	0.407889	2.31347e-05	2.99403e-05	9.42517e-06	2.8098e-05	6.32728e-06	7.43251e-06	6.33514	0.19391	6.33811	1.7532	1.5435e+09	5.0427e+10	5.04507e+10	-88.2468	0.0000000E+000	0.0000000E+000	0.0000000E+000	88.2468	0.0000000E+000	0.0000000E+000	0.0000000E+000	-88.2468	0.0000000E+000	0.0000000E+000	0.0000000E+000	-1.7532	0.0000000E+000	0.0000000E+000	0.0000000E+000	1.7532	32.6706	88.2468	-0.65308
138435	0.0981545	-0.00772436	0.098458	4.49967	106813	-0.00109877	-7.05714	-148.837	-0.916081	3	37	0.00520079	0.0528224	0	-6.55494	7	-1	-1	-1	0	0	0	0	0	0	-1	-1	-1	0	0	0	0	0	0	10.1253	-0.796821	10.1566	-4.49967	-916.081	11640.8	11676.8	-94.4997	0.0000000E+000	0.0000000E+000	0.0000000E+000	94.4997	0.0000000E+000	0.0000000E+000	0.0000000E+000	-94.4997	0.0000000E+000	0.0000000E+000	0.0000000E+000	4.49967	0.0000000E+000	0.0000000E+000	0.0000000E+000	-4.49967	12.7071	85.5003	-0.0022852
69097	0.0991811	-0.00405796	0.0992641	2.34293	106817	-0.0010954	-7.06763	-567.614	-0.948603	3	37	0.00522167	0.0526039	0	-6.56184	7	0.288083	0.197442	5.38714	7.2789e-06	6.45329e-06	3.35328e-06	3.69141e-06	4.5689e-06	6.98828e-06	0.0970719	0.0576076	0.408736	2.16203e-05	4.43945e-05	5.06115e-06	6.41374e-06	5.0071e-06	7.34754e-06	10.0657	-0.411835	10.0741	-2.34293	-948.604	23184.9	23204.3	-92.3429	0.0000000E+000	0.0000000E+000	0.0000000E+000	92.3429	0.0000000E+000	0.0000000E+000	0.0000000E+000	-92.3429	0.0000000E+000	0.0000000E+000	0.0000000E+000	2.34293	0.0000000E+000	0.0000000E+000	0.0000000E+000	-2.34293	24.4411	87.6571	-0.00234808
34488.2	0.099053	-0.0017227	0.099068	0.996369	106820	-0.00110664	-7.21985	-2678.8	-0.810013	3	37	0.00518059	0.0522933	0	-6.56866	7	0.287489	0.153385	5.46334	2.88951e-06	4.91855e-06	6.76982e-06	7.49957e-06	3.90306e-06	7.41529e-06	0.11591	0.0515263	0.412835	1.49489e-05	5.79693e-05	4.42024e-06	3.77176e-06	4.09291e-06	4.88218e-06	10.0926	-0.175526	10.0941	-0.996369	-810.013	46574.8	46581.8	-90.9964	0.0000000E+000	0.0000000E+000	0.0000000E+000	90.9964	0.0000000E+000	0.0000000E+000	0.0000000E+000	-90.9964	0.0000000E+000	0.0000000E+000	0.0000000E+000	0.996369	0.0000000E+000	0.0000000E+000	0.0000000E+000	-0.996369	57.4988	89.0036	-0.00233098
17211.6	0.099236	-0.000194827	0.0992362	0.112487	106824	-0.00110386	-7.07945	-47462.3	-0.18294	3	37	0.00515794	0.0519764	0	-6.57542	7	0.390983	0.067818	5.41827	4.13303e-06	5.14023e-06	9.43575e-06	3.96837e-06	9.68781e-06	9.51173e-06	0.105929	0.010978	0.410783	7.3698e-06	5.34269e-05	3.81682e-06	7.51731e-06	3.95313e-06	4.10611e-06	10.077	-0.0197838	10.077	-0.112487	-182.941	93181	93181.2	-90.1125	0.0000000E+000	0.0000000E+000	0.0000000E+000	90.1125	0.0000000E+000	0.0000000E+000	0.0000000E+000	-90.1125	0.0000000E+000	0.0000000E+000	0.0000000E+000	0.112487	0.0000000E+000	0.0000000E+000	0.0000000E+000	-0.112487	509.354	89.8875	-0.00231717
8590.41	0.0998157	0.0010618	0.0998213	-0.609467	106827	-0.00122661	-8.02392	17448.7	1.97425	3	37	0.00525196	0.0526136	0	-6.5823	7	0.315663	0.170027	5.36816	6.13209e-06	6.26649e-06	6.93614e-06	8.14247e-06	5.30848e-06	5.52265e-06	0.114742	0.0614698	0.411352	6.25394e-06	5.71654e-05	9.24322e-06	1.21402e-05	4.14534e-06	7.25197e-06	10.0173	0.10656	10.0179	0.609467	1974.25	185592	185602	-89.3905	0.0000000E+000	0.0000000E+000	0.0000000E+000	89.3905	0.0000000E+000	0.0000000E+000	0.0000000E+000	-89.3905	0.0000000E+000	0.0000000E+000	0.0000000E+000	-0.609467	0.0000000E+000	0.0000000E+000	0.0000000E+000	0.609467	94.0061	89.3905	-0.0024182
4288.63	0.100704	0.00177949	0.10072	-1.01234	106831	-0.00123792	-7.8684	20854.8	6.50976	3	37	0.00516398	0.0512706	0	-6.59069	7	0.322087	0.105976	5.49922	7.07252e-06	6.41459e-06	6.94909e-06	5.4879e-06	7.96433e-06	4.04e-06	0.0944328	0.0280984	0.422462	3.16358e-06	4.61872e-05	3.36303e-06	1.01078e-05	3.57956e-06	7.60975e-06	9.92695	0.175414	9.9285	1.01234	6509.76	368398	368456	-88.9877	0.0000000E+000	0.0000000E+000	0.0000000E+000	88.9877	0.0000000E+000	0.0000000E+000	0.0000000E+000	-88.9877	0.0000000E+000	0.0000000E+000	0.0000000E+000	-1.01234	0.0000000E+000	0.0000000E+000	0.0000000E+000	1.01234	56.5917	88.9877	-0.00296546
2140.69	0.101883	0.00222822	0.101907	-1.25288	106835	-0.00122885	-7.95474	33366.4	15.9519	3	37	0.00517652	0.0507963	0	-6.59942	7	0.284628	0.170863	5.41454	7.00035e-06	6.44573e-06	4.59796e-06	4.06761e-06	5.19718e-06	5.15581e-06	0.0528862	0.0288269	0.425853	4.96081e-06	2.50632e-05	2.70323e-06	4.09209e-06	2.64503e-06	5.26942e-06	9.81048	0.214559	9.81283	1.25288	15951.9	729386	729560	-88.7471	0.0000000E+000	0.0000000E+000	0.0000000E+000	88.7471	0.0000000E+000	0.0000000E+000	0.0000000E+000	-88.7471	0.0000000E+000	0.0000000E+000	0.0000000E+000	-1.25288	0.0000000E+000	0.0000000E+000	0.0000000E+000	1.25288	45.724	88.7471	-0.00290884
1068.29	0.103023	0.00254304	0.103054	-1.41402	106839	-0.00122873	-7.98474	58583.7	35.6741	3	37	0.00512155	0.0496978	0	-6.60819	7	0.385671	0.11176	5.52097	6.27555e-06	4.86304e-06	5.41962e-06	7.94249e-06	8.67168e-06	9.94782e-06	0.0330005	0.0995294	0.441454	5.57911e-06	1.07722e-05	1.69506e-06	4.65925e-06	6.43627e-06	5.1138e-06	9.7007	0.239455	9.70366	1.41402	35674.1	1.44522e+06	1.44566e+06	-88.586	0.0000000E+000	0.0000000E+000	0.0000000E+000	88.586	0.0000000E+000	0.0000000E+000	0.0000000E+000	-88.586	0.0000000E+000	0.0000000E+000	0.0000000E+000	-1.41402	0.0000000E+000	0.0000000E+000	0.0000000E+000	1.41402	40.5116	88.586	-0.0029295
533.464	0.104308	0.0025862	0.10434	-1.4203	106843	-0.00120907	-7.85848	115359	70.8726	3	37	0.00506219	0.0485165	0	-6.61688	7	0.27782	0.141417	5.55322	4.29233e-06	4.19693e-06	7.41272e-06	4.70137e-06	5.27376e-06	4.74186e-06	0.0432167	0.0104109	0.454555	5.28271e-06	1.39299e-05	4.53031e-06	1.11678e-05	4.59527e-06	5.99995e-06	9.58113	0.237555	9.58408	1.4203	70872.8	2.85846e+06	2.85934e+06	-88.5797	0.0000000E+000	0.0000000E+000	0.0000000E+000	88.5797	0.0000000E+000	0.0000000E+000	0.0000000E+000	-88.5797	0.0000000E+000	0.0000000E+000	0.0000000E+000	-1.4203	0.0000000E+000	0.0000000E+000	0.0000000E+000	1.4203	40.3323	88.5797	-0.00296093
266.278	0.105538	0.0024466	0.105566	-1.32801	106847	-0.00122215	-8.02541	244299	131.22	3	37	0.00502541	0.0476045	0	-6.6252	7	0.270536	0.208978	5.70026	5.54282e-06	4.61106e-06	5.33505e-06	5.04218e-06	3.25517e-06	5.44033e-06	0.0650012	0.0184649	0.457719	5.83744e-06	2.11765e-05	5.5331e-06	1.72048e-05	6.21211e-06	8.13895e-06	9.47021	0.219541	9.47276	1.32801	131220	5.66037e+06	5.66189e+06	-88.672	0.0000000E+000	0.0000000E+000	0.0000000E+000	88.672	0.0000000E+000	0.0000000E+000	0.0000000E+000	-88.672	0.0000000E+000	0.0000000E+000	0.0000000E+000	-1.32801	0.0000000E+000	0.0000000E+000	0.0000000E+000	1.32801	43.1364	88.672	-0.00291238
132.916	0.106455	0.00235954	0.106481	-1.26973	106850	-0.00122277	-7.92535	507476	249.185	3	37	0.00533941	0.050144	0	-6.63243	7	0.346469	0.17394	5.26926	7.80317e-06	9.84598e-06	6.13997e-06	8.18854e-06	2.96595e-06	6.56064e-06	0.0851203	0.0277045	0.432494	9.01807e-06	2.97372e-05	7.41267e-06	2.58775e-05	4.54698e-06	7.19525e-06	9.38901	0.208104	9.39131	1.26973	249185	1.12425e+07	1.12452e+07	-88.7303	0.0000000E+000	0.0000000E+000	0.0000000E+000	88.7303	0.0000000E+000	0.0000000E+000	0.0000000E+000	-88.7303	0.0000000E+000	0.0000000E+000	0.0000000E+000	-1.26973	0.0000000E+000	0.0000000E+000	0.0000000E+000	1.26973	45.117	88.7303	-0.00239927
66.3374	0.107357	0.0024356	0.107385	-1.29964	106853	-0.00122223	-8.02511	985046	506.734	3	37	0.00541949	0.0504678	0	-6.63962	7	0.29733	0.179972	5.25607	4.75868e-06	9.56654e-06	5.58064e-06	5.17254e-06	5.47806e-06	5.55127e-06	0.10217	0.0203079	0.432237	1.24525e-05	3.17532e-05	3.59476e-06	3.47317e-05	9.68338e-06	1.12728e-05	9.30989	0.211212	9.31229	1.29964	506735	2.23361e+07	2.23418e+07	-88.7004	0.0000000E+000	0.0000000E+000	0.0000000E+000	88.7004	0.0000000E+000	0.0000000E+000	0.0000000E+000	-88.7004	0.0000000E+000	0.0000000E+000	0.0000000E+000	-1.29964	0.0000000E+000	0.0000000E+000	0.0000000E+000	1.29964	44.0785	88.7004	-0.00234809
33.1038	0.108441	0.00261272	0.108473	-1.38018	106857	-0.00121104	-8.08762	1.84013e+06	1067.57	3	37	0.00543426	0.050098	0	-6.64694	7	0.311302	0.228879	5.29444	7.79e-06	4.42249e-06	6.43744e-06	7.69212e-06	6.29021e-06	6.72496e-06	0.112078	0.02256	0.437237	7.94601e-06	3.60846e-05	7.12517e-06	3.97843e-05	6.43311e-06	6.90491e-06	9.21625	0.222051	9.21892	1.38018	1.06757e+06	4.43094e+07	4.43223e+07	-88.6198	0.0000000E+000	0.0000000E+000	0.0000000E+000	88.6198	0.0000000E+000	0.0000000E+000	0.0000000E+000	-88.6198	0.0000000E+000	0.0000000E+000	0.0000000E+000	-1.38018	0.0000000E+000	0.0000000E+000	0.0000000E+000	1.38018	41.5051	88.6198	-0.00241391
16.5286	0.109506	0.00294789	0.109545	-1.54203	106860	-0.00121604	-7.93976	3.26643e+06	2365.41	3	37	0.00543876	0.0496485	0	-6.65398	7	0.301422	0.127074	5.16566	7.98343e-06	6.68347e-06	4.7905e-06	6.26627e-06	3.4132e-06	7.97236e-06	0.195168	0.0546224	0.40749	5.84787e-06	8.73109e-05	5.03547e-06	3.88193e-05	8.19818e-06	8.71485e-06	9.12533	0.245654	9.12864	1.54203	2.36542e+06	8.78684e+07	8.79003e+07	-88.458	0.0000000E+000	0.0000000E+000	0.0000000E+000	88.458	0.0000000E+000	0.0000000E+000	0.0000000E+000	-88.458	0.0000000E+000	0.0000000E+000	0.0000000E+000	-1.54203	0.0000000E+000	0.0000000E+000	0.0000000E+000	1.54203	37.1472	88.458	-0.00209443
8.24973	0.110576	0.0035377	0.110633	-1.83245	106863	-0.00121929	-8.0109	5.4533e+06	5576.11	3	37	0.00543951	0.0491672	0	-6.66187	7	0.234121	0.0826684	3.68387	6.76242e-06	4.95935e-06	5.45505e-06	3.23292e-06	3.2747e-06	5.82681e-06	0.188345	0.0689894	0.31412	4.03488e-05	3.67975e-05	8.49541e-06	3.74685e-05	6.29099e-05	6.78819e-06	9.03427	0.289036	9.03889	1.83245	5.57611e+06	1.7429e+08	1.7438e+08	-88.1675	0.0000000E+000	0.0000000E+000	0.0000000E+000	88.1675	0.0000000E+000	0.0000000E+000	0.0000000E+000	-88.1675	0.0000000E+000	0.0000000E+000	0.0000000E+000	-1.83245	0.0000000E+000	0.0000000E+000	0.0000000E+000	1.83245	31.2566	88.1675	-0.00299666
4.11618	0.111779	0.00500889	0.111892	-2.56573	106868	-0.00122235	-8.01248	7.71942e+06	15469.4	3	37	0.00543617	0.0485843	0	-6.67273	7	0.201951	0.0663891	2.56444	4.40482e-06	4.37468e-06	2.79288e-06	5.97739e-06	3.06862e-06	4.43478e-06	0.125946	0.0936258	0.298427	8.68716e-06	3.99452e-05	2.34465e-05	3.60445e-05	8.17421e-06	9.6761e-06	8.92827	0.40008	8.93723	2.56573	1.54694e+07	3.45218e+08	3.45564e+08	-87.4343	0.0000000E+000	0.0000000E+000	0.0000000E+000	87.4343	0.0000000E+000	0.0000000E+000	0.0000000E+000	-87.4343	0.0000000E+000	0.0000000E+000	0.0000000E+000	-2.56573	0.0000000E+000	0.0000000E+000	0.0000000E+000	2.56573	22.3162	87.4343	-0.0043371
2.05457	0.113931	0.00721588	0.114159	-3.62403	106877	-0.00121836	-8.02603	1.07352e+07	42891.1	3	37	0.00543839	0.0476388	0	-6.69136	7	0.153417	0.0836687	1.73782	3.26227e-06	3.6629e-06	2.0471e-06	4.6584e-06	3.18879e-06	1.79401e-06	0.13772	0.117448	0.280911	1.76835e-05	3.44887e-05	1.26023e-05	3.81103e-05	1.56288e-05	2.51745e-05	8.7422	0.553693	8.75971	3.62403	4.28911e+07	6.77204e+08	6.78561e+08	-86.376	0.0000000E+000	0.0000000E+000	0.0000000E+000	86.376	0.0000000E+000	0.0000000E+000	0.0000000E+000	-86.376	0.0000000E+000	0.0000000E+000	0.0000000E+000	-3.62403	0.0000000E+000	0.0000000E+000	0.0000000E+000	3.62403	15.7889	86.376	-0.00827041
1.02607	0.117172	0.0102961	0.117624	-5.02176	106892	-0.00121482	-7.9804	1.5065e+07	115431	3	37	0.00543108	0.0461733	0	-6.72678	7	0.150231	0.0746857	1.23822	2.51844e-06	3.14496e-06	2.16053e-06	5.32601e-06	2.96286e-06	1.44713e-06	0.136463	0.185182	0.278867	2.24833e-05	3.94875e-05	1.23059e-05	3.88567e-05	8.09083e-06	3.67593e-06	8.46904	0.744185	8.50167	5.02176	1.15431e+08	1.31364e+09	1.3187e+09	-84.9782	0.0000000E+000	0.0000000E+000	0.0000000E+000	84.9782	0.0000000E+000	0.0000000E+000	0.0000000E+000	-84.9782	0.0000000E+000	0.0000000E+000	0.0000000E+000	-5.02176	0.0000000E+000	0.0000000E+000	0.0000000E+000	5.02176	11.3803	84.9782	-0.017493
0.511825	0.1223	0.0140672	0.123106	-6.56146	106922	-0.00119852	-7.83565	2.2105e+07	288633	3	37	0.00542827	0.0440941	0	-6.79354	7	0.136935	0.0566307	0.872658	2.09368e-06	5.18738e-06	9.20829e-07	3.03766e-06	2.94456e-06	1.21002e-06	0.15879	0.220403	0.287649	3.31684e-05	4.15853e-05	1.00925e-05	3.61872e-05	1.44351e-05	1.10283e-05	8.06985	0.928213	8.12305	6.56146	2.88633e+08	2.50936e+09	2.52591e+09	-83.4385	0.0000000E+000	0.0000000E+000	0.0000000E+000	83.4385	0.0000000E+000	0.0000000E+000	0.0000000E+000	-83.4385	0.0000000E+000	0.0000000E+000	0.0000000E+000	-6.56146	0.0000000E+000	0.0000000E+000	0.0000000E+000	6.56146	8.69396	83.4385	-0.032146
0.255612	0.130113	0.0193496	0.131544	-8.45867	106981	-0.00120434	-7.92126	3.21786e+07	696255	3	37	0.00542178	0.0412163	0	-6.91188	7	0.128062	0.0595151	0.618585	1.48771e-06	4.23176e-06	1.07511e-06	4.46781e-06	1.89392e-06	1.06694e-06	0.240798	0.536171	0.330805	6.15312e-05	4.75951e-05	2.30437e-05	4.5468e-05	1.01129e-05	1.36625e-05	7.51931	1.11822	7.602	8.45867	6.96255e+08	4.68185e+09	4.73334e+09	-81.5413	0.0000000E+000	0.0000000E+000	0.0000000E+000	81.5413	0.0000000E+000	0.0000000E+000	0.0000000E+000	-81.5413	0.0000000E+000	0.0000000E+000	0.0000000E+000	-8.45867	0.0000000E+000	0.0000000E+000	0.0000000E+000	8.45867	6.72433	81.5413	-0.0511001
0.127525	0.143928	0.0198027	0.145284	-7.83397	107098	-0.0011924	-7.79591	6.30233e+07	1.17088e+06	3	37	0.00541795	0.037292	0	-7.18534	7	0.110406	0.0795588	0.450773	1.39048e-06	3.22916e-06	8.30886e-07	3.82316e-06	2.2734e-06	1.38785e-06	0.443381	0.134678	0.45336	0.000130327	5.25192e-05	6.1786e-05	4.38996e-05	1.79393e-05	1.91067e-05	6.81881	0.93818	6.88305	7.83397	1.17088e+09	8.51009e+09	8.59026e+09	-82.166	0.0000000E+000	0.0000000E+000	0.0000000E+000	82.166	0.0000000E+000	0.0000000E+000	0.0000000E+000	-82.166	0.0000000E+000	0.0000000E+000	0.0000000E+000	-7.83397	0.0000000E+000	0.0000000E+000	0.0000000E+000	7.83397	7.26813	82.166	-0.105822
0.0636941	0.153323	0.0133776	0.153905	-4.9865	107331	-0.00116893	-7.68675	1.86785e+08	1.41121e+06	3	37	0.00541656	0.0351941	0	-7.64419	7	0.114667	0.0945501	0.335178	2.08673e-06	3.59184e-06	6.65677e-07	3.8557e-06	1.80581e-06	9.80744e-07	0.217852	0.0999328	0.580546	1.30967e-05	3.50969e-05	1.00234e-05	4.71101e-05	3.01925e-05	3.03143e-05	6.47292	0.56477	6.49751	4.9865	1.41121e+09	1.61741e+10	1.62356e+10	-85.0135	0.0000000E+000	0.0000000E+000	0.0000000E+000	85.0135	0.0000000E+000	0.0000000E+000	0.0000000E+000	-85.0135	0.0000000E+000	0.0000000E+000	0.0000000E+000	-4.9865	0.0000000E+000	0.0000000E+000	0.0000000E+000	4.9865	11.4612	85.0135	-0.19197
0.0317924	0.15695	0.00753325	0.157131	-2.74796	107797	-0.00116038	-7.70906	6.64529e+08	1.52741e+06	3	37	0.00541631	0.0344701	0	-8.68705	7	0.121794	0.152623	0.256543	1.86858e-06	3.69444e-06	1.22394e-06	4.01118e-06	1.97586e-06	1.01564e-06	0.155294	0.246669	0.476343	2.13303e-05	3.10149e-05	7.35224e-06	3.32297e-05	8.52825e-06	9.58463e-06	6.35681	0.305112	6.36413	2.74796	1.52741e+09	3.18226e+10	3.18592e+10	-87.252	0.0000000E+000	0.0000000E+000	0.0000000E+000	87.252	0.0000000E+000	0.0000000E+000	0.0000000E+000	-87.252	0.0000000E+000	0.0000000E+000	0.0000000E+000	-2.74796	0.0000000E+000	0.0000000E+000	0.0000000E+000	2.74796	20.8343	87.252	-0.439947
0.0199946	0.15809	0.00489166	0.158166	-1.77229	108345	-0.00117269	-7.58941	1.62724e+09	1.55646e+06	3	37	0.00541414	0.0342307	0	-9.89199	7	0.116855	0.135608	0.224711	2.11397e-06	3.76564e-06	1.58704e-06	3.65134e-06	9.85951e-07	7.63679e-07	0.143939	0.142594	0.40549	1.01889e-05	3.46205e-05	8.95299e-06	2.93582e-05	4.00898e-06	2.37133e-06	6.31944	0.195537	6.32246	1.77229	1.55646e+09	5.03021e+10	5.03262e+10	-88.2277	0.0000000E+000	0.0000000E+000	0.0000000E+000	88.2277	0.0000000E+000	0.0000000E+000	0.0000000E+000	-88.2277	0.0000000E+000	0.0000000E+000	0.0000000E+000	-1.77229	0.0000000E+000	0.0000000E+000	0.0000000E+000	1.77229	32.3184	88.2277	-0.653319