File: Python/Experiments/IRFB/240515-Paper-1p5M_FeCl2FeCl3-1M_HCl/Data/240515-EIS-Paper-1p5M_FeCl2FeCl3-1M_HCl-Wamup_10mLmin-4xFlowRate-20mHz_10ppd_03_PEIS_C15.mpt
EC-Lab ASCII FILE
Nb header lines : 75

Potentio Electrochemical Impedance Spectroscopy

Run on channel : 15 (SN 19485)
User :
Electrode connection : standard
Potential control : Ewe
Ewe ctrl range : min = -1.00 V, max = 1.00 V
Ewe,I filtering : 50 kHz
Safety Limits :
	Do not start on E overload
Channel : Grounded
Acquisition started on : 05/15/2024 11:35:32.904
Loaded Setting File :  C:\Data\mathias\IRFB\240507-EIS-Cloth-1p5M_FeCl2FeCl3-1M_HCl-Wamup_10mLmin-4xFlowRate-20mHz_10ppd.mps
Saved on :
	File : 240515-EIS-Paper-1p5M_FeCl2FeCl3-1M_HCl-Wamup_10mLmin-4xFlowRate-20mHz_10ppd_03_PEIS_C15.mpr
	Directory : C:\Data\mathias\IRFB\
	Host : 192.168.0.1
Device : VMP-300 (SN 0826)
Address : USB
EC-Lab for windows v11.52 (software)
Internet server v11.52 (firmware)
Command interpretor v11.52 (firmware)
Electrode material :
Initial state :
Electrolyte :
Comments :
Cable : special
Electrode surface area : 0.001 cm²
Characteristic mass : 0.001 g
Equivalent Weight : 0.000 g/eq.
Density : 0.000 g/cm3
Volume (V) : 0.001 cm³
Record EIS quality indicators
Cycle Definition : Charge/Discharge alternance
External device configuration :
   device type : Other
   device name : Other
   Analog OUT :
      mode : E/V
      unit : KNF Pump/ml/min
      max : 120.000 at 5.000 V
      min : 0.000 at 0.000 V
      current : 3.400
Mode                Single sine
E (V)               0.0000
vs.                 Eoc
tE (h:m:s)          0:10:0.0000
record              0
dI                  0.000
unit dI             mA
dt (s)              0.000
fi                  220.000
unit fi             kHz
ff                  20.000
unit ff             mHz
Nd                  10
Points              per decade
spacing             Logarithmic
Va (mV)             5.0
pw                  0.10
Na                  3
corr                0
E range min (V)     -1.000
E range max (V)     1.000
I Range             Auto
Bandwidth           8
nc cycles           2
goto Ns'            0
nr cycles           0
inc. cycle          0

freq/Hz	Re(Z)/Ohm	-Im(Z)/Ohm	|Z|/Ohm	Phase(Z)/deg	time/s	<Ewe>/V	<I>/mA	Cs/µF	Cp/µF	cycle number	I Range	|Ewe|/V	|I|/A	Ns	(Q-Qo)/mA.h	Analog OUT/V	THD Ewe/%	NSD Ewe/%	NSR Ewe/%	|Ewe h2|/V	|Ewe h3|/V	|Ewe h4|/V	|Ewe h5|/V	|Ewe h6|/V	|Ewe h7|/V	THD I/%	NSD I/%	NSR I/%	|I h2|/A	|I h3|/A	|I h4|/A	|I h5|/A	|I h6|/A	|I h7|/A	Re(Y)/Ohm-1	Im(Y)/Ohm-1	|Y|/Ohm-1	Phase(Y)/deg	Re(C)/nF	Im(C)/nF	|C|/nF	Phase(C)/deg	Re(M)	Im(M)	|M|	Phase(M)/deg	Re(Permittivity)	Im(Permittivity)	|Permittivity|	Phase(Permittivity)/deg	Re(Resistivity)/Ohm.cm	Im(Resistivity)/Ohm.cm	|Resistivity|/Ohm.cm	Phase(Resistivity)/deg	Re(Conductivity)/mS/cm	Im(Conductivity)/mS/cm	|Conductivity|/mS/cm	Phase(Conductivity)/deg	Tan(Delta)	Loss Angle(Delta)/deg	dq/mA.h
220003	0.0950294	-0.0119692	0.0957803	7.17875	93326.6	-0.00104816	-4.87359	-60.4403	-0.943856	1	37	0.00338024	0.0352916	0	-0.899556	3.4	-1	-1	-1	0	0	0	0	0	0	-1	-1	-1	0	0	0	0	0	0	10.3587	-1.30471	10.4406	-7.17875	-943.857	7493.74	7552.95	-97.1788	0.0000000E+000	0.0000000E+000	0.0000000E+000	97.1788	0.0000000E+000	0.0000000E+000	0.0000000E+000	-97.1788	0.0000000E+000	0.0000000E+000	0.0000000E+000	7.17875	0.0000000E+000	0.0000000E+000	0.0000000E+000	-7.17875	7.93949	82.8212	-0.899556
109811	0.0987427	-0.00615835	0.0989346	3.56878	93329.9	-0.00106132	-4.46717	-235.348	-0.911889	1	37	0.00523781	0.0529422	0	-0.903935	3.4	-1	-1	-1	0	0	0	0	0	0	-1	-1	-1	0	0	0	0	0	0	10.0881	-0.62917	10.1077	-3.56878	-911.889	14621.2	14649.6	-93.5688	0.0000000E+000	0.0000000E+000	0.0000000E+000	93.5688	0.0000000E+000	0.0000000E+000	0.0000000E+000	-93.5688	0.0000000E+000	0.0000000E+000	0.0000000E+000	3.56878	0.0000000E+000	0.0000000E+000	0.0000000E+000	-3.56878	16.034	86.4312	-0.00137865
54808.1	0.0990383	-0.00336303	0.0990954	1.94484	93333.4	-0.00105314	-4.74469	-863.464	-0.994487	1	37	0.00519538	0.052428	0	-0.908276	3.4	0.284105	0.172266	5.47832	5.75603e-06	7.71336e-06	4.27694e-06	5.1775e-06	5.19268e-06	4.88263e-06	0.117009	0.0462879	0.40225	1.69754e-05	5.79395e-05	4.64553e-06	6.60011e-06	5.10089e-06	3.21936e-06	10.0855	-0.342471	10.0913	-1.94484	-994.488	29286.8	29303.7	-91.9448	0.0000000E+000	0.0000000E+000	0.0000000E+000	91.9448	0.0000000E+000	0.0000000E+000	0.0000000E+000	-91.9448	0.0000000E+000	0.0000000E+000	0.0000000E+000	1.94484	0.0000000E+000	0.0000000E+000	0.0000000E+000	-1.94484	29.4491	88.0552	-0.00151091
27362.3	0.0990817	-0.00120308	0.099089	0.69567	93336.8	-0.00105381	-5.21624	-4834.73	-0.712708	1	37	0.00517568	0.0522326	0	-0.91318	3.4	0.397443	0.125459	5.47921	9.63244e-06	1.22405e-05	7.39753e-06	5.51349e-06	5.28635e-06	2.59628e-06	0.118924	0.0329539	0.413383	8.1284e-06	6.03723e-05	3.94334e-06	9.14417e-06	3.93356e-06	4.90386e-06	10.0912	-0.122531	10.0919	-0.69567	-712.709	58696.2	58700.5	-90.6957	0.0000000E+000	0.0000000E+000	0.0000000E+000	90.6957	0.0000000E+000	0.0000000E+000	0.0000000E+000	-90.6957	0.0000000E+000	0.0000000E+000	0.0000000E+000	0.69567	0.0000000E+000	0.0000000E+000	0.0000000E+000	-0.69567	82.3566	89.3043	-0.00172711
13658	0.099342	0.000289528	0.0993424	-0.166986	93340.3	-0.00105799	-4.38227	40247.9	0.341866	1	37	0.00515193	0.0518603	0	-0.917794	3.4	0.318033	0.211439	5.55315	4.82902e-06	9.8913e-06	4.45019e-06	2.34883e-06	5.85063e-06	7.86753e-06	0.106614	0.0105842	0.431724	9.95202e-06	5.34844e-05	4.16606e-06	6.27861e-06	3.16687e-06	4.35958e-06	10.0662	0.0293374	10.0662	0.166986	341.864	117300	117300	-89.833	0.0000000E+000	0.0000000E+000	0.0000000E+000	89.833	0.0000000E+000	0.0000000E+000	0.0000000E+000	-89.833	0.0000000E+000	0.0000000E+000	0.0000000E+000	-0.166986	0.0000000E+000	0.0000000E+000	0.0000000E+000	0.166986	343.117	89.833	-0.00145503
6816.86	0.0999772	0.001136	0.0999837	-0.650998	93343.8	-0.00116278	-5.54588	20552.2	2.65311	1	37	0.0051861	0.0518694	0	-0.922461	3.4	0.35114	0.110373	5.52427	7.14683e-06	8.07011e-06	5.5411e-06	7.07752e-06	6.54905e-06	7.17572e-06	0.113515	0.0531974	0.42826	7.5239e-06	5.6339e-05	7.85361e-06	1.19884e-05	2.44973e-06	2.31365e-06	10.001	0.113637	10.0016	0.650998	2653.12	233496	233511	-89.349	0.0000000E+000	0.0000000E+000	0.0000000E+000	89.349	0.0000000E+000	0.0000000E+000	0.0000000E+000	-89.349	0.0000000E+000	0.0000000E+000	0.0000000E+000	-0.650998	0.0000000E+000	0.0000000E+000	0.0000000E+000	0.650998	88.0084	89.349	-0.00168853
3403.27	0.100923	0.00178728	0.100939	-1.01456	93347.8	-0.00118003	-5.63563	26165.6	8.2035	1	37	0.00517078	0.0512268	0	-0.928873	3.4	0.245451	0.1806	5.54496	7.06019e-06	4.06998e-06	4.38916e-06	5.0478e-06	5.30703e-06	3.11811e-06	0.0823641	0.0487615	0.435954	7.60072e-06	3.89492e-05	4.79803e-06	9.66172e-06	7.84379e-06	3.99983e-06	9.90542	0.175419	9.90697	1.01456	8203.5	463230	463303	-88.9854	0.0000000E+000	0.0000000E+000	0.0000000E+000	88.9854	0.0000000E+000	0.0000000E+000	0.0000000E+000	-88.9854	0.0000000E+000	0.0000000E+000	0.0000000E+000	-1.01456	0.0000000E+000	0.0000000E+000	0.0000000E+000	1.01456	56.4674	88.9854	-0.00215861
1698.37	0.101955	0.00230214	0.101981	-1.29352	93351.7	-0.00117235	-5.08803	40705.8	20.7437	1	37	0.00515335	0.0505327	0	-0.934491	3.4	0.289085	0.140158	5.47412	4.50023e-06	4.52147e-06	7.08399e-06	7.30796e-06	3.86786e-06	5.73453e-06	0.0537913	0.0606114	0.444553	6.12147e-06	2.47361e-05	3.71283e-06	3.00567e-06	4.29447e-06	5.91432e-06	9.80329	0.221359	9.80579	1.29352	20743.7	918672	918906	-88.7065	0.0000000E+000	0.0000000E+000	0.0000000E+000	88.7065	0.0000000E+000	0.0000000E+000	0.0000000E+000	-88.7065	0.0000000E+000	0.0000000E+000	0.0000000E+000	-1.29352	0.0000000E+000	0.0000000E+000	0.0000000E+000	1.29352	44.2869	88.7065	-0.00195016
847.556	0.103228	0.00245294	0.103257	-1.36122	93355.7	-0.00116951	-5.70056	76553.6	43.2012	1	37	0.00508331	0.0492295	0	-0.940587	3.4	0.365111	0.234717	5.64642	1.03499e-05	4.16552e-06	8.16947e-06	2.76346e-06	8.35469e-06	3.00281e-06	0.0283619	0.0911669	0.468423	2.69341e-06	2.99494e-06	2.70276e-06	1.17581e-05	4.74922e-06	2.67614e-06	9.6818	0.230061	9.68453	1.36122	43201.2	1.81806e+06	1.81857e+06	-88.6388	0.0000000E+000	0.0000000E+000	0.0000000E+000	88.6388	0.0000000E+000	0.0000000E+000	0.0000000E+000	-88.6388	0.0000000E+000	0.0000000E+000	0.0000000E+000	-1.36122	0.0000000E+000	0.0000000E+000	0.0000000E+000	1.36122	42.0835	88.6388	-0.0020276
423.239	0.104406	0.00240538	0.104434	-1.31979	93359.7	-0.00114187	-4.73994	156333	82.9349	1	37	0.00502235	0.0480913	0	-0.94615	3.4	0.266265	0.170241	5.55836	5.98837e-06	4.15979e-06	5.45627e-06	3.08497e-06	3.92792e-06	7.74835e-06	0.0418338	0.0144369	0.453749	6.4446e-06	1.40746e-05	3.63593e-06	1.04571e-05	3.4144e-06	3.40295e-06	9.57292	0.220548	9.57546	1.31979	82934.8	3.5998e+06	3.60076e+06	-88.6802	0.0000000E+000	0.0000000E+000	0.0000000E+000	88.6802	0.0000000E+000	0.0000000E+000	0.0000000E+000	-88.6802	0.0000000E+000	0.0000000E+000	0.0000000E+000	-1.31979	0.0000000E+000	0.0000000E+000	0.0000000E+000	1.31979	43.4052	88.6802	-0.00171866
211.149	0.105428	0.00226331	0.105453	-1.22982	93363.3	-0.00114972	-5.42093	333033	153.412	1	37	0.005172	0.0490457	0	-0.951129	3.4	0.296475	0.208558	5.51405	5.87607e-06	4.91671e-06	5.0768e-06	9.07637e-06	3.95113e-06	5.96552e-06	0.0631746	0.0223395	0.446876	5.13606e-06	2.426e-05	3.14113e-06	1.69268e-05	4.47971e-06	3.50687e-06	9.48074	0.20353	9.48293	1.22982	153412	7.14618e+06	7.14783e+06	-88.7702	0.0000000E+000	0.0000000E+000	0.0000000E+000	88.7702	0.0000000E+000	0.0000000E+000	0.0000000E+000	-88.7702	0.0000000E+000	0.0000000E+000	0.0000000E+000	-1.22982	0.0000000E+000	0.0000000E+000	0.0000000E+000	1.22982	46.5815	88.7702	-0.00163932
105.438	0.106303	0.00222889	0.106327	-1.20116	93366.6	-0.00114672	-5.5599	677226	297.595	1	37	0.00537562	0.0505576	0	-0.95639	3.4	0.308441	0.212161	5.2921	3.54092e-06	2.88926e-06	3.47427e-06	9.1709e-06	6.30492e-06	9.66717e-06	0.0971856	0.0189006	0.450067	6.44088e-06	3.37238e-05	7.10249e-06	3.28761e-05	5.94582e-06	6.98911e-06	9.40292	0.197153	9.40499	1.20116	297594	1.41933e+07	1.41964e+07	-88.7988	0.0000000E+000	0.0000000E+000	0.0000000E+000	88.7988	0.0000000E+000	0.0000000E+000	0.0000000E+000	-88.7988	0.0000000E+000	0.0000000E+000	0.0000000E+000	-1.20116	0.0000000E+000	0.0000000E+000	0.0000000E+000	1.20116	47.6934	88.7988	-0.00175892
52.6255	0.107293	0.00240634	0.10732	-1.2848	93369.9	-0.00115335	-4.9313	1.2568e+06	631.861	1	37	0.00542852	0.0505828	0	-0.961035	3.4	0.293432	0.175148	5.18449	3.23578e-06	8.37135e-06	4.42204e-06	8.84301e-06	3.88306e-06	4.66215e-06	0.0980791	0.0826159	0.422968	4.89868e-06	2.80999e-05	5.29829e-06	3.86622e-05	7.30068e-06	5.84446e-06	9.31562	0.208929	9.31796	1.2848	631863	2.81731e+07	2.81802e+07	-88.7152	0.0000000E+000	0.0000000E+000	0.0000000E+000	88.7152	0.0000000E+000	0.0000000E+000	0.0000000E+000	-88.7152	0.0000000E+000	0.0000000E+000	0.0000000E+000	-1.2848	0.0000000E+000	0.0000000E+000	0.0000000E+000	1.2848	44.5876	88.7152	-0.00149845
26.2693	0.108267	0.00284018	0.108304	-1.5027	93373.2	-0.00115425	-5.57168	2.13317e+06	1466.99	1	37	0.00543655	0.050197	0	-0.96586	3.4	0.284419	0.146294	5.2387	5.94968e-06	6.62917e-06	4.46832e-06	4.83463e-06	5.64532e-06	6.66036e-06	0.154639	0.0255611	0.426213	4.67418e-05	4.10712e-05	9.66016e-06	4.20371e-05	1.45419e-05	6.01878e-06	9.23008	0.242134	9.23326	1.5027	1.46699e+06	5.59212e+07	5.59405e+07	-88.4973	0.0000000E+000	0.0000000E+000	0.0000000E+000	88.4973	0.0000000E+000	0.0000000E+000	0.0000000E+000	-88.4973	0.0000000E+000	0.0000000E+000	0.0000000E+000	-1.5027	0.0000000E+000	0.0000000E+000	0.0000000E+000	1.5027	38.1198	88.4973	-0.0015077
13.1083	0.109479	0.00354687	0.109536	-1.85561	93376.6	-0.00114343	-5.39575	3.42318e+06	3589.26	1	37	0.0054409	0.0496721	0	-0.971134	3.4	0.282338	0.0829324	3.73886	7.04453e-06	5.45953e-06	6.57675e-06	4.65483e-06	6.50542e-06	5.61757e-06	0.137747	0.0934961	0.358993	1.58124e-05	3.59785e-05	3.86285e-05	3.66189e-05	5.78816e-06	5.24473e-06	9.12461	0.295617	9.1294	1.85561	3.58926e+06	1.10787e+08	1.10845e+08	-88.1444	0.0000000E+000	0.0000000E+000	0.0000000E+000	88.1444	0.0000000E+000	0.0000000E+000	0.0000000E+000	-88.1444	0.0000000E+000	0.0000000E+000	0.0000000E+000	-1.85561	0.0000000E+000	0.0000000E+000	0.0000000E+000	1.85561	30.8663	88.1444	-0.00157652
6.54313	0.110671	0.00421483	0.110752	-2.18101	93380.2	-0.00114646	-5.02803	5.77104e+06	8358.24	1	37	0.00543665	0.0490887	0	-0.976233	3.4	0.224775	0.0846635	3.68951	4.37263e-06	3.17486e-06	3.52704e-06	6.68056e-06	4.17737e-06	3.78814e-06	0.138653	0.0613486	0.347335	2.79981e-05	4.58608e-05	3.71986e-06	3.66605e-05	1.03101e-05	1.22441e-05	9.02268	0.343622	9.02922	2.18101	8.35823e+06	2.19467e+08	2.19626e+08	-87.819	0.0000000E+000	0.0000000E+000	0.0000000E+000	87.819	0.0000000E+000	0.0000000E+000	0.0000000E+000	-87.819	0.0000000E+000	0.0000000E+000	0.0000000E+000	-2.18101	0.0000000E+000	0.0000000E+000	0.0000000E+000	2.18101	26.2576	87.819	-0.00215118
3.26541	0.112179	0.00588619	0.112333	-3.00364	93385.9	-0.00113669	-5.53804	8.28035e+06	22735.3	1	37	0.00543871	0.048416	0	-0.984587	3.4	0.155147	0.0932446	2.31918	3.42825e-06	5.15076e-06	2.34963e-06	3.64003e-06	1.46504e-06	2.37779e-06	0.108753	0.116318	0.290765	1.07385e-05	3.45359e-05	7.44899e-06	3.34198e-05	9.10097e-06	9.13959e-06	8.88987	0.466465	8.9021	3.00364	2.27353e+07	4.33289e+08	4.33885e+08	-86.9964	0.0000000E+000	0.0000000E+000	0.0000000E+000	86.9964	0.0000000E+000	0.0000000E+000	0.0000000E+000	-86.9964	0.0000000E+000	0.0000000E+000	0.0000000E+000	-3.00364	0.0000000E+000	0.0000000E+000	0.0000000E+000	3.00364	19.058	86.9964	-0.00271357
1.63084	0.114516	0.00878399	0.114853	-4.3863	93396.1	-0.00114769	-5.35393	1.11101e+07	64986.1	1	37	0.00543449	0.0473171	0	-1.00094	3.4	0.132725	0.0593075	1.55854	2.78787e-06	3.67216e-06	7.35133e-07	3.78518e-06	1.89509e-06	2.8082e-06	0.167418	0.262746	0.300123	3.66383e-05	4.66656e-05	1.8338e-05	4.15275e-05	1.34061e-05	9.00324e-06	8.68131	0.665902	8.70681	4.3863	6.49861e+07	8.47218e+08	8.49707e+08	-85.6137	0.0000000E+000	0.0000000E+000	0.0000000E+000	85.6137	0.0000000E+000	0.0000000E+000	0.0000000E+000	-85.6137	0.0000000E+000	0.0000000E+000	0.0000000E+000	-4.3863	0.0000000E+000	0.0000000E+000	0.0000000E+000	4.3863	13.0369	85.6137	-0.00800788
0.813551	0.118006	0.0127271	0.118691	-6.15563	93415.3	-0.00115285	-5.53174	1.53711e+07	176739	1	37	0.00542955	0.0457453	0	-1.02694	3.4	0.135082	0.0568934	1.10234	3.18059e-06	4.83162e-06	1.28516e-06	3.90256e-06	1.34451e-06	5.70192e-07	0.145607	0.516366	0.298648	3.5148e-05	2.32683e-05	1.56948e-05	4.03255e-05	1.18848e-05	1.02436e-05	8.37667	0.903435	8.42525	6.15563	1.76739e+08	1.63873e+09	1.64823e+09	-83.8444	0.0000000E+000	0.0000000E+000	0.0000000E+000	83.8444	0.0000000E+000	0.0000000E+000	0.0000000E+000	-83.8444	0.0000000E+000	0.0000000E+000	0.0000000E+000	-6.15563	0.0000000E+000	0.0000000E+000	0.0000000E+000	6.15563	9.27203	83.8444	-0.00984576
0.406108	0.123764	0.0183977	0.125124	-8.45519	93452.7	-0.00114794	-5.65342	2.13017e+07	460533	1	37	0.00542939	0.0433921	0	-1.07952	3.4	0.122973	0.0446086	0.776941	1.75568e-06	4.02856e-06	1.10055e-06	4.11299e-06	2.23329e-06	7.97088e-07	0.277683	0.654283	0.379091	8.25702e-05	5.1754e-05	3.69697e-05	4.48997e-05	2.14432e-05	1.75781e-05	7.9052	1.17512	7.99207	8.45519	4.60533e+08	3.09807e+09	3.13212e+09	-81.5448	0.0000000E+000	0.0000000E+000	0.0000000E+000	81.5448	0.0000000E+000	0.0000000E+000	0.0000000E+000	-81.5448	0.0000000E+000	0.0000000E+000	0.0000000E+000	-8.45519	0.0000000E+000	0.0000000E+000	0.0000000E+000	8.45519	6.72714	81.5448	-0.0178665
0.202719	0.132617	0.0265059	0.13524	-11.3027	93526.6	-0.00115957	-5.54237	2.96199e+07	1.13778e+06	1	37	0.0054228	0.0400978	0	-1.20276	3.4	0.133722	0.0819332	0.562698	2.13067e-06	4.4486e-06	8.54764e-07	4.38992e-06	1.80157e-06	1.10306e-06	0.343771	1.86999	0.324261	0.00012203	4.03643e-05	1.56894e-05	4.28308e-05	9.7588e-06	9.16468e-06	7.25088	1.44922	7.39428	11.3027	1.13778e+09	5.69267e+09	5.80526e+09	-78.6973	0.0000000E+000	0.0000000E+000	0.0000000E+000	78.6973	0.0000000E+000	0.0000000E+000	0.0000000E+000	-78.6973	0.0000000E+000	0.0000000E+000	0.0000000E+000	-11.3027	0.0000000E+000	0.0000000E+000	0.0000000E+000	11.3027	5.00329	78.6973	-0.0483823
0.101164	0.145341	0.0355466	0.149624	-13.7433	93673.7	-0.00117186	-6.25565	4.42585e+07	2.49797e+06	1	37	0.00541768	0.0362086	0	-1.41699	3.4	0.115168	0.0714356	0.400438	2.66908e-06	3.63262e-06	8.77765e-07	3.67842e-06	1.48823e-06	7.17004e-07	0.800202	0.476913	0.44067	0.00025793	0.000105336	5.45411e-05	3.94795e-05	2.27905e-05	2.11028e-05	6.49206	1.58779	6.68341	13.7433	2.49797e+09	1.02135e+10	1.05146e+10	-76.2567	0.0000000E+000	0.0000000E+000	0.0000000E+000	76.2567	0.0000000E+000	0.0000000E+000	0.0000000E+000	-76.2567	0.0000000E+000	0.0000000E+000	0.0000000E+000	-13.7433	0.0000000E+000	0.0000000E+000	0.0000000E+000	13.7433	4.08874	76.2567	-0.10144
0.0505041	0.165527	0.0509689	0.173197	-17.1146	93967.6	-0.00118754	-5.36301	6.18284e+07	5.35451e+06	1	37	0.00540669	0.031217	0	-1.90529	3.4	0.123733	0.111914	0.302072	2.23237e-06	3.8642e-06	1.76372e-06	3.89024e-06	2.17506e-06	4.39131e-07	2.13409	1.1002	1.11749	0.000393354	0.000500296	9.49065e-05	9.95661e-05	6.51867e-05	5.62236e-05	5.5181	1.69913	5.77378	17.1146	5.35451e+09	1.73894e+10	1.81951e+10	-72.8854	0.0000000E+000	0.0000000E+000	0.0000000E+000	72.8854	0.0000000E+000	0.0000000E+000	0.0000000E+000	-72.8854	0.0000000E+000	0.0000000E+000	0.0000000E+000	-17.1146	0.0000000E+000	0.0000000E+000	0.0000000E+000	17.1146	3.24761	72.8854	-0.202528
0.0252177	0.200362	0.0417155	0.204658	-11.761	94555	-0.00115692	-5.33108	1.51293e+08	6.28569e+06	1	37	0.00540273	0.0263988	0	-2.74473	3.4	0.139847	0.121972	0.236159	2.75574e-06	4.0989e-06	2.11806e-06	4.83191e-06	1.61657e-06	6.46583e-07	4.70442	0.482162	3.30877	0.00014295	0.000964712	0.000500396	0.000556589	0.000121747	0.000102858	4.78361	0.995951	4.88619	11.761	6.28569e+09	3.01905e+10	3.08379e+10	-78.239	0.0000000E+000	0.0000000E+000	0.0000000E+000	78.239	0.0000000E+000	0.0000000E+000	0.0000000E+000	-78.239	0.0000000E+000	0.0000000E+000	0.0000000E+000	-11.761	0.0000000E+000	0.0000000E+000	0.0000000E+000	11.761	4.80306	78.239	-0.331383
174510	0.0970918	-0.00967426	0.0975726	5.69019	94863	-0.00107793	-10.4184	-94.2718	-0.926748	2	37	0.00488633	0.0500789	0	-3.17474	3.4	-1	-1	-1	0	0	0	0	0	0	-1	-1	-1	0	0	0	0	0	0	10.1983	-1.01616	10.2488	-5.69019	-926.748	9300.93	9346.99	-95.6902	0.0000000E+000	0.0000000E+000	0.0000000E+000	95.6902	0.0000000E+000	0.0000000E+000	0.0000000E+000	-95.6902	0.0000000E+000	0.0000000E+000	0.0000000E+000	5.69019	0.0000000E+000	0.0000000E+000	0.0000000E+000	-5.69019	10.0361	84.3098	-0.00306593
87106.6	0.0989844	-0.00521321	0.0991215	3.01481	94866.4	-0.00108354	-5.81939	-350.48	-0.969479	2	37	0.00523261	0.0527898	0	-3.18156	3.4	0.329771	0.133375	5.42736	3.75404e-06	9.79349e-06	5.18878e-06	9.10678e-06	4.13012e-06	6.31822e-06	0.0907563	0.0215192	0.407154	1.18265e-05	4.56571e-05	3.49875e-06	2.88992e-06	3.24105e-06	4.98278e-06	10.0747	-0.530603	10.0886	-3.01481	-969.48	18407.7	18433.2	-93.0148	0.0000000E+000	0.0000000E+000	0.0000000E+000	93.0148	0.0000000E+000	0.0000000E+000	0.0000000E+000	-93.0148	0.0000000E+000	0.0000000E+000	0.0000000E+000	3.01481	0.0000000E+000	0.0000000E+000	0.0000000E+000	-3.01481	18.9872	86.9852	-0.00189551
43479.1	0.0989694	-0.00257957	0.099003	1.49304	94869.9	-0.00107743	-4.756	-1419.03	-0.963365	2	37	0.00519243	0.0524471	0	-3.18621	3.4	0.383895	0.170068	5.44897	9.49148e-06	1.03344e-05	2.7034e-06	1.00289e-05	5.09125e-06	5.14729e-06	0.117433	0.0380151	0.405251	6.11109e-06	6.02301e-05	3.99987e-06	6.65313e-06	5.25503e-06	5.07433e-06	10.0973	-0.263179	10.1007	-1.49304	-963.367	36961	36973.6	-91.493	0.0000000E+000	0.0000000E+000	0.0000000E+000	91.493	0.0000000E+000	0.0000000E+000	0.0000000E+000	-91.493	0.0000000E+000	0.0000000E+000	0.0000000E+000	1.49304	0.0000000E+000	0.0000000E+000	0.0000000E+000	-1.49304	38.3666	88.507	-0.00152091
21702.4	0.0990943	-0.000746646	0.0990972	0.431698	94873.3	-0.00108539	-5.25145	-9821.94	-0.557577	2	37	0.00517345	0.0522058	0	-3.19098	3.4	0.377911	0.10362	5.48205	4.59787e-06	1.39952e-05	4.68156e-06	4.58294e-06	7.15112e-06	7.37127e-06	0.112117	0.0623098	0.410577	1.75559e-06	5.6911e-05	3.42699e-06	9.56197e-06	1.92966e-06	7.97717e-06	10.0908	-0.0760313	10.0911	-0.431698	-557.581	74001.2	74003.3	-90.4317	0.0000000E+000	0.0000000E+000	0.0000000E+000	90.4317	0.0000000E+000	0.0000000E+000	0.0000000E+000	-90.4317	0.0000000E+000	0.0000000E+000	0.0000000E+000	0.431698	0.0000000E+000	0.0000000E+000	0.0000000E+000	-0.431698	132.719	89.5683	-0.00159081
10837.3	0.0995015	0.000528241	0.099503	-0.304173	94876.8	-0.00107968	-4.80841	27801.4	0.783537	2	37	0.00514131	0.0516699	0	-3.19587	3.4	0.310749	0.175638	5.65574	8.16891e-06	4.79469e-06	4.53858e-06	7.24679e-06	3.99593e-06	7.83795e-06	0.146763	0.0320993	0.402342	4.28455e-06	4.77672e-05	5.10706e-06	6.07436e-06	6.24266e-06	5.7752e-05	10.0498	0.0533531	10.05	0.304173	783.545	147590	147592	-89.6958	0.0000000E+000	0.0000000E+000	0.0000000E+000	89.6958	0.0000000E+000	0.0000000E+000	0.0000000E+000	-89.6958	0.0000000E+000	0.0000000E+000	0.0000000E+000	-0.304173	0.0000000E+000	0.0000000E+000	0.0000000E+000	0.304173	188.364	89.6958	-0.00161251
5406.63	0.10023	0.00147587	0.100241	-0.843604	94880.5	-0.00118698	-5.42794	19945.6	4.32362	2	37	0.0051672	0.0515476	0	-3.20097	3.4	0.293411	0.174876	5.43306	7.02744e-06	5.63199e-06	4.83122e-06	7.36838e-06	3.30364e-06	5.66798e-06	0.103502	0.0888891	0.424065	4.94208e-06	5.14562e-05	5.77801e-06	7.75724e-06	5.56555e-06	3.28449e-06	9.97485	0.146877	9.97593	0.843604	4323.62	293630	293662	-89.1564	0.0000000E+000	0.0000000E+000	0.0000000E+000	89.1564	0.0000000E+000	0.0000000E+000	0.0000000E+000	-89.1564	0.0000000E+000	0.0000000E+000	0.0000000E+000	-0.843604	0.0000000E+000	0.0000000E+000	0.0000000E+000	0.843604	67.9129	89.1564	-0.00197678
2699.14	0.101318	0.00201107	0.101338	-1.13712	94884.4	-0.00119542	-5.88963	29320.3	11.5472	2	37	0.00517715	0.0510878	0	-3.20746	3.4	0.261232	0.196895	5.45538	4.68644e-06	3.53958e-06	3.79827e-06	3.63799e-06	8.38005e-06	6.04006e-06	0.0727114	0.0228343	0.420698	5.36279e-06	3.55599e-05	4.07133e-06	3.45732e-06	6.15169e-06	1.70803e-06	9.866	0.195831	9.86795	1.13712	11547.2	581750	581865	-88.8629	0.0000000E+000	0.0000000E+000	0.0000000E+000	88.8629	0.0000000E+000	0.0000000E+000	0.0000000E+000	-88.8629	0.0000000E+000	0.0000000E+000	0.0000000E+000	-1.13712	0.0000000E+000	0.0000000E+000	0.0000000E+000	1.13712	50.3803	88.8629	-0.00223391
1347.15	0.102322	0.00242724	0.102351	-1.3589	94888.4	-0.00119647	-4.95001	48673.2	27.3738	2	37	0.00512392	0.0500625	0	-3.2131	3.4	0.291751	0.192171	5.49959	7.10724e-06	4.64032e-06	7.15031e-06	4.73692e-06	4.82191e-06	5.88843e-06	0.0366267	0.0319928	0.437331	4.09529e-06	1.48046e-05	3.80405e-06	4.96898e-06	6.07216e-06	3.79016e-06	9.76759	0.231703	9.77034	1.3589	27373.8	1.15396e+06	1.15428e+06	-88.6411	0.0000000E+000	0.0000000E+000	0.0000000E+000	88.6411	0.0000000E+000	0.0000000E+000	0.0000000E+000	-88.6411	0.0000000E+000	0.0000000E+000	0.0000000E+000	-1.3589	0.0000000E+000	0.0000000E+000	0.0000000E+000	1.3589	42.1556	88.6411	-0.0016779
672.366	0.103704	0.00246644	0.103734	-1.36243	94892.4	-0.00117179	-5.65349	95971.9	54.2557	2	37	0.00514085	0.0495582	0	-3.21909	3.4	0.295637	0.175541	5.57398	2.0603e-06	4.80281e-06	7.15665e-06	6.81758e-06	4.152e-06	6.33407e-06	0.0339151	0.0140609	0.443452	7.9455e-06	5.86256e-06	2.31402e-06	1.09795e-05	5.7119e-06	1.88242e-06	9.63735	0.229209	9.64008	1.36243	54255.6	2.28124e+06	2.28189e+06	-88.6376	0.0000000E+000	0.0000000E+000	0.0000000E+000	88.6376	0.0000000E+000	0.0000000E+000	0.0000000E+000	-88.6376	0.0000000E+000	0.0000000E+000	0.0000000E+000	-1.36243	0.0000000E+000	0.0000000E+000	0.0000000E+000	1.36243	42.0462	88.6376	-0.00210544
335.537	0.104761	0.00225959	0.104786	-1.23562	94896.2	-0.001201	-5.13251	209918	97.6124	2	37	0.00535359	0.0510908	0	-3.2251	3.4	0.194805	0.146068	5.3501	4.46026e-06	3.87145e-06	3.08931e-06	5.60569e-06	3.3866e-06	3.51005e-06	0.0548027	0.0170281	0.423871	9.33022e-06	2.0405e-05	5.77478e-06	1.43428e-05	3.04989e-06	3.71687e-06	9.54107	0.20579	9.54329	1.23562	97612.6	4.52561e+06	4.52666e+06	-88.7644	0.0000000E+000	0.0000000E+000	0.0000000E+000	88.7644	0.0000000E+000	0.0000000E+000	0.0000000E+000	-88.7644	0.0000000E+000	0.0000000E+000	0.0000000E+000	-1.23562	0.0000000E+000	0.0000000E+000	0.0000000E+000	1.23562	46.363	88.7644	-0.0015887
167.481	0.10572	0.0022866	0.105745	-1.23905	94899.7	-0.00118025	-5.39029	415591	194.325	2	37	0.00542046	0.0512599	0	-3.23011	3.4	0.298888	0.208888	5.26657	6.17263e-06	7.47557e-06	3.83213e-06	6.22269e-06	6.75176e-06	5.00966e-06	0.0715095	0.0259015	0.420603	6.13791e-06	2.47225e-05	6.62747e-06	2.43953e-05	5.21569e-06	2.96318e-06	9.45454	0.20449	9.45675	1.23905	194324	8.98453e+06	8.98663e+06	-88.761	0.0000000E+000	0.0000000E+000	0.0000000E+000	88.761	0.0000000E+000	0.0000000E+000	0.0000000E+000	-88.761	0.0000000E+000	0.0000000E+000	0.0000000E+000	-1.23905	0.0000000E+000	0.0000000E+000	0.0000000E+000	1.23905	46.2346	88.761	-0.00169704
83.635	0.106667	0.00233118	0.106692	-1.25199	94903.3	-0.00118245	-5.8957	816313	389.711	2	37	0.00493927	0.0462946	0	-3.23579	3.4	0.363946	0.178172	5.7832	6.45832e-06	6.856e-06	9.59745e-06	5.91803e-06	4.91133e-06	7.08435e-06	0.118412	0.0267189	0.468891	1.39411e-05	3.6919e-05	6.5916e-06	3.39332e-05	5.39772e-06	7.93092e-06	9.37053	0.204791	9.37276	1.25199	389712	1.78318e+07	1.78361e+07	-88.748	0.0000000E+000	0.0000000E+000	0.0000000E+000	88.748	0.0000000E+000	0.0000000E+000	0.0000000E+000	-88.748	0.0000000E+000	0.0000000E+000	0.0000000E+000	-1.25199	0.0000000E+000	0.0000000E+000	0.0000000E+000	1.25199	45.7565	88.748	-0.00181478
41.7501	0.107552	0.00258363	0.107583	-1.37611	94906.6	-0.00117561	-4.8911	1.47548e+06	850.955	2	37	0.00496943	0.0461917	0	-3.24075	3.4	0.30491	0.232999	5.69986	5.04106e-06	5.56386e-06	7.21326e-06	4.98554e-06	5.93898e-06	5.71672e-06	0.12504	0.0753194	0.471343	9.63879e-06	3.3645e-05	9.02411e-06	3.62367e-05	2.53725e-05	6.65009e-06	9.29248	0.223226	9.29517	1.37611	850955	3.54237e+07	3.54339e+07	-88.6239	0.0000000E+000	0.0000000E+000	0.0000000E+000	88.6239	0.0000000E+000	0.0000000E+000	0.0000000E+000	-88.6239	0.0000000E+000	0.0000000E+000	0.0000000E+000	-1.37611	0.0000000E+000	0.0000000E+000	0.0000000E+000	1.37611	41.6282	88.6239	-0.00147926
20.8333	0.108652	0.00293556	0.108692	-1.54764	94909.9	-0.0011738	-5.49885	2.60238e+06	1898.28	2	37	0.00497047	0.04573	0	-3.24549	3.4	0.353943	0.18009	5.69886	8.98819e-06	7.29733e-06	5.25753e-06	4.70001e-06	7.76318e-06	2.3358e-06	0.118225	0.109098	0.471453	1.23189e-05	3.44922e-05	4.67405e-06	3.47298e-05	1.05465e-05	1.26127e-05	9.19698	0.248484	9.20034	1.54764	1.89829e+06	7.02598e+07	7.02855e+07	-88.4524	0.0000000E+000	0.0000000E+000	0.0000000E+000	88.4524	0.0000000E+000	0.0000000E+000	0.0000000E+000	-88.4524	0.0000000E+000	0.0000000E+000	0.0000000E+000	-1.54764	0.0000000E+000	0.0000000E+000	0.0000000E+000	1.54764	37.0123	88.4524	-0.00165268
10.3959	0.109882	0.00347821	0.109937	-1.81304	94913.2	-0.00116897	-5.82924	4.40152e+06	4405.84	2	37	0.00497209	0.0452267	0	-3.25103	3.4	0.307986	0.168209	5.78812	4.97996e-06	6.39867e-06	3.33922e-06	6.17776e-06	4.79232e-06	7.82324e-06	0.155197	0.142509	0.45637	1.8412e-05	3.38113e-05	1.25569e-05	5.03214e-05	1.38462e-05	8.08576e-06	9.09157	0.287786	9.09612	1.81304	4.40584e+06	1.39187e+08	1.39257e+08	-88.187	0.0000000E+000	0.0000000E+000	0.0000000E+000	88.187	0.0000000E+000	0.0000000E+000	0.0000000E+000	-88.187	0.0000000E+000	0.0000000E+000	0.0000000E+000	-1.81304	0.0000000E+000	0.0000000E+000	0.0000000E+000	1.81304	31.5915	88.187	-0.00200614
5.19276	0.111182	0.00469238	0.111281	-2.41671	94917.4	-0.00117064	-5.03522	6.53174e+06	11613.8	2	37	0.00497056	0.0446669	0	-3.25646	3.4	0.195173	0.157988	3.28273	3.44598e-06	5.49045e-06	4.06574e-06	2.66989e-06	2.75337e-06	3.65825e-06	0.163498	0.137417	0.340873	1.22358e-05	5.92513e-05	1.21427e-05	3.43755e-05	9.07462e-06	1.12314e-05	8.97829	0.378926	8.98629	2.41671	1.16138e+07	2.75179e+08	2.75424e+08	-87.5833	0.0000000E+000	0.0000000E+000	0.0000000E+000	87.5833	0.0000000E+000	0.0000000E+000	0.0000000E+000	-87.5833	0.0000000E+000	0.0000000E+000	0.0000000E+000	-2.41671	0.0000000E+000	0.0000000E+000	0.0000000E+000	2.41671	23.6941	87.5833	-0.0021069
2.58949	0.112883	0.00684808	0.11309	-3.47162	94924.2	-0.00117643	-5.42893	8.97504e+06	32909.7	2	37	0.00497187	0.0439638	0	-3.26741	3.4	0.174513	0.0870511	2.14217	1.37236e-06	5.54105e-06	2.22495e-06	4.37453e-06	2.7595e-06	2.24954e-06	0.175839	0.205079	0.303254	2.50808e-05	4.1078e-05	1.04077e-05	3.64269e-05	4.21722e-05	9.61142e-06	8.82627	0.535449	8.84249	3.47162	3.29097e+07	5.42478e+08	5.43475e+08	-86.5284	0.0000000E+000	0.0000000E+000	0.0000000E+000	86.5284	0.0000000E+000	0.0000000E+000	0.0000000E+000	-86.5284	0.0000000E+000	0.0000000E+000	0.0000000E+000	-3.47162	0.0000000E+000	0.0000000E+000	0.0000000E+000	3.47162	16.4839	86.5284	-0.00454956
1.29325	0.115447	0.0101797	0.115895	-5.0391	94936.7	-0.00117073	-5.03114	1.20893e+07	93270	2	37	0.00496632	0.0428518	0	-3.28708	3.4	0.149378	0.0778131	1.51369	3.04202e-06	2.93074e-06	2.78821e-06	4.34518e-06	1.2046e-06	1.53115e-06	0.12352	0.2848	0.311385	2.88548e-05	2.31526e-05	1.2503e-05	3.26476e-05	9.258e-06	7.90913e-06	8.59513	0.757887	8.62848	5.0391	9.32701e+07	1.05777e+09	1.06187e+09	-84.9609	0.0000000E+000	0.0000000E+000	0.0000000E+000	84.9609	0.0000000E+000	0.0000000E+000	0.0000000E+000	-84.9609	0.0000000E+000	0.0000000E+000	0.0000000E+000	-5.0391	0.0000000E+000	0.0000000E+000	0.0000000E+000	5.0391	11.3409	84.9609	-0.00861022
0.645874	0.119679	0.0145861	0.120564	-6.94877	94960.7	-0.00118226	-5.73921	1.6894e+07	247271	2	37	0.00496436	0.0411761	0	-3.32518	3.4	0.130921	0.0937357	1.07869	2.03421e-06	3.9089e-06	8.12821e-07	3.09327e-06	2.01907e-06	1.51986e-06	0.289025	0.715642	0.414756	7.39502e-05	5.20634e-05	3.29268e-05	5.50934e-05	2.70337e-05	1.47664e-05	8.23341	1.00346	8.29434	6.94877	2.47272e+08	2.02886e+09	2.04387e+09	-83.0512	0.0000000E+000	0.0000000E+000	0.0000000E+000	83.0512	0.0000000E+000	0.0000000E+000	0.0000000E+000	-83.0512	0.0000000E+000	0.0000000E+000	0.0000000E+000	-6.94877	0.0000000E+000	0.0000000E+000	0.0000000E+000	6.94877	8.20499	83.0512	-0.0180527
0.322118	0.126179	0.0209534	0.127906	-9.42861	95007.5	-0.0011868	-5.38462	2.35803e+07	632812	2	37	0.00495948	0.0387743	0	-3.3941	3.4	0.125688	0.107355	0.770748	3.19e-06	2.60671e-06	7.85676e-07	3.95373e-06	1.6842e-06	1.32901e-06	0.313653	0.907358	0.390817	8.72461e-05	5.79566e-05	2.65815e-05	4.19803e-05	2.05211e-05	1.56267e-05	7.71259	1.28077	7.81821	9.42861	6.32812e+08	3.8107e+09	3.86289e+09	-80.5714	0.0000000E+000	0.0000000E+000	0.0000000E+000	80.5714	0.0000000E+000	0.0000000E+000	0.0000000E+000	-80.5714	0.0000000E+000	0.0000000E+000	0.0000000E+000	-9.42861	0.0000000E+000	0.0000000E+000	0.0000000E+000	9.42861	6.02185	80.5714	-0.0343712
0.160792	0.136349	0.0295657	0.139518	-12.2345	95100.5	-0.00120086	-5.60837	3.34785e+07	1.50343e+06	2	37	0.00495661	0.0355267	0	-3.52946	3.4	0.132406	0.0877192	0.555909	2.84697e-06	3.77815e-06	1.73106e-06	3.74767e-06	9.27355e-07	7.98613e-07	0.397948	1.90341	0.488644	8.82473e-05	7.09385e-05	3.72623e-05	4.48541e-05	2.61413e-05	2.37293e-05	7.00476	1.5189	7.16754	12.2345	1.50343e+09	6.93342e+09	7.09455e+09	-77.7655	0.0000000E+000	0.0000000E+000	0.0000000E+000	77.7655	0.0000000E+000	0.0000000E+000	0.0000000E+000	-77.7655	0.0000000E+000	0.0000000E+000	0.0000000E+000	-12.2345	0.0000000E+000	0.0000000E+000	0.0000000E+000	12.2345	4.61173	77.7655	-0.0489482
0.0802383	0.150205	0.0409731	0.155693	-15.258	95285.7	-0.00117109	-5.07359	4.84105e+07	3.35272e+06	2	37	0.00494799	0.0317804	0	-3.80761	3.4	0.12133	0.0752812	0.394092	2.06911e-06	4.03006e-06	1.51412e-06	3.21349e-06	1.19694e-06	9.18849e-07	0.800553	3.3907	0.831033	0.000182704	0.000128913	6.10524e-05	3.76123e-05	3.22424e-05	2.34843e-05	6.19649	1.69028	6.42289	15.258	3.35272e+09	1.22909e+10	1.274e+10	-74.742	0.0000000E+000	0.0000000E+000	0.0000000E+000	74.742	0.0000000E+000	0.0000000E+000	0.0000000E+000	-74.742	0.0000000E+000	0.0000000E+000	0.0000000E+000	-15.258	0.0000000E+000	0.0000000E+000	0.0000000E+000	15.258	3.66595	74.742	-0.125921
0.04008	0.180928	0.0488024	0.187394	-15.0954	95655.8	-0.00117984	-5.46924	8.13676e+07	5.51851e+06	2	37	0.00494079	0.0263658	0	-4.37821	3.4	0.117479	0.114006	0.313716	2.48774e-06	3.43924e-06	2.30447e-06	2.38649e-06	1.19948e-06	8.84612e-07	2.00113	4.08633	2.57245	0.000376474	0.00024033	0.00018429	0.000109595	0.000120768	5.00223e-05	5.15221	1.38972	5.33634	15.0954	5.51851e+09	2.04591e+10	2.11903e+10	-74.9046	0.0000000E+000	0.0000000E+000	0.0000000E+000	74.9046	0.0000000E+000	0.0000000E+000	0.0000000E+000	-74.9046	0.0000000E+000	0.0000000E+000	0.0000000E+000	-15.0954	0.0000000E+000	0.0000000E+000	0.0000000E+000	15.0954	3.70736	74.9046	-0.221573
0.0199946	0.207493	0.036295	0.210644	-9.92186	96396.3	-0.00116916	-5.3601	2.19311e+08	6.51114e+06	2	37	0.00493664	0.0234359	0	-5.41314	3.4	0.14796	0.179437	0.244305	3.38576e-06	3.99007e-06	1.66214e-06	4.18446e-06	1.22481e-06	8.00972e-07	3.84914	0.446533	4.56634	7.98558e-05	0.000116001	0.000606285	0.000437792	0.000471081	0.000108064	4.67635	0.817993	4.74735	9.92186	6.51114e+09	3.72232e+10	3.77884e+10	-80.0781	0.0000000E+000	0.0000000E+000	0.0000000E+000	80.0781	0.0000000E+000	0.0000000E+000	0.0000000E+000	-80.0781	0.0000000E+000	0.0000000E+000	0.0000000E+000	-9.92186	0.0000000E+000	0.0000000E+000	0.0000000E+000	9.92186	5.71686	80.0781	-0.440454
138435	0.0982383	-0.00766515	0.0985369	4.46153	96399.7	-0.00109411	-7.12952	-149.987	-0.907604	3	37	0.00520606	0.0528336	0	-5.4223	3.4	-1	-1	-1	0	0	0	0	0	0	-1	-1	-1	0	0	0	0	0	0	10.1177	-0.789447	10.1485	-4.46153	-907.604	11632.1	11667.4	-94.4615	0.0000000E+000	0.0000000E+000	0.0000000E+000	94.4615	0.0000000E+000	0.0000000E+000	0.0000000E+000	-94.4615	0.0000000E+000	0.0000000E+000	0.0000000E+000	4.46153	0.0000000E+000	0.0000000E+000	0.0000000E+000	-4.46153	12.8162	85.5385	-0.00228873
69097	0.0990868	-0.00421836	0.0991765	2.43775	96403.2	-0.00109208	-5.63162	-546.031	-0.987841	3	37	0.00521619	0.052595	0	-5.42783	3.4	0.304173	0.194319	5.36617	5.92687e-06	4.87074e-06	5.22071e-06	9.1999e-06	2.6942e-06	6.40372e-06	0.108459	0.0554547	0.406845	1.25111e-05	5.47125e-05	4.84532e-06	6.64325e-06	3.10922e-06	2.35321e-06	10.0739	-0.42887	10.083	-2.43775	-987.84	23203.8	23224.8	-92.4377	0.0000000E+000	0.0000000E+000	0.0000000E+000	92.4377	0.0000000E+000	0.0000000E+000	0.0000000E+000	-92.4377	0.0000000E+000	0.0000000E+000	0.0000000E+000	2.43775	0.0000000E+000	0.0000000E+000	0.0000000E+000	-2.43775	23.4894	87.5623	-0.00167566
34488.2	0.0989974	-0.00176457	0.0990131	1.02115	96406.6	-0.00109156	-4.55587	-2615.24	-0.830619	3	37	0.00518379	0.0523546	0	-5.43245	3.4	0.343408	0.159278	5.40084	3.18939e-06	8.78155e-06	5.40849e-06	6.73714e-06	1.09494e-05	3.83106e-06	0.11939	0.0502535	0.404689	9.8853e-06	5.99393e-05	2.82055e-06	1.24277e-05	4.48657e-06	3.79314e-06	10.0981	-0.179992	10.0997	-1.02115	-830.622	46600.2	46607.6	-91.0212	0.0000000E+000	0.0000000E+000	0.0000000E+000	91.0212	0.0000000E+000	0.0000000E+000	0.0000000E+000	-91.0212	0.0000000E+000	0.0000000E+000	0.0000000E+000	1.02115	0.0000000E+000	0.0000000E+000	0.0000000E+000	-1.02115	56.103	88.9788	-0.00142539
17211.6	0.0993168	-0.000196547	0.099317	0.113387	96410	-0.00109251	-5.1634	-47047.1	-0.184254	3	37	0.0051641	0.0519961	0	-5.437	3.4	0.296833	0.19288	5.43852	6.69611e-06	8.23813e-06	6.36882e-06	4.73646e-06	4.74419e-06	3.01422e-06	0.120647	0.0127805	0.423083	3.18386e-06	6.15027e-05	3.85763e-06	9.78589e-06	4.30007e-06	2.09959e-06	10.0687	-0.0199259	10.0688	-0.113387	-184.255	93105.2	93105.4	-90.1134	0.0000000E+000	0.0000000E+000	0.0000000E+000	90.1134	0.0000000E+000	0.0000000E+000	0.0000000E+000	-90.1134	0.0000000E+000	0.0000000E+000	0.0000000E+000	0.113387	0.0000000E+000	0.0000000E+000	0.0000000E+000	-0.113387	505.309	89.8866	-0.00150431
8590.41	0.0998307	0.000871184	0.0998345	-0.499985	96413.5	-0.0011991	-6.0037	21266.5	1.6194	3	37	0.00525063	0.0525934	0	-5.44219	3.4	0.273288	0.11117	5.43344	5.707e-06	6.43216e-06	5.43182e-06	4.97672e-06	4.89698e-06	5.47581e-06	0.12799	0.0594453	0.424009	7.75385e-06	6.48172e-05	8.64966e-06	1.20718e-05	4.19506e-06	3.36603e-06	10.0162	0.0874075	10.0166	0.499985	1619.4	185571	185578	-89.5	0.0000000E+000	0.0000000E+000	0.0000000E+000	89.5	0.0000000E+000	0.0000000E+000	0.0000000E+000	-89.5	0.0000000E+000	0.0000000E+000	0.0000000E+000	-0.499985	0.0000000E+000	0.0000000E+000	0.0000000E+000	0.499985	114.592	89.5	-0.00182489
4288.63	0.10059	0.00161351	0.100603	-0.918972	96417.4	-0.00121755	-5.29078	23000	5.9163	3	37	0.00518653	0.0515543	0	-5.44768	3.4	0.27527	0.134039	5.45312	6.82334e-06	4.66353e-06	6.53971e-06	3.01886e-06	3.9098e-06	6.21211e-06	0.0956912	0.0302474	0.43193	3.699e-06	4.76465e-05	4.81587e-06	9.54959e-06	2.52255e-06	4.20141e-06	9.93876	0.159422	9.94004	0.918972	5916.28	368836	368884	-89.081	0.0000000E+000	0.0000000E+000	0.0000000E+000	89.081	0.0000000E+000	0.0000000E+000	0.0000000E+000	-89.081	0.0000000E+000	0.0000000E+000	0.0000000E+000	-0.918972	0.0000000E+000	0.0000000E+000	0.0000000E+000	0.918972	62.3424	89.081	-0.00188073
2140.69	0.101778	0.00217592	0.101802	-1.22474	96421.3	-0.00121365	-5.91731	34168.4	15.6099	3	37	0.00515702	0.0506575	0	-5.45389	3.4	0.33578	0.190576	5.53584	1.06176e-05	6.39795e-06	7.07912e-06	3.3742e-06	5.33196e-06	6.18076e-06	0.0645063	0.030003	0.431067	6.15861e-06	3.02934e-05	3.32248e-06	7.38736e-06	4.93448e-06	2.04598e-06	9.82078	0.209958	9.82302	1.22474	15609.9	730152	730318	-88.7753	0.0000000E+000	0.0000000E+000	0.0000000E+000	88.7753	0.0000000E+000	0.0000000E+000	0.0000000E+000	-88.7753	0.0000000E+000	0.0000000E+000	0.0000000E+000	-1.22474	0.0000000E+000	0.0000000E+000	0.0000000E+000	1.22474	46.775	88.7753	-0.00221044
1068.29	0.102826	0.00233718	0.102853	-1.30208	96425.3	-0.00120879	-4.94411	63743.6	32.9149	3	37	0.00513535	0.0499292	0	-5.45985	3.4	0.342028	0.187648	5.46144	7.84967e-06	5.73305e-06	6.4251e-06	7.73232e-06	5.63931e-06	6.0758e-06	0.0317597	0.0931027	0.444825	6.31338e-06	7.50312e-06	4.22988e-06	6.33868e-06	7.49811e-06	4.29688e-06	9.72014	0.220934	9.72265	1.30208	32914.8	1.44811e+06	1.44849e+06	-88.6979	0.0000000E+000	0.0000000E+000	0.0000000E+000	88.6979	0.0000000E+000	0.0000000E+000	0.0000000E+000	-88.6979	0.0000000E+000	0.0000000E+000	0.0000000E+000	-1.30208	0.0000000E+000	0.0000000E+000	0.0000000E+000	1.30208	43.9957	88.6979	-0.001826
533.464	0.104097	0.00239536	0.104125	-1.31819	96429.3	-0.00118493	-5.68206	124550	65.9139	3	37	0.00506854	0.0486775	0	-5.46579	3.4	0.336879	0.162653	5.5993	5.90358e-06	1.01042e-05	7.94401e-06	4.10625e-06	4.41246e-06	3.63443e-06	0.0436557	0.0171831	0.455433	8.24395e-06	1.02531e-05	5.18503e-06	1.51503e-05	2.4925e-06	2.45123e-06	9.60132	0.220934	9.60386	1.31819	65913.7	2.86448e+06	2.86524e+06	-88.6818	0.0000000E+000	0.0000000E+000	0.0000000E+000	88.6818	0.0000000E+000	0.0000000E+000	0.0000000E+000	-88.6818	0.0000000E+000	0.0000000E+000	0.0000000E+000	-1.31819	0.0000000E+000	0.0000000E+000	0.0000000E+000	1.31819	43.4579	88.6818	-0.0020196
266.278	0.105156	0.00230858	0.105181	-1.25767	96433.1	-0.00118985	-5.56593	258904	124.726	3	37	0.00502264	0.0477524	0	-5.47169	3.4	0.276526	0.196877	5.82072	6.53325e-06	4.86778e-06	6.49521e-06	6.02851e-06	3.58219e-06	2.96154e-06	0.0594488	0.0176421	0.466252	1.00314e-05	1.92229e-05	3.15394e-06	1.57292e-05	5.01137e-06	4.54384e-06	9.50513	0.208675	9.50742	1.25767	124726	5.68124e+06	5.68261e+06	-88.7423	0.0000000E+000	0.0000000E+000	0.0000000E+000	88.7423	0.0000000E+000	0.0000000E+000	0.0000000E+000	-88.7423	0.0000000E+000	0.0000000E+000	0.0000000E+000	-1.25767	0.0000000E+000	0.0000000E+000	0.0000000E+000	1.25767	45.5498	88.7423	-0.00206575
132.916	0.106114	0.00223578	0.106137	-1.20703	96436.4	-0.00117031	-5.12769	535566	237.65	3	37	0.00533831	0.0502964	0	-5.47643	3.4	0.27885	0.167694	5.34552	6.84298e-06	6.03356e-06	5.51268e-06	5.45646e-06	6.57998e-06	3.56655e-06	0.092922	0.0222417	0.4313	1.1251e-05	3.05377e-05	5.02233e-06	3.22449e-05	3.92864e-06	3.51455e-06	9.41968	0.19847	9.42177	1.20703	237651	1.12792e+07	1.12817e+07	-88.793	0.0000000E+000	0.0000000E+000	0.0000000E+000	88.793	0.0000000E+000	0.0000000E+000	0.0000000E+000	-88.793	0.0000000E+000	0.0000000E+000	0.0000000E+000	-1.20703	0.0000000E+000	0.0000000E+000	0.0000000E+000	1.20703	47.4615	88.793	-0.00161948
66.3374	0.107009	0.0022849	0.107034	-1.22321	96439.7	-0.00116327	-5.74231	1.05001e+06	478.506	3	37	0.00541993	0.0506375	0	-5.48159	3.4	0.276506	0.142079	5.23189	6.14017e-06	5.10231e-06	5.36928e-06	4.46805e-06	6.61885e-06	6.20448e-06	0.104123	0.0172419	0.437706	7.06574e-06	3.35274e-05	5.32989e-06	3.8745e-05	4.45088e-06	5.58813e-06	9.34071	0.199446	9.34284	1.22321	478506	2.241e+07	2.24151e+07	-88.7768	0.0000000E+000	0.0000000E+000	0.0000000E+000	88.7768	0.0000000E+000	0.0000000E+000	0.0000000E+000	-88.7768	0.0000000E+000	0.0000000E+000	0.0000000E+000	-1.22321	0.0000000E+000	0.0000000E+000	0.0000000E+000	1.22321	46.8333	88.7768	-0.00178643
33.1038	0.107842	0.00266987	0.107875	-1.41819	96443.1	-0.00116066	-5.25462	1.80074e+06	1103.03	3	37	0.00543458	0.0503784	0	-5.48693	3.4	0.300231	0.16418	5.23381	4.84266e-06	5.50551e-06	8.96458e-06	5.96415e-06	4.89903e-06	4.9469e-06	0.112293	0.0251095	0.465094	6.80659e-06	3.69878e-05	4.78028e-06	4.04217e-05	8.07667e-06	5.24089e-06	9.26712	0.229428	9.26996	1.41819	1.10303e+06	4.4554e+07	4.45676e+07	-88.5818	0.0000000E+000	0.0000000E+000	0.0000000E+000	88.5818	0.0000000E+000	0.0000000E+000	0.0000000E+000	-88.5818	0.0000000E+000	0.0000000E+000	0.0000000E+000	-1.41819	0.0000000E+000	0.0000000E+000	0.0000000E+000	1.41819	40.3923	88.5818	-0.00178286
16.5286	0.109146	0.00324673	0.109195	-1.70385	96446.3	-0.00117488	-5.29439	2.96577e+06	2621.97	3	37	0.0054435	0.0498513	0	-5.49153	3.4	0.292779	0.134049	5.18724	7.83021e-06	6.75112e-06	4.19655e-06	5.49889e-06	6.3142e-06	2.6283e-06	0.1939	0.0626604	0.41401	1.13636e-05	8.70605e-05	1.0083e-05	3.70039e-05	9.88221e-06	4.24753e-06	9.15391	0.272297	9.15796	1.70385	2.62197e+06	8.81436e+07	8.81826e+07	-88.2961	0.0000000E+000	0.0000000E+000	0.0000000E+000	88.2961	0.0000000E+000	0.0000000E+000	0.0000000E+000	-88.2961	0.0000000E+000	0.0000000E+000	0.0000000E+000	-1.70385	0.0000000E+000	0.0000000E+000	0.0000000E+000	1.70385	33.6173	88.2961	-0.001781
8.24973	0.110267	0.00377141	0.110332	-1.9589	96449.8	-0.00116908	-5.85392	5.11536e+06	5977.02	3	37	0.00543647	0.049274	0	-5.49659	3.4	0.228128	0.0996319	3.69137	4.03239e-06	4.66257e-06	5.31694e-06	3.45011e-06	5.27285e-06	4.89076e-06	0.182135	0.0740525	0.318587	4.0516e-05	3.41314e-05	8.02585e-06	3.67896e-05	6.06684e-05	6.47772e-06	9.05829	0.309816	9.06359	1.9589	5.97701e+06	1.74754e+08	1.74856e+08	-88.0411	0.0000000E+000	0.0000000E+000	0.0000000E+000	88.0411	0.0000000E+000	0.0000000E+000	0.0000000E+000	-88.0411	0.0000000E+000	0.0000000E+000	0.0000000E+000	-1.9589	0.0000000E+000	0.0000000E+000	0.0000000E+000	1.9589	29.2376	88.0411	-0.00147322
4.11618	0.111811	0.00542583	0.111943	-2.77819	96454.6	-0.00116669	-4.94184	7.12624e+06	16741.7	3	37	0.00543781	0.0485766	0	-5.50334	3.4	0.167845	0.0988506	2.58086	4.68498e-06	4.01543e-06	2.31716e-06	3.02247e-06	2.98869e-06	3.56524e-06	0.135832	0.138121	0.303884	9.9844e-06	4.18097e-05	2.5963e-05	3.7512e-05	1.20075e-05	1.0402e-05	8.92262	0.432984	8.93312	2.77819	1.67417e+07	3.45e+08	3.45406e+08	-87.2218	0.0000000E+000	0.0000000E+000	0.0000000E+000	87.2218	0.0000000E+000	0.0000000E+000	0.0000000E+000	-87.2218	0.0000000E+000	0.0000000E+000	0.0000000E+000	-2.77819	0.0000000E+000	0.0000000E+000	0.0000000E+000	2.77819	20.6073	87.2218	-0.00227006
2.05457	0.11371	0.00786639	0.113982	-3.95736	96462.9	-0.00116987	-5.14961	9.84744e+06	46902.9	3	37	0.00543592	0.0476909	0	-5.51598	3.4	0.159205	0.0987339	1.70501	2.65663e-06	3.77954e-06	3.11631e-06	4.1941e-06	3.80878e-06	1.42135e-06	0.175373	0.224902	0.292876	3.68931e-05	3.64259e-05	1.74159e-05	4.53367e-05	1.87958e-05	2.97513e-05	8.75238	0.605481	8.7733	3.95736	4.69029e+07	6.77992e+08	6.79613e+08	-86.0426	0.0000000E+000	0.0000000E+000	0.0000000E+000	86.0426	0.0000000E+000	0.0000000E+000	0.0000000E+000	-86.0426	0.0000000E+000	0.0000000E+000	0.0000000E+000	-3.95736	0.0000000E+000	0.0000000E+000	0.0000000E+000	3.95736	14.4552	86.0426	-0.00425144
1.02607	0.116662	0.0111731	0.117196	-5.47074	96478.4	-0.00117108	-5.74553	1.38825e+07	126181	3	37	0.00543237	0.0463529	0	-5.53788	3.4	0.141297	0.0476492	1.227	2.09895e-06	3.37731e-06	1.92671e-06	5.36393e-06	1.93836e-06	1.24605e-06	0.152902	0.25512	0.281791	1.70531e-05	4.19874e-05	1.49393e-05	4.4052e-05	1.36326e-05	1.09907e-05	8.49387	0.813488	8.53273	5.47074	1.26181e+08	1.31749e+09	1.32352e+09	-84.5293	0.0000000E+000	0.0000000E+000	0.0000000E+000	84.5293	0.0000000E+000	0.0000000E+000	0.0000000E+000	-84.5293	0.0000000E+000	0.0000000E+000	0.0000000E+000	-5.47074	0.0000000E+000	0.0000000E+000	0.0000000E+000	5.47074	10.4413	84.5293	-0.0058069
0.511825	0.121664	0.0164764	0.122774	-7.71241	96508.3	-0.00116387	-5.66814	1.88728e+07	339896	3	37	0.00542952	0.0442236	0	-5.5815	3.4	0.130871	0.0740694	0.866373	9.69493e-07	4.83764e-06	1.76731e-06	4.23629e-06	1.82222e-06	8.40021e-07	0.142039	0.763376	0.289102	2.91149e-05	2.88748e-05	9.45491e-06	3.90546e-05	1.28054e-05	9.63876e-06	8.07135	1.09307	8.14503	7.71241	3.39896e+08	2.50983e+09	2.53274e+09	-82.2876	0.0000000E+000	0.0000000E+000	0.0000000E+000	82.2876	0.0000000E+000	0.0000000E+000	0.0000000E+000	-82.2876	0.0000000E+000	0.0000000E+000	0.0000000E+000	-7.71241	0.0000000E+000	0.0000000E+000	0.0000000E+000	7.71241	7.38411	82.2876	-0.0132647
0.255612	0.12943	0.0237011	0.131582	-10.377	96567.1	-0.00118777	-5.48734	2.62706e+07	852349	3	37	0.00542556	0.0412334	0	-5.67933	3.4	0.120737	0.0754343	0.624387	2.91654e-06	3.32602e-06	7.36969e-07	4.19569e-06	1.60271e-06	9.37629e-07	0.342758	1.55141	0.355698	0.000100127	7.1408e-05	2.125e-05	5.54348e-05	1.63226e-05	1.86758e-05	7.47553	1.36892	7.59984	10.377	8.52349e+08	4.65459e+09	4.73199e+09	-79.623	0.0000000E+000	0.0000000E+000	0.0000000E+000	79.623	0.0000000E+000	0.0000000E+000	0.0000000E+000	-79.623	0.0000000E+000	0.0000000E+000	0.0000000E+000	-10.377	0.0000000E+000	0.0000000E+000	0.0000000E+000	10.377	5.4609	79.623	-0.0378159
0.127525	0.140365	0.0319502	0.143955	-12.8233	96684	-0.00114782	-4.80153	3.90617e+07	1.92417e+06	3	37	0.00541921	0.0376451	0	-5.8383	3.4	0.119125	0.0857467	0.445307	1.68108e-06	4.1479e-06	7.6551e-07	4.0093e-06	1.8398e-06	1.05518e-06	0.865616	1.37523	0.65744	0.000289964	9.41591e-05	5.68224e-05	4.7649e-05	3.44515e-05	3.47003e-05	6.77334	1.54177	6.9466	12.8233	1.92417e+09	8.45334e+09	8.66956e+09	-77.1767	0.0000000E+000	0.0000000E+000	0.0000000E+000	77.1767	0.0000000E+000	0.0000000E+000	0.0000000E+000	-77.1767	0.0000000E+000	0.0000000E+000	0.0000000E+000	-12.8233	0.0000000E+000	0.0000000E+000	0.0000000E+000	12.8233	4.39324	77.1767	-0.0716578
0.0636941	0.158791	0.0458242	0.165271	-16.0971	96917.3	-0.00116774	-5.61381	5.45288e+07	4.192e+06	3	37	0.00540838	0.0327243	0	-6.21683	3.4	0.113957	0.124675	0.335516	2.17706e-06	3.38839e-06	1.18431e-06	3.68529e-06	2.15836e-06	7.32066e-07	1.29915	3.71785	1.05991	0.000342526	0.000196944	0.000103315	8.42695e-05	5.60948e-05	3.93875e-05	5.81343	1.67765	6.05066	16.0971	4.192e+09	1.45262e+10	1.5119e+10	-73.9029	0.0000000E+000	0.0000000E+000	0.0000000E+000	73.9029	0.0000000E+000	0.0000000E+000	0.0000000E+000	-73.9029	0.0000000E+000	0.0000000E+000	0.0000000E+000	-16.0971	0.0000000E+000	0.0000000E+000	0.0000000E+000	16.0971	3.46523	73.9029	-0.15348
0.0317924	0.191182	0.0457502	0.19658	-13.4579	97383.5	-0.00117591	-5.37676	1.09422e+08	5.92668e+06	3	37	0.00540399	0.0274901	0	-6.85979	3.4	0.131636	0.164963	0.25803	3.36714e-06	4.05106e-06	9.29928e-07	3.69531e-06	2.37873e-06	9.23385e-07	2.8823	0.939204	4.54548	0.000585331	0.000411482	0.000256264	0.000136885	0.000148687	5.03768e-05	4.94731	1.1839	5.08699	13.4579	5.92668e+09	2.47665e+10	2.54658e+10	-76.5421	0.0000000E+000	0.0000000E+000	0.0000000E+000	76.5421	0.0000000E+000	0.0000000E+000	0.0000000E+000	-76.5421	0.0000000E+000	0.0000000E+000	0.0000000E+000	-13.4579	0.0000000E+000	0.0000000E+000	0.0000000E+000	13.4579	4.17882	76.5421	-0.262681
0.0199946	0.207423	0.0364252	0.210597	-9.96007	97931.6	-0.00116729	-5.48483	2.18527e+08	6.53742e+06	3	37	0.00540213	0.0256516	0	-7.67754	3.4	0.116985	0.138882	0.225147	1.3558e-06	3.80656e-06	1.60656e-06	3.71532e-06	1.81022e-06	1.00173e-06	3.84547	0.402696	4.72268	9.28384e-05	0.000117261	0.000663756	0.00045045	0.000541594	0.000110396	4.67685	0.821294	4.74842	9.96007	6.53742e+09	3.72272e+10	3.77969e+10	-80.0399	0.0000000E+000	0.0000000E+000	0.0000000E+000	80.0399	0.0000000E+000	0.0000000E+000	0.0000000E+000	-80.0399	0.0000000E+000	0.0000000E+000	0.0000000E+000	-9.96007	0.0000000E+000	0.0000000E+000	0.0000000E+000	9.96007	5.69449	80.0399	-0.469838