File: Python/Experiments/IRFB/240515-Paper-1p5M_FeCl2FeCl3-1M_HCl/Data/240515-EIS-Paper-1p5M_FeCl2FeCl3-1M_HCl-Wamup_10mLmin-4xFlowRate-20mHz_10ppd_05_PEIS_C15.mpt
EC-Lab ASCII FILE
Nb header lines : 75

Potentio Electrochemical Impedance Spectroscopy

Run on channel : 15 (SN 19485)
User :
Electrode connection : standard
Potential control : Ewe
Ewe ctrl range : min = -1.00 V, max = 1.00 V
Ewe,I filtering : 50 kHz
Safety Limits :
	Do not start on E overload
Channel : Grounded
Acquisition started on : 05/15/2024 11:35:32.904
Loaded Setting File :  C:\Data\mathias\IRFB\240507-EIS-Cloth-1p5M_FeCl2FeCl3-1M_HCl-Wamup_10mLmin-4xFlowRate-20mHz_10ppd.mps
Saved on :
	File : 240515-EIS-Paper-1p5M_FeCl2FeCl3-1M_HCl-Wamup_10mLmin-4xFlowRate-20mHz_10ppd_05_PEIS_C15.mpr
	Directory : C:\Data\mathias\IRFB\
	Host : 192.168.0.1
Device : VMP-300 (SN 0826)
Address : USB
EC-Lab for windows v11.52 (software)
Internet server v11.52 (firmware)
Command interpretor v11.52 (firmware)
Electrode material :
Initial state :
Electrolyte :
Comments :
Cable : special
Electrode surface area : 0.001 cm²
Characteristic mass : 0.001 g
Equivalent Weight : 0.000 g/eq.
Density : 0.000 g/cm3
Volume (V) : 0.001 cm³
Record EIS quality indicators
Cycle Definition : Charge/Discharge alternance
External device configuration :
   device type : Other
   device name : Other
   Analog OUT :
      mode : E/V
      unit : KNF Pump/ml/min
      max : 120.000 at 5.000 V
      min : 0.000 at 0.000 V
      current : 3.400
Mode                Single sine
E (V)               0.0000
vs.                 Eoc
tE (h:m:s)          0:00:0.0000
record              0
dI                  0.000
unit dI             mA
dt (s)              0.000
fi                  220.000
unit fi             kHz
ff                  20.000
unit ff             mHz
Nd                  10
Points              per decade
spacing             Logarithmic
Va (mV)             5.0
pw                  0.10
Na                  3
corr                0
E range min (V)     -1.000
E range max (V)     1.000
I Range             Auto
Bandwidth           8
nc cycles           2
goto Ns'            0
nr cycles           0
inc. cycle          0

freq/Hz	Re(Z)/Ohm	-Im(Z)/Ohm	|Z|/Ohm	Phase(Z)/deg	time/s	<Ewe>/V	<I>/mA	Cs/µF	Cp/µF	cycle number	I Range	|Ewe|/V	|I|/A	Ns	(Q-Qo)/mA.h	Analog OUT/V	THD Ewe/%	NSD Ewe/%	NSR Ewe/%	|Ewe h2|/V	|Ewe h3|/V	|Ewe h4|/V	|Ewe h5|/V	|Ewe h6|/V	|Ewe h7|/V	THD I/%	NSD I/%	NSR I/%	|I h2|/A	|I h3|/A	|I h4|/A	|I h5|/A	|I h6|/A	|I h7|/A	Re(Y)/Ohm-1	Im(Y)/Ohm-1	|Y|/Ohm-1	Phase(Y)/deg	Re(C)/nF	Im(C)/nF	|C|/nF	Phase(C)/deg	Re(M)	Im(M)	|M|	Phase(M)/deg	Re(Permittivity)	Im(Permittivity)	|Permittivity|	Phase(Permittivity)/deg	Re(Resistivity)/Ohm.cm	Im(Resistivity)/Ohm.cm	|Resistivity|/Ohm.cm	Phase(Resistivity)/deg	Re(Conductivity)/mS/cm	Im(Conductivity)/mS/cm	|Conductivity|/mS/cm	Phase(Conductivity)/deg	Tan(Delta)	Loss Angle(Delta)/deg	dq/mA.h
220003	0.0955063	-0.0120287	0.0962608	7.1784	98533.4	-0.00109648	-7.3331	-60.1415	-0.939099	1	37	0.00338463	0.035161	0	-0.00339527	4.6	-1	-1	-1	0	0	0	0	0	0	-1	-1	-1	0	0	0	0	0	0	10.307	-1.29813	10.3885	-7.1784	-939.1	7456.34	7515.24	-97.1784	0.0000000E+000	0.0000000E+000	0.0000000E+000	97.1784	0.0000000E+000	0.0000000E+000	0.0000000E+000	-97.1784	0.0000000E+000	0.0000000E+000	0.0000000E+000	7.1784	0.0000000E+000	0.0000000E+000	0.0000000E+000	-7.1784	7.93988	82.8216	-0.00339527
109811	0.0990506	-0.00616478	0.0992423	3.56142	98536.7	-0.00109247	-6.58979	-235.102	-0.90719	1	37	0.00523758	0.0527757	0	-0.00932262	4.6	-1	-1	-1	0	0	0	0	0	0	-1	-1	-1	0	0	0	0	0	0	10.0569	-0.625928	10.0763	-3.56142	-907.189	14576	14604.2	-93.5614	0.0000000E+000	0.0000000E+000	0.0000000E+000	93.5614	0.0000000E+000	0.0000000E+000	0.0000000E+000	-93.5614	0.0000000E+000	0.0000000E+000	0.0000000E+000	3.56142	0.0000000E+000	0.0000000E+000	0.0000000E+000	-3.56142	16.0672	86.4386	-0.00198353
54808.1	0.0993212	-0.00337758	0.0993786	1.94769	98540.2	-0.00110144	-6.2918	-859.744	-0.993106	1	37	0.00519046	0.0522291	0	-0.0155247	4.6	0.336356	0.156969	5.53595	5.76554e-06	1.05708e-05	4.81128e-06	4.80562e-06	3.46553e-06	6.82601e-06	0.111701	0.0437173	0.414623	5.60492e-06	5.73403e-05	3.23213e-06	6.60198e-06	2.96104e-06	2.85762e-06	10.0567	-0.341995	10.0625	-1.94769	-993.104	29203.3	29220.1	-91.9477	0.0000000E+000	0.0000000E+000	0.0000000E+000	91.9477	0.0000000E+000	0.0000000E+000	0.0000000E+000	-91.9477	0.0000000E+000	0.0000000E+000	0.0000000E+000	1.94769	0.0000000E+000	0.0000000E+000	0.0000000E+000	-1.94769	29.406	88.0523	-0.00205008
27362.3	0.0993194	-0.00112145	0.0993257	0.646917	98543.6	-0.00110181	-6.35981	-5186.67	-0.661184	1	37	0.00517745	0.052126	0	-0.0216875	4.6	0.315063	0.179873	5.4425	3.3701e-06	1.10776e-05	6.35176e-06	3.30927e-06	4.88045e-06	6.47466e-06	0.111361	0.0373512	0.414693	3.65364e-06	5.61073e-05	4.94055e-06	1.10784e-05	3.39098e-06	5.08197e-06	10.0672	-0.113672	10.0679	-0.646917	-661.186	58556.9	58560.6	-90.6469	0.0000000E+000	0.0000000E+000	0.0000000E+000	90.6469	0.0000000E+000	0.0000000E+000	0.0000000E+000	-90.6469	0.0000000E+000	0.0000000E+000	0.0000000E+000	0.646917	0.0000000E+000	0.0000000E+000	0.0000000E+000	-0.646917	88.5636	89.3531	-0.00206538
13658	0.0996477	0.00025042	0.099648	-0.143987	98547.1	-0.00110086	-6.68093	46533.5	0.293877	1	37	0.00514979	0.0516798	0	-0.0278113	4.6	0.338739	0.080207	5.45503	5.40767e-06	9.67897e-06	5.75653e-06	6.16811e-06	3.93296e-06	6.74566e-06	0.103601	0.0103593	0.412897	4.98081e-06	5.22049e-05	2.37424e-06	6.38356e-06	6.72439e-06	3.84703e-06	10.0353	0.0252192	10.0353	0.143987	293.882	116940	116941	-89.856	0.0000000E+000	0.0000000E+000	0.0000000E+000	89.856	0.0000000E+000	0.0000000E+000	0.0000000E+000	-89.856	0.0000000E+000	0.0000000E+000	0.0000000E+000	-0.143987	0.0000000E+000	0.0000000E+000	0.0000000E+000	0.143987	397.923	89.856	-0.00216246
6816.86	0.100296	0.0012943	0.100305	-0.739349	98550.6	-0.00122165	-7.15209	18038.5	3.00351	1	37	0.00518224	0.0516649	0	-0.034661	4.6	0.305987	0.152172	5.50592	7.85156e-06	8.91394e-06	3.26295e-06	3.57067e-06	5.65344e-06	5.96913e-06	0.114459	0.0467435	0.41947	5.97417e-06	5.63501e-05	8.54295e-06	1.31457e-05	2.93878e-06	3.09905e-06	9.96878	0.128645	9.96961	0.739349	3003.51	232744	232763	-89.2607	0.0000000E+000	0.0000000E+000	0.0000000E+000	89.2607	0.0000000E+000	0.0000000E+000	0.0000000E+000	-89.2607	0.0000000E+000	0.0000000E+000	0.0000000E+000	-0.739349	0.0000000E+000	0.0000000E+000	0.0000000E+000	0.739349	77.4906	89.2607	-0.00243459
3403.27	0.101235	0.00187242	0.101252	-1.05961	98554.6	-0.00122214	-6.87711	24975.8	8.54116	1	37	0.00516592	0.0510202	0	-0.042165	4.6	0.281452	0.199031	5.42518	5.60546e-06	8.2016e-06	3.97441e-06	3.53856e-06	5.33186e-06	6.80337e-06	0.0790153	0.0467444	0.422935	9.1088e-06	3.79779e-05	4.29944e-06	5.12896e-06	4.46552e-06	4.53197e-06	9.87461	0.182639	9.8763	1.05961	8541.15	461790	461868	-88.9404	0.0000000E+000	0.0000000E+000	0.0000000E+000	88.9404	0.0000000E+000	0.0000000E+000	0.0000000E+000	-88.9404	0.0000000E+000	0.0000000E+000	0.0000000E+000	-1.05961	0.0000000E+000	0.0000000E+000	0.0000000E+000	1.05961	54.0663	88.9404	-0.00242209
1698.37	0.102235	0.00230297	0.102261	-1.29044	98558.6	-0.00123023	-6.82437	40691.2	20.6375	1	37	0.0051484	0.0503457	0	-0.0500079	4.6	0.306015	0.213268	5.49893	6.9658e-06	8.00749e-06	4.78457e-06	4.14457e-06	6.19275e-06	5.9449e-06	0.0463723	0.0601642	0.442794	9.61944e-06	1.87687e-05	3.6429e-06	6.04913e-06	5.08742e-06	2.39595e-06	9.77642	0.220226	9.7789	1.29044	20637.4	916154	916386	-88.7096	0.0000000E+000	0.0000000E+000	0.0000000E+000	88.7096	0.0000000E+000	0.0000000E+000	0.0000000E+000	-88.7096	0.0000000E+000	0.0000000E+000	0.0000000E+000	-1.29044	0.0000000E+000	0.0000000E+000	0.0000000E+000	1.29044	44.3927	88.7096	-0.00244219
847.556	0.103478	0.00247149	0.103508	-1.3682	98562.5	-0.00123252	-7.17394	75979	43.3178	1	37	0.00507769	0.0490563	0	-0.0579229	4.6	0.264317	0.148547	5.57001	5.38221e-06	5.22573e-06	4.07134e-06	5.68036e-06	4.61765e-06	5.45774e-06	0.0443315	0.100735	0.449978	1.52638e-05	4.93265e-06	4.77121e-06	1.16491e-05	4.57076e-06	4.95625e-06	9.65838	0.230682	9.66114	1.3682	43317.8	1.81366e+06	1.81418e+06	-88.6318	0.0000000E+000	0.0000000E+000	0.0000000E+000	88.6318	0.0000000E+000	0.0000000E+000	0.0000000E+000	-88.6318	0.0000000E+000	0.0000000E+000	0.0000000E+000	-1.3682	0.0000000E+000	0.0000000E+000	0.0000000E+000	1.3682	41.8687	88.6318	-0.00270811
423.239	0.104793	0.00254084	0.104824	-1.38893	98566.5	-0.00120208	-7.27988	147998	86.9537	1	37	0.00502314	0.0479196	0	-0.0655668	4.6	0.315884	0.167092	5.75892	7.39175e-06	6.75261e-06	4.33381e-06	7.20599e-06	3.08871e-06	7.43153e-06	0.0593845	0.0182507	0.452478	1.21599e-05	1.8018e-05	3.73917e-06	1.51784e-05	7.13985e-06	4.10257e-06	9.53698	0.231235	9.53978	1.38893	86953.7	3.58629e+06	3.58734e+06	-88.6111	0.0000000E+000	0.0000000E+000	0.0000000E+000	88.6111	0.0000000E+000	0.0000000E+000	0.0000000E+000	-88.6111	0.0000000E+000	0.0000000E+000	0.0000000E+000	-1.38893	0.0000000E+000	0.0000000E+000	0.0000000E+000	1.38893	41.2436	88.6111	-0.00258564
211.149	0.105889	0.00227527	0.105914	-1.23094	98570.1	-0.00119882	-7.04781	331283	152.883	1	37	0.00517551	0.0488653	0	-0.0723091	4.6	0.287994	0.223298	5.51616	5.01653e-06	4.29326e-06	8.1154e-06	4.42819e-06	5.92838e-06	4.55851e-06	0.0698542	0.0157829	0.441542	1.39869e-05	2.25021e-05	4.39771e-06	1.91503e-05	5.05429e-06	4.40335e-06	9.43946	0.202828	9.44164	1.23094	152883	7.11506e+06	7.1167e+06	-88.7691	0.0000000E+000	0.0000000E+000	0.0000000E+000	88.7691	0.0000000E+000	0.0000000E+000	0.0000000E+000	-88.7691	0.0000000E+000	0.0000000E+000	0.0000000E+000	-1.23094	0.0000000E+000	0.0000000E+000	0.0000000E+000	1.23094	46.5393	88.7691	-0.00217765
105.438	0.106782	0.00239233	0.106809	-1.28344	98573.4	-0.00118746	-6.67441	630958	316.542	1	37	0.0053811	0.0503808	0	-0.0787991	4.6	0.222082	0.18101	5.27344	2.59681e-06	6.00415e-06	5.78766e-06	3.48769e-06	4.93986e-06	3.79943e-06	0.0947479	0.0143937	0.433404	6.49741e-06	3.37787e-05	5.42981e-06	3.12085e-05	6.7134e-06	4.48901e-06	9.3602	0.209705	9.36255	1.28344	316542	1.41288e+07	1.41324e+07	-88.7166	0.0000000E+000	0.0000000E+000	0.0000000E+000	88.7166	0.0000000E+000	0.0000000E+000	0.0000000E+000	-88.7166	0.0000000E+000	0.0000000E+000	0.0000000E+000	-1.28344	0.0000000E+000	0.0000000E+000	0.0000000E+000	1.28344	44.635	88.7166	-0.00205071
52.6255	0.107744	0.00254781	0.107774	-1.35462	98576.7	-0.00117835	-7.13754	1.18701e+06	663.386	1	37	0.00542932	0.050377	0	-0.0854052	4.6	0.289169	0.168741	5.24799	3.46659e-06	6.9271e-06	4.41476e-06	7.18215e-06	6.88134e-06	7.05756e-06	0.108243	0.0919218	0.416182	4.31085e-06	3.66755e-05	7.6102e-06	3.75972e-05	7.2223e-06	7.52344e-06	9.27611	0.219353	9.27871	1.35462	663386	2.80537e+07	2.80615e+07	-88.6454	0.0000000E+000	0.0000000E+000	0.0000000E+000	88.6454	0.0000000E+000	0.0000000E+000	0.0000000E+000	-88.6454	0.0000000E+000	0.0000000E+000	0.0000000E+000	-1.35462	0.0000000E+000	0.0000000E+000	0.0000000E+000	1.35462	42.2886	88.6454	-0.00225499
26.2693	0.108822	0.00276675	0.108857	-1.45641	98580	-0.00118239	-7.08334	2.18978e+06	1414.59	1	37	0.00543972	0.0499714	0	-0.0916057	4.6	0.347646	0.189486	5.2494	6.13338e-06	1.1507e-05	5.92936e-06	5.37225e-06	8.02613e-06	6.63156e-06	0.140636	0.034877	0.433792	3.63306e-05	4.29922e-05	1.00773e-05	3.7419e-05	1.29675e-05	4.20148e-06	9.18342	0.233486	9.18639	1.45641	1.41459e+06	5.56385e+07	5.56565e+07	-88.5436	0.0000000E+000	0.0000000E+000	0.0000000E+000	88.5436	0.0000000E+000	0.0000000E+000	0.0000000E+000	-88.5436	0.0000000E+000	0.0000000E+000	0.0000000E+000	-1.45641	0.0000000E+000	0.0000000E+000	0.0000000E+000	1.45641	39.3318	88.5436	-0.0019984
13.1083	0.109887	0.00334906	0.109938	-1.74568	98583.4	-0.00117613	-6.6789	3.62537e+06	3364.35	1	37	0.00543923	0.0494753	0	-0.0979551	4.6	0.214053	0.144829	3.68342	5.29781e-06	5.18414e-06	5.04766e-06	2.90441e-06	5.18905e-06	2.39109e-06	0.137875	0.104107	0.338772	1.04083e-05	4.79671e-05	3.36512e-05	3.08788e-05	5.85795e-06	7.73028e-06	9.0918	0.277093	9.09602	1.74568	3.36436e+06	1.10389e+08	1.1044e+08	-88.2543	0.0000000E+000	0.0000000E+000	0.0000000E+000	88.2543	0.0000000E+000	0.0000000E+000	0.0000000E+000	-88.2543	0.0000000E+000	0.0000000E+000	0.0000000E+000	-1.74568	0.0000000E+000	0.0000000E+000	0.0000000E+000	1.74568	32.8113	88.2543	-0.00192786
6.54313	0.111108	0.00414619	0.111185	-2.1371	98587	-0.00118483	-6.80521	5.86658e+06	8158.1	1	37	0.00544193	0.0489447	0	-0.104714	4.6	0.18422	0.181743	3.6673	2.18559e-06	5.03654e-06	2.96942e-06	4.01544e-06	3.52213e-06	4.01323e-06	0.119241	0.138194	0.35271	2.96282e-05	3.10658e-05	8.16828e-06	3.3928e-05	1.21026e-05	9.54945e-06	8.98774	0.335393	8.99399	2.1371	8.15809e+06	2.18618e+08	2.1877e+08	-87.8629	0.0000000E+000	0.0000000E+000	0.0000000E+000	87.8629	0.0000000E+000	0.0000000E+000	0.0000000E+000	-87.8629	0.0000000E+000	0.0000000E+000	0.0000000E+000	-2.1371	0.0000000E+000	0.0000000E+000	0.0000000E+000	2.1371	26.7976	87.8629	-0.00250321
3.26541	0.112555	0.00579346	0.112704	-2.94655	98592.7	-0.00117449	-6.61118	8.41287e+06	22230.2	1	37	0.00543754	0.0482462	0	-0.115734	4.6	0.169767	0.0997319	2.30119	2.30147e-06	5.12912e-06	4.19842e-06	3.60358e-06	2.1767e-06	2.57704e-06	0.116434	0.150403	0.296641	1.91402e-05	3.84675e-05	1.12634e-05	2.57871e-05	6.49748e-06	1.31159e-05	8.86108	0.456101	8.87282	2.94655	2.22302e+07	4.31886e+08	4.32458e+08	-87.0535	0.0000000E+000	0.0000000E+000	0.0000000E+000	87.0535	0.0000000E+000	0.0000000E+000	0.0000000E+000	-87.0535	0.0000000E+000	0.0000000E+000	0.0000000E+000	-2.94655	0.0000000E+000	0.0000000E+000	0.0000000E+000	2.94655	19.4279	87.0535	-0.0043512
1.63084	0.114867	0.0085515	0.115185	-4.25766	98602.9	-0.00117211	-6.66658	1.14122e+07	62901.9	1	37	0.00543576	0.0471918	0	-0.134793	4.6	0.12628	0.0524222	1.56004	1.85146e-06	3.30594e-06	2.01641e-06	4.43999e-06	1.71763e-06	1.77983e-06	0.174228	0.285763	0.300047	4.02737e-05	4.92563e-05	1.74269e-05	4.1438e-05	1.46269e-05	8.50791e-06	8.65776	0.644546	8.68172	4.25766	6.29019e+07	8.4492e+08	8.47258e+08	-85.7423	0.0000000E+000	0.0000000E+000	0.0000000E+000	85.7423	0.0000000E+000	0.0000000E+000	0.0000000E+000	-85.7423	0.0000000E+000	0.0000000E+000	0.0000000E+000	-4.25766	0.0000000E+000	0.0000000E+000	0.0000000E+000	4.25766	13.4323	85.7423	-0.00797888
0.813551	0.118575	0.0124278	0.119225	-5.98331	98622.1	-0.00118091	-6.84174	1.57413e+07	171040	1	37	0.00543205	0.0455614	0	-0.172889	4.6	0.128678	0.0676132	1.10867	2.36793e-06	4.06464e-06	1.06636e-06	4.14059e-06	2.51512e-06	9.30206e-07	0.153233	0.487301	0.282405	2.62921e-05	5.01457e-05	1.36639e-05	3.5507e-05	7.99e-06	8.54031e-06	8.34183	0.874305	8.38752	5.98331	1.7104e+08	1.63191e+09	1.64085e+09	-84.0167	0.0000000E+000	0.0000000E+000	0.0000000E+000	84.0167	0.0000000E+000	0.0000000E+000	0.0000000E+000	-84.0167	0.0000000E+000	0.0000000E+000	0.0000000E+000	-5.98331	0.0000000E+000	0.0000000E+000	0.0000000E+000	5.98331	9.5411	84.0167	-0.0170066
0.406108	0.124532	0.0172639	0.125723	-7.89263	98659.5	-0.00116235	-7.00101	2.27008e+07	428045	1	37	0.00542803	0.0431747	0	-0.241073	4.6	0.125019	0.0678775	0.772886	1.81306e-06	4.57287e-06	1.30884e-06	3.58962e-06	1.96675e-06	1.13161e-06	0.191929	0.891165	0.296139	5.26961e-05	4.35913e-05	1.58812e-05	3.95599e-05	8.61719e-06	1.07928e-05	7.87867	1.09222	7.95401	7.89263	4.28045e+08	3.08767e+09	3.1172e+09	-82.1074	0.0000000E+000	0.0000000E+000	0.0000000E+000	82.1074	0.0000000E+000	0.0000000E+000	0.0000000E+000	-82.1074	0.0000000E+000	0.0000000E+000	0.0000000E+000	-7.89263	0.0000000E+000	0.0000000E+000	0.0000000E+000	7.89263	7.21343	82.1074	-0.0290978
0.202719	0.133174	0.0246633	0.135439	-10.492	98733.4	-0.00118007	-6.56199	3.18328e+07	1.05558e+06	1	37	0.00542116	0.0400266	0	-0.382988	4.6	0.115783	0.0505405	0.550424	1.28895e-06	3.29155e-06	1.08724e-06	4.56325e-06	1.7979e-06	5.98592e-07	0.701056	0.251783	0.293538	0.000271562	4.95333e-05	2.25119e-05	3.80841e-05	1.28956e-05	5.81368e-06	7.25995	1.34451	7.3834	10.492	1.05558e+09	5.6998e+09	5.79672e+09	-79.508	0.0000000E+000	0.0000000E+000	0.0000000E+000	79.508	0.0000000E+000	0.0000000E+000	0.0000000E+000	-79.508	0.0000000E+000	0.0000000E+000	0.0000000E+000	-10.492	0.0000000E+000	0.0000000E+000	0.0000000E+000	10.492	5.3997	79.508	-0.0488563
0.101164	0.151467	0.0297842	0.154367	-11.1246	98880.6	-0.00118945	-6.79834	5.28212e+07	1.96639e+06	1	37	0.00541525	0.0350803	0	-0.652957	4.6	0.112337	0.0673676	0.411897	2.3319e-06	2.95409e-06	6.99253e-07	3.97925e-06	2.33838e-06	7.85234e-07	0.955863	0.380861	0.359297	0.000278577	0.000141631	6.05888e-05	7.61809e-05	1.41889e-05	1.42059e-05	6.35634	1.2499	6.47806	11.1246	1.96639e+09	1e+10	1.01915e+10	-78.8754	0.0000000E+000	0.0000000E+000	0.0000000E+000	78.8754	0.0000000E+000	0.0000000E+000	0.0000000E+000	-78.8754	0.0000000E+000	0.0000000E+000	0.0000000E+000	-11.1246	0.0000000E+000	0.0000000E+000	0.0000000E+000	11.1246	5.08547	78.8754	-0.120452
0.0505041	0.168598	0.02583	0.170565	-8.71025	99174.4	-0.00115883	-6.63876	1.22003e+08	2.79793e+06	1	37	0.00540928	0.0317139	0	-1.23567	4.6	0.13676	0.0780854	0.306382	2.71953e-06	4.21563e-06	1.29709e-06	4.55151e-06	2.16974e-06	6.58831e-07	2.36997	0.190864	1.09792	5.98643e-05	0.000612344	0.000230108	0.000341318	4.67794e-05	0.000109239	5.79525	0.887858	5.86286	8.71025	2.79794e+09	1.82627e+10	1.84758e+10	-81.2897	0.0000000E+000	0.0000000E+000	0.0000000E+000	81.2897	0.0000000E+000	0.0000000E+000	0.0000000E+000	-81.2897	0.0000000E+000	0.0000000E+000	0.0000000E+000	-8.71025	0.0000000E+000	0.0000000E+000	0.0000000E+000	8.71025	6.52722	81.2897	-0.227231
0.0252177	0.178536	0.0158273	0.179236	-5.06607	99761.8	-0.00116243	-6.57931	3.98756e+08	3.10937e+06	1	37	0.00541064	0.0301873	0	-2.23279	4.6	0.123265	0.0902088	0.239989	1.65559e-06	4.21622e-06	1.43244e-06	4.10623e-06	1.74042e-06	8.45461e-07	1.28017	0.179831	2.31285	2.63318e-05	4.3752e-05	3.3802e-05	5.55807e-05	6.50228e-05	0.000371102	5.55745	0.492672	5.57924	5.06607	3.10937e+09	3.50744e+10	3.5212e+10	-84.9339	0.0000000E+000	0.0000000E+000	0.0000000E+000	84.9339	0.0000000E+000	0.0000000E+000	0.0000000E+000	-84.9339	0.0000000E+000	0.0000000E+000	0.0000000E+000	-5.06607	0.0000000E+000	0.0000000E+000	0.0000000E+000	5.06607	11.2802	84.9339	-0.409833
174510	0.0975547	-0.00963239	0.0980291	5.63901	100070	-0.00108149	-6.12639	-94.6816	-0.914163	2	37	0.00490837	0.0500706	0	-2.77764	4.6	-1	-1	-1	0	0	0	0	0	0	-1	-1	-1	0	0	0	0	0	0	10.1517	-1.00236	10.2011	-5.63901	-914.164	9258.44	9303.46	-95.639	0.0000000E+000	0.0000000E+000	0.0000000E+000	95.639	0.0000000E+000	0.0000000E+000	0.0000000E+000	-95.639	0.0000000E+000	0.0000000E+000	0.0000000E+000	5.63901	0.0000000E+000	0.0000000E+000	0.0000000E+000	-5.63901	10.1278	84.361	-0.00172567
87106.6	0.0994578	-0.00511996	0.0995895	2.94691	100073	-0.00109307	-5.7676	-356.864	-0.943209	2	37	0.00523507	0.0525665	0	-2.78344	4.6	0.266241	0.150545	5.42251	4.47126e-06	8.33922e-06	7.81638e-06	3.34812e-06	2.34297e-06	4.02336e-06	0.0885138	0.0272736	0.40711	1.24196e-05	4.33711e-05	4.43366e-06	5.88085e-06	5.27558e-06	5.67546e-06	10.0279	-0.516225	10.0412	-2.94691	-943.209	18322.3	18346.6	-92.9469	0.0000000E+000	0.0000000E+000	0.0000000E+000	92.9469	0.0000000E+000	0.0000000E+000	0.0000000E+000	-92.9469	0.0000000E+000	0.0000000E+000	0.0000000E+000	2.94691	0.0000000E+000	0.0000000E+000	0.0000000E+000	-2.94691	19.4255	87.0531	-0.00193372
43479.1	0.0995021	-0.00249549	0.0995333	1.43666	100077	-0.00108101	-5.99237	-1466.85	-0.922058	2	37	0.00519834	0.0522272	0	-2.78892	4.6	0.340538	0.162468	5.39174	5.34307e-06	8.39535e-06	4.76523e-06	5.94359e-06	8.0948e-06	6.16613e-06	0.117179	0.036948	0.416848	7.08423e-06	5.99428e-05	4.71291e-06	5.69637e-06	3.33081e-06	3.46877e-06	10.0437	-0.251894	10.0469	-1.43666	-922.056	36765	36776.6	-91.4367	0.0000000E+000	0.0000000E+000	0.0000000E+000	91.4367	0.0000000E+000	0.0000000E+000	0.0000000E+000	-91.4367	0.0000000E+000	0.0000000E+000	0.0000000E+000	1.43666	0.0000000E+000	0.0000000E+000	0.0000000E+000	-1.43666	39.8728	88.5633	-0.00193961
21702.4	0.0994892	-0.000644817	0.0994913	0.371345	100080	-0.00107053	-6.00744	-11373	-0.477726	2	37	0.00516323	0.0518963	0	-2.79486	4.6	0.281182	0.16548	5.5822	5.12478e-06	6.92351e-06	4.67015e-06	4.81549e-06	7.41564e-06	4.47083e-06	0.118638	0.0557242	0.415212	4.865e-06	5.91675e-05	3.21839e-06	1.08671e-05	3.90545e-06	9.429e-06	10.0509	-0.0651428	10.0511	-0.371345	-477.727	73708.6	73710.1	-90.3713	0.0000000E+000	0.0000000E+000	0.0000000E+000	90.3713	0.0000000E+000	0.0000000E+000	0.0000000E+000	-90.3713	0.0000000E+000	0.0000000E+000	0.0000000E+000	0.371345	0.0000000E+000	0.0000000E+000	0.0000000E+000	-0.371345	154.291	89.6287	-0.00181069
10837.3	0.0999114	0.00064695	0.0999135	-0.370999	100084	-0.00107795	-5.81742	22700.1	0.951748	2	37	0.00514067	0.0514512	0	-2.80044	4.6	0.321205	0.20705	5.47774	6.72318e-06	4.56332e-06	5.98823e-06	7.38496e-06	6.08982e-06	5.05952e-06	0.151236	0.0255727	0.404217	6.96844e-06	4.43628e-05	5.57815e-06	5.97723e-06	6.69126e-06	6.25776e-05	10.0084	0.0648071	10.0087	0.370999	951.756	146983	146986	-89.629	0.0000000E+000	0.0000000E+000	0.0000000E+000	89.629	0.0000000E+000	0.0000000E+000	0.0000000E+000	-89.629	0.0000000E+000	0.0000000E+000	0.0000000E+000	-0.370999	0.0000000E+000	0.0000000E+000	0.0000000E+000	0.370999	154.434	89.629	-0.00186681
5406.63	0.10073	0.0014915	0.100741	-0.848316	100088	-0.00120079	-6.28242	19736.5	4.32622	2	37	0.00517456	0.0513652	0	-2.80719	4.6	0.314436	0.11971	5.45874	2.46338e-06	7.91989e-06	8.42532e-06	3.69411e-06	5.80646e-06	6.13889e-06	0.113229	0.0931866	0.432161	5.73385e-06	5.51359e-05	7.48025e-06	1.22024e-05	7.14559e-06	5.1688e-06	9.92539	0.146965	9.92647	0.848316	4326.23	292174	292206	-89.1517	0.0000000E+000	0.0000000E+000	0.0000000E+000	89.1517	0.0000000E+000	0.0000000E+000	0.0000000E+000	-89.1517	0.0000000E+000	0.0000000E+000	0.0000000E+000	-0.848316	0.0000000E+000	0.0000000E+000	0.0000000E+000	0.848316	67.5356	89.1517	-0.00220487
2699.14	0.101688	0.00216117	0.101711	-1.21753	100092	-0.00118879	-6.48233	27283.9	12.3184	2	37	0.00516201	0.050752	0	-2.81434	4.6	0.288281	0.146055	5.53749	8.32372e-06	8.50025e-06	6.00474e-06	1.48652e-06	2.9414e-06	2.59314e-06	0.0771176	0.0142567	0.437604	7.77393e-06	3.68438e-05	3.11387e-06	8.97951e-06	2.91845e-06	2.42358e-06	9.82961	0.208909	9.83183	1.21753	12318.4	579604	579735	-88.7825	0.0000000E+000	0.0000000E+000	0.0000000E+000	88.7825	0.0000000E+000	0.0000000E+000	0.0000000E+000	-88.7825	0.0000000E+000	0.0000000E+000	0.0000000E+000	-1.21753	0.0000000E+000	0.0000000E+000	0.0000000E+000	1.21753	47.0521	88.7825	-0.00249424
1347.15	0.10289	0.00240089	0.102918	-1.33673	100096	-0.00121056	-6.84307	49207.4	26.7788	2	37	0.00514963	0.0500361	0	-2.82167	4.6	0.244725	0.215427	5.49687	5.55484e-06	4.68391e-06	5.08031e-06	4.35008e-06	3.16063e-06	3.93339e-06	0.0394327	0.0308912	0.431807	7.02932e-06	1.40398e-05	4.58999e-06	9.50012e-06	3.75576e-06	2.12833e-06	9.71381	0.226667	9.71645	1.33673	26778.7	1.1476e+06	1.14792e+06	-88.6633	0.0000000E+000	0.0000000E+000	0.0000000E+000	88.6633	0.0000000E+000	0.0000000E+000	0.0000000E+000	-88.6633	0.0000000E+000	0.0000000E+000	0.0000000E+000	-1.33673	0.0000000E+000	0.0000000E+000	0.0000000E+000	1.33673	42.855	88.6633	-0.0025835
672.366	0.104114	0.00261222	0.104146	-1.43725	100099	-0.00117895	-6.69638	90616.1	57.0078	2	37	0.00504586	0.0484497	0	-2.82878	4.6	0.259063	0.177715	5.63325	4.83387e-06	3.34769e-06	4.94155e-06	3.89948e-06	7.1165e-06	5.62559e-06	0.048247	0.0153001	0.448379	1.50195e-05	6.03026e-06	3.16508e-06	1.44768e-05	6.50693e-06	3.42785e-06	9.59885	0.240836	9.60187	1.43725	57007.7	2.27213e+06	2.27285e+06	-88.5628	0.0000000E+000	0.0000000E+000	0.0000000E+000	88.5628	0.0000000E+000	0.0000000E+000	0.0000000E+000	-88.5628	0.0000000E+000	0.0000000E+000	0.0000000E+000	-1.43725	0.0000000E+000	0.0000000E+000	0.0000000E+000	1.43725	39.8564	88.5628	-0.0023454
335.537	0.105331	0.0023874	0.105358	-1.29843	100103	-0.00115868	-6.48516	198680	102.016	2	37	0.00536256	0.0508985	0	-2.83538	4.6	0.299151	0.157155	5.27119	7.72879e-06	5.47124e-06	3.2049e-06	5.77629e-06	4.45543e-06	7.61038e-06	0.0499275	0.0160528	0.428824	5.94127e-06	1.69995e-05	4.36204e-06	1.49607e-05	4.52917e-06	5.17721e-06	9.48901	0.215075	9.49145	1.29843	102016	4.50091e+06	4.50207e+06	-88.7016	0.0000000E+000	0.0000000E+000	0.0000000E+000	88.7016	0.0000000E+000	0.0000000E+000	0.0000000E+000	-88.7016	0.0000000E+000	0.0000000E+000	0.0000000E+000	-1.29843	0.0000000E+000	0.0000000E+000	0.0000000E+000	1.29843	44.1195	88.7016	-0.00198369
167.481	0.106282	0.00232322	0.106308	-1.25222	100107	-0.00117874	-6.26856	409040	195.35	2	37	0.00542393	0.051021	0	-2.84173	4.6	0.198526	0.155361	5.18883	3.63324e-06	4.17608e-06	4.65063e-06	5.8313e-06	2.81814e-06	1.78196e-06	0.0755915	0.0226049	0.424823	6.14569e-06	2.86529e-05	5.04164e-06	2.36729e-05	5.18482e-06	2.50203e-06	9.4044	0.20557	9.40665	1.25222	195350	8.93689e+06	8.93902e+06	-88.7478	0.0000000E+000	0.0000000E+000	0.0000000E+000	88.7478	0.0000000E+000	0.0000000E+000	0.0000000E+000	-88.7478	0.0000000E+000	0.0000000E+000	0.0000000E+000	-1.25222	0.0000000E+000	0.0000000E+000	0.0000000E+000	1.25222	45.748	88.7478	-0.00187055
83.635	0.107263	0.00236491	0.107289	-1.26304	100110	-0.00116461	-6.55456	804670	390.961	2	37	0.00509514	0.0474897	0	-2.84799	4.6	0.256572	0.162098	5.64421	4.14091e-06	6.43973e-06	5.09925e-06	4.77074e-06	3.59453e-06	4.62666e-06	0.101077	0.0177218	0.456052	1.0086e-05	3.42517e-05	3.5271e-06	2.82476e-05	6.22121e-06	9.77533e-06	9.31832	0.205448	9.32059	1.26304	390962	1.77325e+07	1.77368e+07	-88.737	0.0000000E+000	0.0000000E+000	0.0000000E+000	88.737	0.0000000E+000	0.0000000E+000	0.0000000E+000	-88.737	0.0000000E+000	0.0000000E+000	0.0000000E+000	-1.26304	0.0000000E+000	0.0000000E+000	0.0000000E+000	1.26304	45.3562	88.737	-0.00201189
41.7501	0.108301	0.00260566	0.108333	-1.37823	100114	-0.00116787	-6.57836	1.463e+06	846.373	2	37	0.00512533	0.047311	0	-2.85373	4.6	0.30892	0.0848808	5.47813	4.70781e-06	7.05733e-06	5.3839e-06	7.1925e-06	6.62498e-06	4.52047e-06	0.116002	0.066049	0.467448	4.35109e-06	3.13288e-05	1.00755e-05	3.61853e-05	2.12926e-05	8.36276e-06	9.22816	0.222024	9.23084	1.37823	846373	3.51785e+07	3.51887e+07	-88.6218	0.0000000E+000	0.0000000E+000	0.0000000E+000	88.6218	0.0000000E+000	0.0000000E+000	0.0000000E+000	-88.6218	0.0000000E+000	0.0000000E+000	0.0000000E+000	-1.37823	0.0000000E+000	0.0000000E+000	0.0000000E+000	1.37823	41.5639	88.6218	-0.00195985
20.8333	0.109366	0.00297681	0.109407	-1.55914	100117	-0.00115769	-6.24634	2.56632e+06	1899.88	2	37	0.00512967	0.0468863	0	-2.85958	4.6	0.24357	0.192989	5.50225	6.07923e-06	5.60086e-06	3.54918e-06	3.51807e-06	4.01342e-06	4.70322e-06	0.111725	0.112381	0.450715	9.97823e-06	3.54964e-05	4.06277e-06	3.05893e-05	9.53846e-06	1.72663e-05	9.13682	0.248693	9.14021	1.55914	1.89988e+06	6.98003e+07	6.98261e+07	-88.4409	0.0000000E+000	0.0000000E+000	0.0000000E+000	88.4409	0.0000000E+000	0.0000000E+000	0.0000000E+000	-88.4409	0.0000000E+000	0.0000000E+000	0.0000000E+000	-1.55914	0.0000000E+000	0.0000000E+000	0.0000000E+000	1.55914	36.7393	88.4409	-0.00186358
10.3959	0.110594	0.00351874	0.11065	-1.82235	100120	-0.00116789	-6.41289	4.35084e+06	4399.92	2	37	0.00513196	0.0463802	0	-2.86527	4.6	0.32458	0.203805	5.55021	6.58494e-06	5.72027e-06	6.05237e-06	6.87929e-06	8.32928e-06	5.31171e-06	0.16465	0.132791	0.4489	9.89226e-06	4.45604e-05	1.31947e-05	5.24977e-05	1.54249e-05	5.08203e-06	9.03295	0.287399	9.03752	1.82235	4.39992e+06	1.38289e+08	1.38359e+08	-88.1776	0.0000000E+000	0.0000000E+000	0.0000000E+000	88.1776	0.0000000E+000	0.0000000E+000	0.0000000E+000	-88.1776	0.0000000E+000	0.0000000E+000	0.0000000E+000	-1.82235	0.0000000E+000	0.0000000E+000	0.0000000E+000	1.82235	31.43	88.1776	-0.00168878
5.19276	0.111626	0.00449494	0.111716	-2.30594	100124	-0.00115723	-6.60694	6.81865e+06	11038.6	2	37	0.00512569	0.0458814	0	-2.87289	4.6	0.17705	0.131514	3.18105	2.11535e-06	3.88845e-06	2.88357e-06	5.13533e-06	3.41381e-06	2.78563e-06	0.152042	0.0641782	0.332484	5.24228e-06	5.44551e-05	6.88525e-06	3.93861e-05	8.60692e-06	3.81332e-06	8.94401	0.360157	8.95126	2.30594	1.10386e+07	2.74129e+08	2.74351e+08	-87.6941	0.0000000E+000	0.0000000E+000	0.0000000E+000	87.6941	0.0000000E+000	0.0000000E+000	0.0000000E+000	-87.6941	0.0000000E+000	0.0000000E+000	0.0000000E+000	-2.30594	0.0000000E+000	0.0000000E+000	0.0000000E+000	2.30594	24.8336	87.6941	-0.00285798
2.58949	0.113321	0.00668171	0.113518	-3.37441	100131	-0.00115754	-6.20886	9.19851e+06	31868.8	2	37	0.00512578	0.0451541	0	-2.88458	4.6	0.183452	0.084625	2.06648	5.28984e-06	2.97812e-06	2.01242e-06	4.54766e-06	3.50586e-06	2.64107e-06	0.160434	0.15931	0.294019	1.29019e-05	3.42636e-05	1.70908e-05	4.11498e-05	4.05386e-05	1.40025e-05	8.79393	0.518515	8.8092	3.37441	3.18688e+07	5.40491e+08	5.41429e+08	-86.6256	0.0000000E+000	0.0000000E+000	0.0000000E+000	86.6256	0.0000000E+000	0.0000000E+000	0.0000000E+000	-86.6256	0.0000000E+000	0.0000000E+000	0.0000000E+000	-3.37441	0.0000000E+000	0.0000000E+000	0.0000000E+000	3.37441	16.9598	86.6256	-0.00456313
1.29325	0.116168	0.00967702	0.11657	-4.76186	100144	-0.00116421	-6.59484	1.27173e+07	87640.3	2	37	0.00512462	0.0439616	0	-2.90574	4.6	0.151037	0.0842644	1.47863	2.92907e-06	5.39635e-06	1.97577e-06	2.60437e-06	1.56407e-06	1.90558e-06	0.177521	0.322051	0.329329	3.79203e-05	4.58545e-05	1.63608e-05	3.01839e-05	1.43815e-05	1.01875e-05	8.54891	0.712141	8.57852	4.76186	8.76402e+07	1.05208e+09	1.05572e+09	-85.2381	0.0000000E+000	0.0000000E+000	0.0000000E+000	85.2381	0.0000000E+000	0.0000000E+000	0.0000000E+000	-85.2381	0.0000000E+000	0.0000000E+000	0.0000000E+000	-4.76186	0.0000000E+000	0.0000000E+000	0.0000000E+000	4.76186	12.0045	85.2381	-0.00750975
0.645874	0.120568	0.0140647	0.121386	-6.65364	100168	-0.00116478	-6.57903	1.75204e+07	235214	2	37	0.00512021	0.0421812	0	-2.94708	4.6	0.13732	0.0465273	1.03984	2.25741e-06	4.87691e-06	1.94006e-06	3.32214e-06	1.38704e-06	1.43607e-06	0.17661	0.623981	0.304552	2.29253e-05	5.18933e-05	1.21402e-05	4.13344e-05	1.03829e-05	1.29872e-05	8.18269	0.954534	8.23818	6.65364	2.35214e+08	2.01636e+09	2.03003e+09	-83.3464	0.0000000E+000	0.0000000E+000	0.0000000E+000	83.3464	0.0000000E+000	0.0000000E+000	0.0000000E+000	-83.3464	0.0000000E+000	0.0000000E+000	0.0000000E+000	-6.65364	0.0000000E+000	0.0000000E+000	0.0000000E+000	6.65364	8.57244	83.3464	-0.0146272
0.322118	0.127387	0.0195485	0.128879	-8.7244	100215	-0.00116099	-6.56361	2.52749e+07	581510	2	37	0.00511701	0.0397041	0	-3.03175	4.6	0.129578	0.046148	0.747197	1.90224e-06	3.74015e-06	2.61291e-06	3.59132e-06	1.56724e-06	1.21464e-06	0.144123	0.72207	0.323762	2.55396e-05	2.60464e-05	1.74964e-05	3.45861e-05	9.15485e-06	5.49182e-06	7.66946	1.17693	7.75924	8.7244	5.81509e+08	3.78939e+09	3.83375e+09	-81.2756	0.0000000E+000	0.0000000E+000	0.0000000E+000	81.2756	0.0000000E+000	0.0000000E+000	0.0000000E+000	-81.2756	0.0000000E+000	0.0000000E+000	0.0000000E+000	-8.7244	0.0000000E+000	0.0000000E+000	0.0000000E+000	8.7244	6.51647	81.2756	-0.028738
0.160792	0.136925	0.0266533	0.139495	-11.0153	100308	-0.00115867	-6.75161	3.71367e+07	1.35578e+06	2	37	0.00511206	0.0366471	0	-3.20378	4.6	0.120193	0.0577982	0.527551	2.53942e-06	3.67281e-06	1.20536e-06	3.26951e-06	1.19858e-06	1.37049e-06	0.311551	0.964691	0.527882	6.30866e-05	5.56559e-05	4.01853e-05	5.02353e-05	2.06187e-05	1.34458e-05	7.03666	1.36973	7.16874	11.0153	1.35578e+09	6.965e+09	7.09573e+09	-78.9847	0.0000000E+000	0.0000000E+000	0.0000000E+000	78.9847	0.0000000E+000	0.0000000E+000	0.0000000E+000	-78.9847	0.0000000E+000	0.0000000E+000	0.0000000E+000	-11.0153	0.0000000E+000	0.0000000E+000	0.0000000E+000	11.0153	5.13725	78.9847	-0.078966
0.0802383	0.156862	0.0306527	0.159829	-11.0569	100493	-0.00118826	-6.61956	6.47098e+07	2.38011e+06	2	37	0.00510428	0.0319359	0	-3.5308	4.6	0.127964	0.0809659	0.387114	2.59298e-06	3.75575e-06	1.02091e-06	3.48399e-06	1.51929e-06	1.25255e-06	0.688362	1.68761	1.11349	0.000154404	4.77175e-05	0.000116721	6.36064e-05	4.92035e-05	2.00089e-05	6.14056	1.19994	6.2567	11.0569	2.38011e+09	1.218e+10	1.24103e+10	-78.9431	0.0000000E+000	0.0000000E+000	0.0000000E+000	78.9431	0.0000000E+000	0.0000000E+000	0.0000000E+000	-78.9431	0.0000000E+000	0.0000000E+000	0.0000000E+000	-11.0569	0.0000000E+000	0.0000000E+000	0.0000000E+000	11.0569	5.1174	78.9431	-0.127889
0.04008	0.173108	0.022391	0.17455	-7.37014	100863	-0.0011633	-6.41564	1.77345e+08	2.91829e+06	2	37	0.00510047	0.0292207	0	-4.18917	4.6	0.119649	0.090322	0.295639	2.21472e-06	3.83085e-06	1.51207e-06	3.46228e-06	1.5172e-06	6.86093e-07	1.86998	0.192661	1.41489	3.51473e-05	6.37383e-05	0.000406085	0.000202109	0.000289004	5.55447e-05	5.6817	0.734913	5.72903	7.37014	2.91829e+09	2.25617e+10	2.27496e+10	-82.6299	0.0000000E+000	0.0000000E+000	0.0000000E+000	82.6299	0.0000000E+000	0.0000000E+000	0.0000000E+000	-82.6299	0.0000000E+000	0.0000000E+000	0.0000000E+000	-7.37014	0.0000000E+000	0.0000000E+000	0.0000000E+000	7.37014	7.73111	82.6299	-0.28395
0.0199946	0.180125	0.0129424	0.180589	-4.10977	101603	-0.00117828	-6.55895	6.15025e+08	3.15891e+06	2	37	0.00510092	0.0282459	0	-5.59523	4.6	0.129597	0.12011	0.238934	1.92184e-06	3.81903e-06	1.90196e-06	3.63812e-06	2.38616e-06	1.30482e-06	0.210259	0.236829	2.37335	6.81178e-06	3.53384e-05	9.32762e-06	3.57958e-05	1.93057e-05	2.09945e-05	5.52318	0.396853	5.53742	4.10977	3.15891e+09	4.3964e+10	4.40773e+10	-85.8902	0.0000000E+000	0.0000000E+000	0.0000000E+000	85.8902	0.0000000E+000	0.0000000E+000	0.0000000E+000	-85.8902	0.0000000E+000	0.0000000E+000	0.0000000E+000	-4.10977	0.0000000E+000	0.0000000E+000	0.0000000E+000	4.10977	13.9174	85.8902	-0.571458
138435	0.0986203	-0.00778213	0.0989269	4.51186	101607	-0.00108507	-5.3979	-147.732	-0.914204	3	37	0.00521	0.0526651	0	-5.59953	4.6	-1	-1	-1	0	0	0	0	0	0	-1	-1	-1	0	0	0	0	0	0	10.0771	-0.795188	10.1085	-4.51186	-914.203	11585.4	11621.4	-94.5119	0.0000000E+000	0.0000000E+000	0.0000000E+000	94.5119	0.0000000E+000	0.0000000E+000	0.0000000E+000	-94.5119	0.0000000E+000	0.0000000E+000	0.0000000E+000	4.51186	0.0000000E+000	0.0000000E+000	0.0000000E+000	-4.51186	12.6727	85.4881	-0.00162521
69097	0.0994024	-0.00415589	0.0994893	2.39407	101610	-0.0010841	-6.01974	-554.239	-0.967102	3	37	0.00521116	0.0523791	0	-5.60507	4.6	0.252785	0.160627	5.48585	5.39683e-06	4.7422e-06	5.00045e-06	5.85363e-06	2.67103e-06	6.34933e-06	0.100339	0.0580526	0.428329	1.51004e-05	4.92221e-05	3.75901e-06	5.85748e-06	3.59228e-06	3.71745e-06	10.0426	-0.419867	10.0513	-2.39407	-967.101	23131.6	23151.8	-92.3941	0.0000000E+000	0.0000000E+000	0.0000000E+000	92.3941	0.0000000E+000	0.0000000E+000	0.0000000E+000	-92.3941	0.0000000E+000	0.0000000E+000	0.0000000E+000	2.39407	0.0000000E+000	0.0000000E+000	0.0000000E+000	-2.39407	23.9184	87.6059	-0.00185221
34488.2	0.0994177	-0.00178267	0.0994337	1.02727	101614	-0.00110103	-6.10322	-2588.68	-0.832058	3	37	0.00518201	0.0521152	0	-5.61087	4.6	0.399102	0.149829	5.58758	1.22737e-05	6.86458e-06	4.50757e-06	9.36712e-06	4.04937e-06	6.54558e-06	0.113374	0.0555509	0.435117	1.17762e-05	5.69159e-05	2.34033e-06	8.44379e-06	2.36549e-06	3.65434e-06	10.0553	-0.180303	10.057	-1.02727	-832.058	46403	46410.5	-91.0273	0.0000000E+000	0.0000000E+000	0.0000000E+000	91.0273	0.0000000E+000	0.0000000E+000	0.0000000E+000	-91.0273	0.0000000E+000	0.0000000E+000	0.0000000E+000	1.02727	0.0000000E+000	0.0000000E+000	0.0000000E+000	-1.02727	55.769	88.9727	-0.0019565
17211.6	0.0994726	-0.000149237	0.0994727	0.0859597	101617	-0.0011058	-5.94857	-61961.6	-0.139465	3	37	0.0051603	0.0518766	0	-5.61663	4.6	0.306305	0.185546	5.4549	3.98228e-06	3.40751e-06	8.6859e-06	5.92984e-06	5.76152e-06	4.32004e-06	0.113219	0.00961922	0.423713	4.56671e-06	5.67924e-05	4.5292e-06	1.01754e-05	7.22065e-06	4.62466e-06	10.053	-0.0150823	10.053	-0.0859597	-139.467	92959.6	92959.7	-90.086	0.0000000E+000	0.0000000E+000	0.0000000E+000	90.086	0.0000000E+000	0.0000000E+000	0.0000000E+000	-90.086	0.0000000E+000	0.0000000E+000	0.0000000E+000	0.0859597	0.0000000E+000	0.0000000E+000	0.0000000E+000	-0.0859597	666.542	89.914	-0.00184044
8590.41	0.100207	0.000972502	0.100212	-0.556032	101621	-0.00120752	-6.58947	19050.9	1.79414	3	37	0.00524733	0.0523622	0	-5.62269	4.6	0.27914	0.116957	5.42728	7.28556e-06	4.2128e-06	4.48882e-06	7.12156e-06	5.85114e-06	4.87927e-06	0.122152	0.0570737	0.414909	2.92985e-06	6.11413e-05	6.1009e-06	1.40486e-05	3.21828e-06	7.80143e-06	9.97836	0.0968389	9.97883	0.556032	1794.13	184870	184878	-89.444	0.0000000E+000	0.0000000E+000	0.0000000E+000	89.444	0.0000000E+000	0.0000000E+000	0.0000000E+000	-89.444	0.0000000E+000	0.0000000E+000	0.0000000E+000	-0.556032	0.0000000E+000	0.0000000E+000	0.0000000E+000	0.556032	103.041	89.444	-0.00220888
4288.63	0.101053	0.00162713	0.101066	-0.922487	101624	-0.00121578	-6.83938	22807.6	5.91176	3	37	0.00516586	0.0511139	0	-5.62958	4.6	0.294259	0.135564	5.48878	7.02675e-06	4.70522e-06	4.69102e-06	7.70616e-06	4.46674e-06	4.54973e-06	0.0913523	0.0312422	0.435348	6.98262e-06	4.47821e-05	3.88951e-06	8.39837e-06	2.83739e-06	4.34759e-06	9.89327	0.1593	9.89455	0.922487	5911.75	367148	367196	-89.0775	0.0000000E+000	0.0000000E+000	0.0000000E+000	89.0775	0.0000000E+000	0.0000000E+000	0.0000000E+000	-89.0775	0.0000000E+000	0.0000000E+000	0.0000000E+000	-0.922487	0.0000000E+000	0.0000000E+000	0.0000000E+000	0.922487	62.1047	89.0775	-0.0025003
2140.69	0.102126	0.00221965	0.10215	-1.24509	101628	-0.00122288	-6.84458	33495.2	15.8151	3	37	0.00512996	0.0502198	0	-5.63684	4.6	0.304493	0.17178	5.61691	6.20144e-06	4.98093e-06	5.0677e-06	3.19274e-06	4.75891e-06	9.1113e-06	0.0683471	0.0251183	0.43105	6.99178e-06	3.17525e-05	4.95536e-06	6.78035e-06	3.26248e-06	5.28872e-06	9.7872	0.212719	9.78951	1.24509	15815.2	727655	727827	-88.7549	0.0000000E+000	0.0000000E+000	0.0000000E+000	88.7549	0.0000000E+000	0.0000000E+000	0.0000000E+000	-88.7549	0.0000000E+000	0.0000000E+000	0.0000000E+000	-1.24509	0.0000000E+000	0.0000000E+000	0.0000000E+000	1.24509	46.01	88.7549	-0.00255062
1068.29	0.103241	0.00243939	0.10327	-1.35354	101632	-0.00121405	-6.68115	61072.8	34.0771	3	37	0.00507368	0.0491303	0	-5.64393	4.6	0.281975	0.242145	5.54536	4.71043e-06	4.09986e-06	8.3329e-06	5.34619e-06	5.83119e-06	4.33389e-06	0.0318685	0.0965735	0.451093	8.01959e-06	6.50146e-06	2.03596e-06	7.40937e-06	4.52637e-06	6.97857e-06	9.68065	0.228735	9.68335	1.35354	34077.1	1.44223e+06	1.44263e+06	-88.6465	0.0000000E+000	0.0000000E+000	0.0000000E+000	88.6465	0.0000000E+000	0.0000000E+000	0.0000000E+000	-88.6465	0.0000000E+000	0.0000000E+000	0.0000000E+000	-1.35354	0.0000000E+000	0.0000000E+000	0.0000000E+000	1.35354	42.3225	88.6465	-0.00237467
533.464	0.104531	0.00249846	0.104561	-1.3692	101636	-0.00118515	-6.48719	119411	68.1786	3	37	0.00507751	0.0485603	0	-5.65129	4.6	0.303159	0.128565	5.61325	7.58835e-06	6.56886e-06	5.42214e-06	5.77516e-06	6.26535e-06	5.22589e-06	0.0492801	0.0102554	0.441993	1.05193e-05	1.44243e-05	3.12758e-06	1.29328e-05	6.05611e-06	4.41108e-06	9.56107	0.228525	9.5638	1.3692	68178.8	2.85247e+06	2.85329e+06	-88.6308	0.0000000E+000	0.0000000E+000	0.0000000E+000	88.6308	0.0000000E+000	0.0000000E+000	0.0000000E+000	-88.6308	0.0000000E+000	0.0000000E+000	0.0000000E+000	-1.3692	0.0000000E+000	0.0000000E+000	0.0000000E+000	1.3692	41.8382	88.6308	-0.00239553
266.278	0.105678	0.00237081	0.105704	-1.28518	101640	-0.00118027	-6.41319	252109	126.822	3	37	0.0050286	0.0475723	0	-5.65821	4.6	0.284608	0.172907	5.58219	3.68571e-06	4.55846e-06	6.63506e-06	4.66866e-06	7.33486e-06	5.68511e-06	0.0597885	0.0135407	0.451694	7.42518e-06	1.82221e-05	4.60105e-06	1.61721e-05	8.00122e-06	7.55209e-06	9.45797	0.212183	9.46035	1.28518	126823	5.65305e+06	5.65447e+06	-88.7148	0.0000000E+000	0.0000000E+000	0.0000000E+000	88.7148	0.0000000E+000	0.0000000E+000	0.0000000E+000	-88.7148	0.0000000E+000	0.0000000E+000	0.0000000E+000	-1.28518	0.0000000E+000	0.0000000E+000	0.0000000E+000	1.28518	44.5746	88.7148	-0.00237393
132.916	0.106659	0.00233836	0.106685	-1.25593	101643	-0.00119833	-6.85751	512073	246.008	3	37	0.00533826	0.0500377	0	-5.66439	4.6	0.29987	0.243292	5.28304	2.72315e-06	7.0937e-06	5.30557e-06	2.38365e-06	8.77503e-06	7.59091e-06	0.0854789	0.0219756	0.431997	9.13548e-06	2.82459e-05	5.83101e-06	2.8802e-05	5.70866e-06	4.70975e-06	9.37116	0.20545	9.37341	1.25593	246007	1.12211e+07	1.12238e+07	-88.7441	0.0000000E+000	0.0000000E+000	0.0000000E+000	88.7441	0.0000000E+000	0.0000000E+000	0.0000000E+000	-88.7441	0.0000000E+000	0.0000000E+000	0.0000000E+000	-1.25593	0.0000000E+000	0.0000000E+000	0.0000000E+000	1.25593	45.6129	88.7441	-0.00210313
66.3374	0.107556	0.00246638	0.107584	-1.31363	101647	-0.00118196	-6.66096	972751	511.239	3	37	0.00541838	0.0503641	0	-5.67048	4.6	0.319007	0.132221	5.20482	4.41844e-06	7.1251e-06	7.1006e-06	3.87362e-06	7.21994e-06	6.89395e-06	0.102736	0.0101527	0.434318	8.72735e-06	3.36217e-05	8.77979e-06	3.61753e-05	5.47228e-06	3.35037e-06	9.29259	0.21309	9.29503	1.31363	511240	2.22946e+07	2.23004e+07	-88.6864	0.0000000E+000	0.0000000E+000	0.0000000E+000	88.6864	0.0000000E+000	0.0000000E+000	0.0000000E+000	-88.6864	0.0000000E+000	0.0000000E+000	0.0000000E+000	-1.31363	0.0000000E+000	0.0000000E+000	0.0000000E+000	1.31363	43.6089	88.6864	-0.00207983
33.1038	0.108473	0.00281561	0.10851	-1.48688	101650	-0.00118689	-6.38378	1.70753e+06	1149.68	3	37	0.00543325	0.0500716	0	-5.67668	4.6	0.343683	0.166562	5.17692	8.55762e-06	7.53175e-06	3.81194e-06	1.12666e-05	5.06044e-06	4.22258e-06	0.108646	0.0257136	0.430669	5.88949e-06	3.49724e-05	5.62981e-06	4.00271e-05	4.82654e-06	4.80484e-06	9.21266	0.239131	9.21576	1.48688	1.14968e+06	4.42922e+07	4.43071e+07	-88.5131	0.0000000E+000	0.0000000E+000	0.0000000E+000	88.5131	0.0000000E+000	0.0000000E+000	0.0000000E+000	-88.5131	0.0000000E+000	0.0000000E+000	0.0000000E+000	-1.48688	0.0000000E+000	0.0000000E+000	0.0000000E+000	1.48688	38.5256	88.5131	-0.00207283
16.5286	0.109723	0.00314335	0.109768	-1.64097	101653	-0.00117965	-6.71037	3.06331e+06	2512.04	3	37	0.00543819	0.0495426	0	-5.68279	4.6	0.302462	0.0846084	5.26154	5.9677e-06	4.01528e-06	7.10849e-06	8.13549e-06	3.72402e-06	5.08462e-06	0.185803	0.0569353	0.415878	1.00695e-05	8.12449e-05	1.20508e-05	3.70125e-05	7.37888e-06	8.79186e-06	9.10639	0.260881	9.11012	1.64097	2.51204e+06	8.7686e+07	8.7722e+07	-88.359	0.0000000E+000	0.0000000E+000	0.0000000E+000	88.359	0.0000000E+000	0.0000000E+000	0.0000000E+000	-88.359	0.0000000E+000	0.0000000E+000	0.0000000E+000	-1.64097	0.0000000E+000	0.0000000E+000	0.0000000E+000	1.64097	34.9063	88.359	-0.00214673
8.24973	0.11075	0.00369603	0.110812	-1.91141	101657	-0.00118017	-6.69212	5.21969e+06	5806.9	3	37	0.00543474	0.0490448	0	-5.68868	4.6	0.236614	0.124154	3.66339	3.90914e-06	6.43773e-06	5.9863e-06	4.80735e-06	4.77687e-06	3.60392e-06	0.194754	0.0963041	0.318701	4.44744e-05	3.85108e-05	4.47638e-06	4.04815e-05	6.20683e-05	9.15781e-06	9.0193	0.300998	9.02432	1.91141	5.80691e+06	1.74002e+08	1.74098e+08	-88.0886	0.0000000E+000	0.0000000E+000	0.0000000E+000	88.0886	0.0000000E+000	0.0000000E+000	0.0000000E+000	-88.0886	0.0000000E+000	0.0000000E+000	0.0000000E+000	-1.91141	0.0000000E+000	0.0000000E+000	0.0000000E+000	1.91141	29.9646	88.0886	-0.00192199
4.11618	0.112144	0.00509065	0.112259	-2.5991	101662	-0.00119227	-6.72015	7.59543e+06	15619.1	3	37	0.00543779	0.0484396	0	-5.69828	4.6	0.169754	0.0608745	2.59401	5.30308e-06	4.89329e-06	1.84557e-06	4.28395e-06	1.95663e-06	1.62712e-06	0.131448	0.115663	0.300466	2.0321e-05	3.80622e-05	2.05061e-05	3.88774e-05	6.69375e-06	7.33958e-06	8.8988	0.403953	8.90797	2.5991	1.56191e+07	3.44078e+08	3.44433e+08	-87.4009	0.0000000E+000	0.0000000E+000	0.0000000E+000	87.4009	0.0000000E+000	0.0000000E+000	0.0000000E+000	-87.4009	0.0000000E+000	0.0000000E+000	0.0000000E+000	-2.5991	0.0000000E+000	0.0000000E+000	0.0000000E+000	2.5991	22.0293	87.4009	-0.00419218
2.05457	0.11413	0.00756906	0.114381	-3.79428	101670	-0.0012039	-6.52189	1.02343e+07	44816.2	3	37	0.00543269	0.0474966	0	-5.71256	4.6	0.168468	0.0780939	1.74361	3.98429e-06	5.1652e-06	1.17329e-06	3.50574e-06	3.23902e-06	1.79358e-06	0.146556	0.150532	0.273848	2.52273e-05	4.65479e-05	6.17194e-06	3.29714e-05	1.22679e-05	2.61707e-05	8.72357	0.578544	8.74273	3.79428	4.48162e+07	6.75761e+08	6.77245e+08	-86.2057	0.0000000E+000	0.0000000E+000	0.0000000E+000	86.2057	0.0000000E+000	0.0000000E+000	0.0000000E+000	-86.2057	0.0000000E+000	0.0000000E+000	0.0000000E+000	-3.79428	0.0000000E+000	0.0000000E+000	0.0000000E+000	3.79428	15.0785	86.2057	-0.00590586
1.02607	0.117399	0.0109991	0.117914	-5.35237	101685	-0.00120774	-6.67515	1.41022e+07	122707	3	37	0.00543455	0.0460893	0	-5.74282	4.6	0.133934	0.0693701	1.22548	2.40404e-06	3.69144e-06	1.40481e-06	4.36808e-06	1.58659e-06	2.30096e-06	0.190915	0.227372	0.295642	4.54283e-05	4.79138e-05	2.11e-05	4.78425e-05	1.24212e-05	1.51698e-05	8.44381	0.791093	8.48079	5.35237	1.22707e+08	1.30973e+09	1.31546e+09	-84.6476	0.0000000E+000	0.0000000E+000	0.0000000E+000	84.6476	0.0000000E+000	0.0000000E+000	0.0000000E+000	-84.6476	0.0000000E+000	0.0000000E+000	0.0000000E+000	-5.35237	0.0000000E+000	0.0000000E+000	0.0000000E+000	5.35237	10.6736	84.6476	-0.0120699
0.511825	0.122539	0.0155685	0.123524	-7.24059	101715	-0.0011895	-6.60453	1.99734e+07	317278	3	37	0.00542985	0.0439577	0	-5.79847	4.6	0.113912	0.0610774	0.872703	1.82354e-06	3.68882e-06	1.05708e-06	3.84066e-06	1.3396e-06	7.97898e-07	0.243271	0.488503	0.330175	6.03844e-05	5.96471e-05	2.21048e-05	5.52533e-05	1.61076e-05	1.44829e-05	8.03101	1.02033	8.09557	7.24059	3.17278e+08	2.49729e+09	2.51736e+09	-82.7594	0.0000000E+000	0.0000000E+000	0.0000000E+000	82.7594	0.0000000E+000	0.0000000E+000	0.0000000E+000	-82.7594	0.0000000E+000	0.0000000E+000	0.0000000E+000	-7.24059	0.0000000E+000	0.0000000E+000	0.0000000E+000	7.24059	7.87097	82.7594	-0.0205245
0.255612	0.13023	0.0213559	0.13197	-9.3128	101774	-0.00119117	-6.67532	2.91555e+07	763499	3	37	0.00542461	0.0411049	0	-5.91029	4.6	0.115732	0.065982	0.616136	2.02166e-06	3.93277e-06	2.46319e-07	3.85549e-06	1.66871e-06	9.21196e-07	0.406153	0.603378	0.34337	0.000147327	4.68892e-05	2.39774e-05	4.72351e-05	1.87687e-05	1.24442e-05	7.47761	1.22622	7.57749	9.3128	7.63499e+08	4.65589e+09	4.71808e+09	-80.6872	0.0000000E+000	0.0000000E+000	0.0000000E+000	80.6872	0.0000000E+000	0.0000000E+000	0.0000000E+000	-80.6872	0.0000000E+000	0.0000000E+000	0.0000000E+000	-9.3128	0.0000000E+000	0.0000000E+000	0.0000000E+000	9.3128	6.09809	80.6872	-0.0517505
0.127525	0.142618	0.0293349	0.145604	-11.623	101891	-0.00118903	-6.63953	4.25443e+07	1.72689e+06	3	37	0.00541795	0.0372102	0	-6.10656	4.6	0.113945	0.100045	0.450669	2.78165e-06	3.45584e-06	9.60505e-07	3.51242e-06	1.61087e-06	9.95496e-07	0.491801	1.65273	0.612237	0.00012603	8.31603e-05	4.68046e-05	4.6193e-05	2.96617e-05	2.10861e-05	6.72712	1.38369	6.86795	11.623	1.72689e+09	8.39565e+09	8.57142e+09	-78.377	0.0000000E+000	0.0000000E+000	0.0000000E+000	78.377	0.0000000E+000	0.0000000E+000	0.0000000E+000	-78.377	0.0000000E+000	0.0000000E+000	0.0000000E+000	-11.623	0.0000000E+000	0.0000000E+000	0.0000000E+000	11.623	4.86173	78.377	-0.0763825
0.0636941	0.163089	0.0289233	0.165633	-10.0567	102124	-0.00119205	-6.66532	8.63918e+07	2.63435e+06	3	37	0.00541049	0.0326655	0	-6.54511	4.6	0.118705	0.0823425	0.342108	2.55963e-06	3.19892e-06	1.19186e-06	4.40338e-06	1.63866e-06	6.54515e-07	1.30818	0.551823	1.49939	0.000370164	0.00012356	0.00012924	9.79468e-05	4.4285e-05	3.53706e-05	5.94467	1.05427	6.03743	10.0567	2.63435e+09	1.48542e+10	1.5086e+10	-79.9433	0.0000000E+000	0.0000000E+000	0.0000000E+000	79.9433	0.0000000E+000	0.0000000E+000	0.0000000E+000	-79.9433	0.0000000E+000	0.0000000E+000	0.0000000E+000	-10.0567	0.0000000E+000	0.0000000E+000	0.0000000E+000	10.0567	5.63865	79.9433	-0.192222
0.0317924	0.176429	0.0191415	0.177464	-6.19202	102591	-0.00119582	-6.53294	2.6153e+08	3.04263e+06	3	37	0.0054086	0.0304771	0	-7.41408	4.6	0.152115	0.102086	0.254	4.45898e-06	4.36999e-06	1.88616e-06	4.3164e-06	1.61245e-06	9.86707e-07	0.278901	0.187471	2.2028	1.31101e-05	2.89886e-05	1.46862e-05	1.62821e-05	5.60806e-05	4.92668e-05	5.60206	0.60779	5.63494	6.19202	3.04263e+09	2.80443e+10	2.82088e+10	-83.808	0.0000000E+000	0.0000000E+000	0.0000000E+000	83.808	0.0000000E+000	0.0000000E+000	0.0000000E+000	-83.808	0.0000000E+000	0.0000000E+000	0.0000000E+000	-6.19202	0.0000000E+000	0.0000000E+000	0.0000000E+000	6.19202	9.21711	83.808	-0.339033
0.0199946	0.180109	0.0129926	0.180577	-4.12603	103139	-0.00117246	-6.44567	6.12646e+08	3.1716e+06	3	37	0.00540587	0.0299366	0	-8.32752	4.6	0.1035	0.118921	0.220515	2.36853e-06	2.68972e-06	9.57481e-07	3.28372e-06	1.57128e-06	7.47031e-07	0.192336	0.175158	2.23862	1.93171e-05	2.27068e-05	1.05703e-05	3.79688e-05	1.90824e-05	2.02559e-05	5.52344	0.398448	5.5378	4.12603	3.1716e+09	4.3966e+10	4.40803e+10	-85.874	0.0000000E+000	0.0000000E+000	0.0000000E+000	85.874	0.0000000E+000	0.0000000E+000	0.0000000E+000	-85.874	0.0000000E+000	0.0000000E+000	0.0000000E+000	-4.12603	0.0000000E+000	0.0000000E+000	0.0000000E+000	4.12603	13.8624	85.874	-0.506915