File: Python/Experiments/IRFB/240515-Paper-1p5M_FeCl2FeCl3-1M_HCl/Data/240515-EIS-Paper-1p5M_FeCl2FeCl3-1M_HCl-Wamup_10mLmin-4xFlowRate-20mHz_10ppd_09_PEIS_C15.mpt
EC-Lab ASCII FILE
Nb header lines : 75

Potentio Electrochemical Impedance Spectroscopy

Run on channel : 15 (SN 19485)
User :
Electrode connection : standard
Potential control : Ewe
Ewe ctrl range : min = -1.00 V, max = 1.00 V
Ewe,I filtering : 50 kHz
Safety Limits :
	Do not start on E overload
Channel : Grounded
Acquisition started on : 05/15/2024 11:35:32.904
Loaded Setting File :  C:\Data\mathias\IRFB\240507-EIS-Cloth-1p5M_FeCl2FeCl3-1M_HCl-Wamup_10mLmin-4xFlowRate-20mHz_10ppd.mps
Saved on :
	File : 240515-EIS-Paper-1p5M_FeCl2FeCl3-1M_HCl-Wamup_10mLmin-4xFlowRate-20mHz_10ppd_09_PEIS_C15.mpr
	Directory : C:\Data\mathias\IRFB\
	Host : 192.168.0.1
Device : VMP-300 (SN 0826)
Address : USB
EC-Lab for windows v11.52 (software)
Internet server v11.52 (firmware)
Command interpretor v11.52 (firmware)
Electrode material :
Initial state :
Electrolyte :
Comments :
Cable : special
Electrode surface area : 0.001 cm²
Characteristic mass : 0.001 g
Equivalent Weight : 0.000 g/eq.
Density : 0.000 g/cm3
Volume (V) : 0.001 cm³
Record EIS quality indicators
Cycle Definition : Charge/Discharge alternance
External device configuration :
   device type : Other
   device name : Other
   Analog OUT :
      mode : E/V
      unit : KNF Pump/ml/min
      max : 120.000 at 5.000 V
      min : 0.000 at 0.000 V
      current : 3.400
Mode                Single sine
E (V)               0.0000
vs.                 Eoc
tE (h:m:s)          0:00:0.0000
record              0
dI                  0.000
unit dI             mA
dt (s)              0.000
fi                  220.000
unit fi             kHz
ff                  20.000
unit ff             mHz
Nd                  10
Points              per decade
spacing             Logarithmic
Va (mV)             5.0
pw                  0.10
Na                  3
corr                0
E range min (V)     -1.000
E range max (V)     1.000
I Range             Auto
Bandwidth           8
nc cycles           2
goto Ns'            0
nr cycles           0
inc. cycle          0

freq/Hz	Re(Z)/Ohm	-Im(Z)/Ohm	|Z|/Ohm	Phase(Z)/deg	time/s	<Ewe>/V	<I>/mA	Cs/µF	Cp/µF	cycle number	I Range	|Ewe|/V	|I|/A	Ns	(Q-Qo)/mA.h	Analog OUT/V	THD Ewe/%	NSD Ewe/%	NSR Ewe/%	|Ewe h2|/V	|Ewe h3|/V	|Ewe h4|/V	|Ewe h5|/V	|Ewe h6|/V	|Ewe h7|/V	THD I/%	NSD I/%	NSR I/%	|I h2|/A	|I h3|/A	|I h4|/A	|I h5|/A	|I h6|/A	|I h7|/A	Re(Y)/Ohm-1	Im(Y)/Ohm-1	|Y|/Ohm-1	Phase(Y)/deg	Re(C)/nF	Im(C)/nF	|C|/nF	Phase(C)/deg	Re(M)	Im(M)	|M|	Phase(M)/deg	Re(Permittivity)	Im(Permittivity)	|Permittivity|	Phase(Permittivity)/deg	Re(Resistivity)/Ohm.cm	Im(Resistivity)/Ohm.cm	|Resistivity|/Ohm.cm	Phase(Resistivity)/deg	Re(Conductivity)/mS/cm	Im(Conductivity)/mS/cm	|Conductivity|/mS/cm	Phase(Conductivity)/deg	Tan(Delta)	Loss Angle(Delta)/deg	dq/mA.h
220003	0.0956917	-0.0121885	0.0964648	7.25881	108947	-0.00109165	-8.16927	-59.3531	-0.947554	1	37	0.00339762	0.0352213	0	-0.00357819	14.3	-1	-1	-1	0	0	0	0	0	0	-1	-1	-1	0	0	0	0	0	0	10.2834	-1.30982	10.3665	-7.25881	-947.554	7439.24	7499.35	-97.2588	0.0000000E+000	0.0000000E+000	0.0000000E+000	97.2588	0.0000000E+000	0.0000000E+000	0.0000000E+000	-97.2588	0.0000000E+000	0.0000000E+000	0.0000000E+000	7.25881	0.0000000E+000	0.0000000E+000	0.0000000E+000	-7.25881	7.851	82.7412	-0.00357819
109811	0.0990544	-0.00612203	0.0992434	3.53665	108950	-0.00110187	-8.26212	-236.744	-0.900879	1	37	0.00523479	0.052747	0	-0.0108621	14.3	-1	-1	-1	0	0	0	0	0	0	-1	-1	-1	0	0	0	0	0	0	10.057	-0.621573	10.0762	-3.53665	-900.878	14576.2	14604	-93.5367	0.0000000E+000	0.0000000E+000	0.0000000E+000	93.5367	0.0000000E+000	0.0000000E+000	0.0000000E+000	-93.5367	0.0000000E+000	0.0000000E+000	0.0000000E+000	3.53665	0.0000000E+000	0.0000000E+000	0.0000000E+000	-3.53665	16.18	86.4633	-0.00257235
54808.1	0.09946	-0.00328171	0.0995141	1.88981	108954	-0.00109514	-8.22016	-884.86	-0.962292	1	37	0.00519591	0.0522128	0	-0.0186937	14.3	0.327294	0.157434	5.53561	7.22394e-06	1.03848e-05	6.21573e-06	5.57155e-06	4.22302e-06	3.84305e-06	0.110575	0.0506121	0.408754	7.29322e-06	5.60953e-05	4.01087e-06	5.36834e-06	3.57947e-06	7.04829e-06	10.0434	-0.331384	10.0488	-1.88981	-962.293	29164.5	29180.4	-91.8898	0.0000000E+000	0.0000000E+000	0.0000000E+000	91.8898	0.0000000E+000	0.0000000E+000	0.0000000E+000	-91.8898	0.0000000E+000	0.0000000E+000	0.0000000E+000	1.88981	0.0000000E+000	0.0000000E+000	0.0000000E+000	-1.88981	30.3073	88.1102	-0.00268096
27362.3	0.0994196	-0.0010902	0.0994256	0.628261	108957	-0.0010989	-8.21299	-5335.32	-0.641472	1	37	0.00517833	0.0520825	0	-0.0264811	14.3	0.282522	0.177196	5.37386	4.83282e-06	8.32377e-06	5.17481e-06	3.57704e-06	7.13924e-06	3.36377e-06	0.112421	0.0411687	0.409805	4.1153e-06	5.71865e-05	4.22069e-06	8.15833e-06	2.856e-06	6.4012e-06	10.0572	-0.110283	10.0578	-0.628261	-641.469	58498.3	58501.8	-90.6283	0.0000000E+000	0.0000000E+000	0.0000000E+000	90.6283	0.0000000E+000	0.0000000E+000	0.0000000E+000	-90.6283	0.0000000E+000	0.0000000E+000	0.0000000E+000	0.628261	0.0000000E+000	0.0000000E+000	0.0000000E+000	-0.628261	91.1938	89.3717	-0.00259852
13658	0.0997892	0.000274532	0.0997895	-0.157627	108961	-0.00110047	-8.2431	42446.5	0.32126	1	37	0.00515205	0.0516292	0	-0.0343648	14.3	0.267423	0.155254	5.44774	4.20232e-06	8.15083e-06	4.33162e-06	5.31158e-06	4.21117e-06	3.80327e-06	0.100936	0.00855411	0.417835	6.00804e-06	5.06269e-05	5.38873e-06	5.17509e-06	3.99816e-06	4.44708e-06	10.0211	0.0275691	10.0211	0.157627	321.253	116774	116775	-89.8424	0.0000000E+000	0.0000000E+000	0.0000000E+000	89.8424	0.0000000E+000	0.0000000E+000	0.0000000E+000	-89.8424	0.0000000E+000	0.0000000E+000	0.0000000E+000	-0.157627	0.0000000E+000	0.0000000E+000	0.0000000E+000	0.157627	363.489	89.8424	-0.0026562
6816.86	0.100422	0.00129147	0.10043	-0.736812	108964	-0.00121313	-9.03656	18078	2.98948	1	37	0.00518993	0.0516771	0	-0.043054	14.3	0.310284	0.194517	5.41053	5.69279e-06	8.75771e-06	4.26959e-06	8.39482e-06	2.92413e-06	4.37811e-06	0.110844	0.0474416	0.42329	9.11475e-06	5.48487e-05	7.43576e-06	7.908e-06	1.97522e-06	5.9972e-06	9.95638	0.128044	9.9572	0.736812	2989.46	232454	232473	-89.2632	0.0000000E+000	0.0000000E+000	0.0000000E+000	89.2632	0.0000000E+000	0.0000000E+000	0.0000000E+000	-89.2632	0.0000000E+000	0.0000000E+000	0.0000000E+000	-0.736812	0.0000000E+000	0.0000000E+000	0.0000000E+000	0.736812	77.7575	89.2632	-0.00300081
3403.27	0.101354	0.00191278	0.101372	-1.08117	108968	-0.00121226	-9.04456	24448.9	8.7046	1	37	0.0051599	0.0509004	0	-0.0528137	14.3	0.26614	0.12939	5.46982	3.04995e-06	8.48741e-06	3.89332e-06	5.14736e-06	5.68558e-06	3.93876e-06	0.0823668	0.0425935	0.423489	1.02069e-05	3.87966e-05	3.58069e-06	7.45869e-06	5.2387e-06	5.39658e-06	9.86286	0.186134	9.86462	1.08117	8704.61	461240	461322	-88.9188	0.0000000E+000	0.0000000E+000	0.0000000E+000	88.9188	0.0000000E+000	0.0000000E+000	0.0000000E+000	-88.9188	0.0000000E+000	0.0000000E+000	0.0000000E+000	-1.08117	0.0000000E+000	0.0000000E+000	0.0000000E+000	1.08117	52.988	88.9188	-0.00326979
1698.37	0.102513	0.00236606	0.102541	-1.32218	108972	-0.00121794	-9.03967	39606.2	21.0873	1	37	0.00517386	0.0504566	0	-0.0627133	14.3	0.257631	0.174846	5.34139	7.89983e-06	6.23682e-06	3.89826e-06	3.10989e-06	4.77439e-06	3.72039e-06	0.0531943	0.0613413	0.425518	1.44526e-05	2.02189e-05	2.70329e-06	4.91976e-06	5.74568e-06	5.21245e-06	9.74962	0.225026	9.75222	1.32218	21087.3	913643	913886	-88.6778	0.0000000E+000	0.0000000E+000	0.0000000E+000	88.6778	0.0000000E+000	0.0000000E+000	0.0000000E+000	-88.6778	0.0000000E+000	0.0000000E+000	0.0000000E+000	-1.32218	0.0000000E+000	0.0000000E+000	0.0000000E+000	1.32218	43.3267	88.6778	-0.00320121
847.556	0.103961	0.0025067	0.103991	-1.38124	108976	-0.00120966	-8.98087	74911.7	43.527	1	37	0.00510697	0.0491096	0	-0.0725536	14.3	0.233248	0.182065	5.47108	4.95799e-06	3.59395e-06	4.04462e-06	4.31603e-06	5.52557e-06	4.56302e-06	0.0432842	0.0967378	0.437339	1.76547e-05	3.83272e-06	3.71453e-06	7.93211e-06	1.67008e-06	5.99617e-06	9.61338	0.231796	9.61617	1.38124	43527	1.80521e+06	1.80574e+06	-88.6188	0.0000000E+000	0.0000000E+000	0.0000000E+000	88.6188	0.0000000E+000	0.0000000E+000	0.0000000E+000	-88.6188	0.0000000E+000	0.0000000E+000	0.0000000E+000	-1.38124	0.0000000E+000	0.0000000E+000	0.0000000E+000	1.38124	41.4734	88.6188	-0.00334744
423.239	0.105084	0.00264695	0.105118	-1.4429	108980	-0.00118305	-8.96755	142066	90.0798	1	37	0.00503249	0.0478748	0	-0.0825636	14.3	0.214301	0.131173	5.40555	4.4491e-06	4.03784e-06	2.85524e-06	3.13939e-06	4.51557e-06	5.73635e-06	0.0575988	0.0168237	0.436442	1.88792e-05	1.36141e-05	2.29261e-06	1.27824e-05	3.4278e-06	4.78312e-06	9.51013	0.239548	9.51314	1.4429	90079.6	3.57619e+06	3.57732e+06	-88.5571	0.0000000E+000	0.0000000E+000	0.0000000E+000	88.5571	0.0000000E+000	0.0000000E+000	0.0000000E+000	-88.5571	0.0000000E+000	0.0000000E+000	0.0000000E+000	-1.4429	0.0000000E+000	0.0000000E+000	0.0000000E+000	1.4429	39.7002	88.5571	-0.00332587
211.149	0.106256	0.00237781	0.106282	-1.28196	108984	-0.00117043	-8.93539	316997	158.667	1	37	0.00517866	0.0487256	0	-0.0913237	14.3	0.293656	0.143715	5.28236	6.17513e-06	4.94777e-06	2.82405e-06	5.70063e-06	5.16203e-06	8.956e-06	0.0720355	0.010505	0.438024	1.65406e-05	2.11868e-05	6.11221e-06	2.08937e-05	2.5801e-06	3.17646e-06	9.40656	0.210502	9.40892	1.28196	158667	7.09027e+06	7.09204e+06	-88.718	0.0000000E+000	0.0000000E+000	0.0000000E+000	88.718	0.0000000E+000	0.0000000E+000	0.0000000E+000	-88.718	0.0000000E+000	0.0000000E+000	0.0000000E+000	-1.28196	0.0000000E+000	0.0000000E+000	0.0000000E+000	1.28196	44.6863	88.718	-0.0027441
105.438	0.107211	0.00238896	0.107238	-1.2765	108987	-0.0011784	-8.89578	631847	313.572	1	37	0.0053764	0.0501354	0	-0.0996074	14.3	0.224288	0.167179	5.15733	4.22896e-06	4.14644e-06	5.0968e-06	3.22406e-06	4.76659e-06	3.80664e-06	0.0993143	0.0156652	0.426008	9.92957e-06	3.36593e-05	4.41862e-06	3.39372e-05	5.21526e-06	6.57237e-06	9.32277	0.207738	9.32509	1.2765	313573	1.40723e+07	1.40758e+07	-88.7235	0.0000000E+000	0.0000000E+000	0.0000000E+000	88.7235	0.0000000E+000	0.0000000E+000	0.0000000E+000	-88.7235	0.0000000E+000	0.0000000E+000	0.0000000E+000	-1.2765	0.0000000E+000	0.0000000E+000	0.0000000E+000	1.2765	44.8776	88.7235	-0.00274893
52.6255	0.108249	0.00257258	0.108279	-1.3614	108990	-0.00117837	-8.91173	1.17559e+06	663.59	1	37	0.00542679	0.0501184	0	-0.107908	14.3	0.293708	0.101571	5.08797	8.37048e-06	3.79369e-06	5.56153e-06	6.44429e-06	6.5059e-06	5.77503e-06	0.097403	0.0864907	0.422087	1.14915e-05	2.97204e-05	5.26534e-06	3.48937e-05	5.61451e-06	7.7037e-06	9.23276	0.21942	9.23536	1.3614	663588	2.79225e+07	2.79304e+07	-88.6386	0.0000000E+000	0.0000000E+000	0.0000000E+000	88.6386	0.0000000E+000	0.0000000E+000	0.0000000E+000	-88.6386	0.0000000E+000	0.0000000E+000	0.0000000E+000	-1.3614	0.0000000E+000	0.0000000E+000	0.0000000E+000	1.3614	42.078	88.6386	-0.00277048
26.2693	0.109341	0.00262733	0.109373	-1.37648	108994	-0.00116983	-8.84598	2.30599e+06	1330.66	1	37	0.00543901	0.0497292	0	-0.115957	14.3	0.308991	0.181666	5.18309	4.99975e-06	7.62811e-06	4.36428e-06	7.59256e-06	4.6847e-06	6.90515e-06	0.13233	0.0452094	0.438975	3.91847e-05	3.46257e-05	1.15603e-05	3.44188e-05	1.32916e-05	5.72476e-06	9.14042	0.219633	9.14306	1.37648	1.33066e+06	5.5378e+07	5.5394e+07	-88.6235	0.0000000E+000	0.0000000E+000	0.0000000E+000	88.6235	0.0000000E+000	0.0000000E+000	0.0000000E+000	-88.6235	0.0000000E+000	0.0000000E+000	0.0000000E+000	-1.37648	0.0000000E+000	0.0000000E+000	0.0000000E+000	1.37648	41.6168	88.6235	-0.00250805
13.1083	0.110216	0.00297324	0.110256	-1.54526	108997	-0.00116639	-8.80025	4.08362e+06	2969.62	1	37	0.0054371	0.0493134	0	-0.124102	14.3	0.254294	0.0836311	3.70622	1.68101e-06	5.65587e-06	4.14224e-06	6.1753e-06	6.8167e-06	5.59641e-06	0.146433	0.0819115	0.33113	1.29403e-05	4.6004e-05	2.63355e-05	4.26331e-05	7.0848e-06	1.23958e-05	9.0665	0.244582	9.0698	1.54526	2.96962e+06	1.10082e+08	1.10122e+08	-88.4547	0.0000000E+000	0.0000000E+000	0.0000000E+000	88.4547	0.0000000E+000	0.0000000E+000	0.0000000E+000	-88.4547	0.0000000E+000	0.0000000E+000	0.0000000E+000	-1.54526	0.0000000E+000	0.0000000E+000	0.0000000E+000	1.54526	37.0693	88.4547	-0.00260695
6.54313	0.111234	0.00378922	0.111299	-1.95105	109001	-0.00116987	-8.80132	6.41925e+06	7440.57	1	37	0.0054353	0.0488353	0	-0.132844	14.3	0.199136	0.172677	3.70966	4.51284e-06	4.22566e-06	2.73602e-06	3.22183e-06	6.41227e-06	3.76109e-06	0.136326	0.0933895	0.351565	2.48051e-05	4.0092e-05	7.27458e-06	4.1295e-05	7.73299e-06	1.35829e-05	8.97964	0.305894	8.98484	1.95105	7.44055e+06	2.1842e+08	2.18547e+08	-88.049	0.0000000E+000	0.0000000E+000	0.0000000E+000	88.049	0.0000000E+000	0.0000000E+000	0.0000000E+000	-88.049	0.0000000E+000	0.0000000E+000	0.0000000E+000	-1.95105	0.0000000E+000	0.0000000E+000	0.0000000E+000	1.95105	29.3553	88.049	-0.00338839
3.26541	0.112819	0.00537478	0.112947	-2.72756	109006	-0.00116467	-8.77535	9.06821e+06	20535.1	1	37	0.00543583	0.0481274	0	-0.146625	14.3	0.173889	0.0814318	2.29846	2.05187e-06	4.12142e-06	3.4733e-06	6.3095e-06	3.50521e-06	1.5777e-06	0.139553	0.0537732	0.291691	8.56609e-06	3.67592e-05	1.25274e-05	5.20096e-05	8.4226e-06	6.82598e-06	8.84371	0.421322	8.85374	2.72756	2.05351e+07	4.31039e+08	4.31528e+08	-87.2724	0.0000000E+000	0.0000000E+000	0.0000000E+000	87.2724	0.0000000E+000	0.0000000E+000	0.0000000E+000	-87.2724	0.0000000E+000	0.0000000E+000	0.0000000E+000	-2.72756	0.0000000E+000	0.0000000E+000	0.0000000E+000	2.72756	20.9904	87.2724	-0.00506578
1.63084	0.115254	0.0075165	0.115498	-3.73138	109017	-0.00116936	-8.83842	1.29836e+07	54988.7	1	37	0.00543309	0.0470404	0	-0.172139	14.3	0.161643	0.0910917	1.54887	4.44233e-06	4.14403e-06	1.75398e-06	4.6024e-06	2.58282e-06	2.04067e-06	0.117582	0.0719476	0.274578	7.15038e-06	3.61318e-05	7.28499e-06	3.90925e-05	4.42153e-06	7.10205e-06	8.63977	0.563461	8.65813	3.73138	5.49887e+07	8.43165e+08	8.44956e+08	-86.2686	0.0000000E+000	0.0000000E+000	0.0000000E+000	86.2686	0.0000000E+000	0.0000000E+000	0.0000000E+000	-86.2686	0.0000000E+000	0.0000000E+000	0.0000000E+000	-3.73138	0.0000000E+000	0.0000000E+000	0.0000000E+000	3.73138	15.3334	86.2686	-0.0111639
0.813551	0.119093	0.00993566	0.119507	-4.769	109036	-0.00115579	-8.77556	1.96897e+07	136096	1	37	0.00543217	0.0454548	0	-0.218093	14.3	0.118688	0.0646758	1.09913	2.22842e-06	3.56294e-06	1.42249e-06	3.65179e-06	2.14566e-06	1.27944e-06	0.116324	0.120862	0.27216	9.95973e-06	3.20798e-05	7.90131e-06	3.70474e-05	9.95926e-06	5.81279e-06	8.33874	0.695681	8.36771	4.769	1.36096e+08	1.63131e+09	1.63697e+09	-85.231	0.0000000E+000	0.0000000E+000	0.0000000E+000	85.231	0.0000000E+000	0.0000000E+000	0.0000000E+000	-85.231	0.0000000E+000	0.0000000E+000	0.0000000E+000	-4.769	0.0000000E+000	0.0000000E+000	0.0000000E+000	4.769	11.9865	85.231	-0.0188895
0.406108	0.125063	0.0134812	0.125788	-6.15245	109073	-0.0011521	-8.69917	2.90703e+07	333911	1	37	0.00542783	0.0431507	0	-0.305336	14.3	0.129356	0.0571069	0.770939	2.59001e-06	4.47355e-06	2.07358e-06	3.44601e-06	1.4654e-06	9.67493e-07	0.149352	0.136368	0.298865	3.06494e-05	2.73133e-05	9.25429e-06	3.97091e-05	1.12655e-05	8.48634e-06	7.9041	0.852024	7.94989	6.15245	3.33911e+08	3.09764e+09	3.11559e+09	-83.8475	0.0000000E+000	0.0000000E+000	0.0000000E+000	83.8475	0.0000000E+000	0.0000000E+000	0.0000000E+000	-83.8475	0.0000000E+000	0.0000000E+000	0.0000000E+000	-6.15245	0.0000000E+000	0.0000000E+000	0.0000000E+000	6.15245	9.27685	83.8475	-0.033704
0.202719	0.134217	0.0123611	0.134785	-5.26197	109147	-0.00116807	-8.86438	6.3514e+07	534195	1	37	0.00542374	0.04024	0	-0.49594	14.3	0.117275	0.0573782	0.543168	6.23983e-07	3.71656e-06	1.12536e-06	4.10545e-06	2.17723e-06	1.2467e-06	0.135946	0.0536411	0.267502	8.3522e-06	3.65374e-05	9.63055e-06	3.65489e-05	6.91804e-06	6.43851e-06	7.38797	0.680416	7.41924	5.26197	5.34196e+08	5.8003e+09	5.82485e+09	-84.738	0.0000000E+000	0.0000000E+000	0.0000000E+000	84.738	0.0000000E+000	0.0000000E+000	0.0000000E+000	-84.738	0.0000000E+000	0.0000000E+000	0.0000000E+000	-5.26197	0.0000000E+000	0.0000000E+000	0.0000000E+000	5.26197	10.858	84.738	-0.0735043
0.101164	0.139365	0.00783767	0.139585	-3.21883	109294	-0.00117633	-8.86533	2.00728e+08	632852	1	37	0.00542178	0.0388421	0	-0.835179	14.3	0.114094	0.064168	0.400821	2.94446e-06	3.25964e-06	1.44739e-06	3.46679e-06	1.68821e-06	4.80584e-07	0.135863	0.0779725	0.255097	1.07544e-05	3.42566e-05	6.30748e-06	3.70357e-05	3.52571e-06	5.71158e-06	7.15278	0.402261	7.16408	3.21883	6.32852e+08	1.1253e+10	1.12708e+10	-86.7812	0.0000000E+000	0.0000000E+000	0.0000000E+000	86.7812	0.0000000E+000	0.0000000E+000	0.0000000E+000	-86.7812	0.0000000E+000	0.0000000E+000	0.0000000E+000	-3.21883	0.0000000E+000	0.0000000E+000	0.0000000E+000	3.21883	17.7814	86.7812	-0.146496
0.0505041	0.141336	0.00435517	0.141403	-1.76497	109588	-0.0011577	-8.70695	7.23584e+08	686409	1	37	0.00541901	0.0383232	0	-1.59737	14.3	0.126494	0.0883481	0.300316	2.82502e-06	3.8502e-06	1.12501e-06	3.95124e-06	1.81291e-06	9.11545e-07	0.144491	0.0678664	0.235048	2.28954e-05	3.52966e-05	7.73414e-06	3.1871e-05	6.85303e-06	7.69378e-06	7.06864	0.217816	7.072	1.76497	6.8641e+08	2.22756e+10	2.22862e+10	-88.235	0.0000000E+000	0.0000000E+000	0.0000000E+000	88.235	0.0000000E+000	0.0000000E+000	0.0000000E+000	-88.235	0.0000000E+000	0.0000000E+000	0.0000000E+000	-1.76497	0.0000000E+000	0.0000000E+000	0.0000000E+000	1.76497	32.4524	88.235	-0.312781
0.0252177	0.142143	0.00223715	0.14216	-0.901687	110176	-0.00117561	-8.77359	2.82112e+09	698637	1	37	0.00542009	0.0381266	0	-2.9507	14.3	0.115514	0.128174	0.230696	2.07211e-06	3.60654e-06	7.68307e-07	3.83647e-06	1.5133e-06	5.22183e-07	0.136578	0.168696	0.200087	1.4738e-05	3.17335e-05	9.78913e-06	3.4133e-05	7.22909e-06	5.84844e-06	7.03343	0.110697	7.0343	0.901687	6.98637e+08	4.43897e+10	4.43952e+10	-89.0983	0.0000000E+000	0.0000000E+000	0.0000000E+000	89.0983	0.0000000E+000	0.0000000E+000	0.0000000E+000	-89.0983	0.0000000E+000	0.0000000E+000	0.0000000E+000	-0.901687	0.0000000E+000	0.0000000E+000	0.0000000E+000	0.901687	63.5376	89.0983	-0.542196
174510	0.0974573	-0.00957452	0.0979265	5.61092	110484	-0.00107642	-8.0837	-95.2538	-0.910576	2	37	0.00489691	0.0500059	0	-3.65252	14.3	-1	-1	-1	0	0	0	0	0	0	-1	-1	-1	0	0	0	0	0	0	10.1628	-0.998427	10.2117	-5.61092	-910.576	9268.59	9313.21	-95.6109	0.0000000E+000	0.0000000E+000	0.0000000E+000	95.6109	0.0000000E+000	0.0000000E+000	0.0000000E+000	-95.6109	0.0000000E+000	0.0000000E+000	0.0000000E+000	5.61092	0.0000000E+000	0.0000000E+000	0.0000000E+000	-5.61092	10.1788	84.3891	-0.0022421
87106.6	0.099277	-0.00515591	0.0994108	2.97297	110487	-0.00107981	-8.04966	-354.375	-0.953253	2	37	0.00522277	0.0525373	0	-3.66002	14.3	0.344418	0.0997006	5.46233	7.11644e-06	8.95968e-06	6.77427e-06	7.08646e-06	5.27759e-06	4.99406e-06	0.0885557	0.0280486	0.407088	1.30401e-05	4.36163e-05	4.98032e-06	3.95879e-06	5.00191e-06	3.46306e-06	10.0457	-0.521722	10.0593	-2.97297	-953.254	18354.9	18379.6	-92.973	0.0000000E+000	0.0000000E+000	0.0000000E+000	92.973	0.0000000E+000	0.0000000E+000	0.0000000E+000	-92.973	0.0000000E+000	0.0000000E+000	0.0000000E+000	2.97297	0.0000000E+000	0.0000000E+000	0.0000000E+000	-2.97297	19.255	87.027	-0.00251058
43479.1	0.0994651	-0.0024649	0.0994957	1.41959	110490	-0.00107761	-8.05755	-1485.05	-0.911445	2	37	0.00519768	0.0522403	0	-3.6678	14.3	0.293888	0.127769	5.43141	4.86204e-06	1.06938e-05	2.70397e-06	6.25727e-06	2.97877e-06	3.41064e-06	0.113124	0.0428979	0.404558	9.92273e-06	5.6832e-05	2.1912e-06	7.36112e-06	4.16806e-06	8.35778e-06	10.0476	-0.248995	10.0507	-1.41959	-911.445	36779.2	36790.5	-91.4196	0.0000000E+000	0.0000000E+000	0.0000000E+000	91.4196	0.0000000E+000	0.0000000E+000	0.0000000E+000	-91.4196	0.0000000E+000	0.0000000E+000	0.0000000E+000	1.41959	0.0000000E+000	0.0000000E+000	0.0000000E+000	-1.41959	40.3527	88.5804	-0.00251736
21702.4	0.0995365	-0.000533947	0.0995379	0.307351	110494	-0.0010778	-8.00553	-13734.5	-0.395215	2	37	0.00517561	0.0519964	0	-3.67542	14.3	0.291484	0.171694	5.57078	7.25569e-06	3.6434e-06	3.35626e-06	6.89399e-06	5.95047e-06	6.30848e-06	0.11112	0.0599338	0.415637	5.37281e-06	5.63176e-05	2.82887e-06	7.19374e-06	3.67723e-06	7.27221e-06	10.0463	-0.0538917	10.0464	-0.307351	-395.214	73674.5	73675.6	-90.3073	0.0000000E+000	0.0000000E+000	0.0000000E+000	90.3073	0.0000000E+000	0.0000000E+000	0.0000000E+000	-90.3073	0.0000000E+000	0.0000000E+000	0.0000000E+000	0.307351	0.0000000E+000	0.0000000E+000	0.0000000E+000	-0.307351	186.416	89.6927	-0.00248983
10837.3	0.100044	0.000657312	0.100046	-0.376442	110497	-0.001071	-8.00041	22342.3	0.964433	2	37	0.00514671	0.0514435	0	-3.683	14.3	0.287355	0.128611	5.46841	8.14894e-06	7.45376e-06	3.15976e-06	4.15568e-06	3.6552e-06	6.88457e-06	0.150499	0.0311948	0.40162	6.77977e-06	4.53429e-05	6.99193e-06	7.91647e-06	3.2943e-06	6.12277e-05	9.99519	0.0656708	9.99541	0.376442	964.433	146788	146791	-89.6236	0.0000000E+000	0.0000000E+000	0.0000000E+000	89.6236	0.0000000E+000	0.0000000E+000	0.0000000E+000	-89.6236	0.0000000E+000	0.0000000E+000	0.0000000E+000	-0.376442	0.0000000E+000	0.0000000E+000	0.0000000E+000	0.376442	152.201	89.6236	-0.00250445
5406.63	0.100776	0.00161333	0.100789	-0.917176	110501	-0.00119445	-8.89582	18246.1	4.67513	2	37	0.00516839	0.0512795	0	-3.69177	14.3	0.288555	0.120686	5.45251	6.35608e-06	6.94708e-06	2.36808e-06	5.41312e-06	6.2161e-06	6.58741e-06	0.108982	0.0895131	0.423909	9.45966e-06	5.30612e-05	5.54222e-06	1.16836e-05	4.48445e-06	4.36053e-06	9.92048	0.158818	9.92176	0.917176	4675.13	292030	292067	-89.0828	0.0000000E+000	0.0000000E+000	0.0000000E+000	89.0828	0.0000000E+000	0.0000000E+000	0.0000000E+000	-89.0828	0.0000000E+000	0.0000000E+000	0.0000000E+000	-0.917176	0.0000000E+000	0.0000000E+000	0.0000000E+000	0.917176	62.4645	89.0828	-0.00318339
2699.14	0.101917	0.00223036	0.101941	-1.25367	110505	-0.00119856	-8.91142	26437.5	12.6553	2	37	0.005165	0.0506666	0	-3.70152	14.3	0.282465	0.15588	5.50581	3.71247e-06	3.43685e-06	7.16366e-06	8.22752e-06	5.0233e-06	4.94793e-06	0.0710112	0.0203088	0.423416	5.55221e-06	3.38539e-05	1.99439e-06	6.89571e-06	4.2031e-06	4.42451e-06	9.80725	0.214623	9.8096	1.25367	12655.3	578286	578424	-88.7463	0.0000000E+000	0.0000000E+000	0.0000000E+000	88.7463	0.0000000E+000	0.0000000E+000	0.0000000E+000	-88.7463	0.0000000E+000	0.0000000E+000	0.0000000E+000	-1.25367	0.0000000E+000	0.0000000E+000	0.0000000E+000	1.25367	45.6952	88.7463	-0.00323392
1347.15	0.103035	0.00256051	0.103067	-1.42356	110509	-0.00118409	-8.79288	46139.8	28.4767	2	37	0.00514878	0.0499556	0	-3.71111	14.3	0.359093	0.195588	5.50649	3.08127e-06	8.58313e-06	6.39041e-06	6.95133e-06	1.07109e-05	4.04503e-06	0.0396475	0.0348582	0.432669	6.16465e-06	1.39535e-05	3.60814e-06	8.03382e-06	4.0026e-06	6.61816e-06	9.69943	0.241039	9.70242	1.42356	28476.7	1.14591e+06	1.14626e+06	-88.5764	0.0000000E+000	0.0000000E+000	0.0000000E+000	88.5764	0.0000000E+000	0.0000000E+000	0.0000000E+000	-88.5764	0.0000000E+000	0.0000000E+000	0.0000000E+000	-1.42356	0.0000000E+000	0.0000000E+000	0.0000000E+000	1.42356	40.2401	88.5764	-0.0031263
672.366	0.104394	0.00275329	0.104431	-1.51077	110513	-0.00114731	-8.70837	85973	59.7599	2	37	0.00505192	0.0483758	0	-3.72085	14.3	0.306245	0.188249	5.55891	8.00847e-06	4.73886e-06	5.47311e-06	1.63963e-06	8.05882e-06	6.38698e-06	0.0411826	0.0167814	0.439018	1.22444e-05	8.3111e-06	4.37074e-06	9.51936e-06	4.03598e-06	5.69672e-06	9.5724	0.252462	9.57573	1.51077	59759.9	2.26587e+06	2.26666e+06	-88.4892	0.0000000E+000	0.0000000E+000	0.0000000E+000	88.4892	0.0000000E+000	0.0000000E+000	0.0000000E+000	-88.4892	0.0000000E+000	0.0000000E+000	0.0000000E+000	-1.51077	0.0000000E+000	0.0000000E+000	0.0000000E+000	1.51077	37.9162	88.4892	-0.00330452
335.537	0.105559	0.00263589	0.105592	-1.43042	110517	-0.00116811	-8.67982	179950	112.136	2	37	0.00536399	0.0507992	0	-3.72986	14.3	0.283038	0.190042	5.22978	2.33482e-06	5.81466e-06	7.64946e-06	7.08476e-06	5.48489e-06	5.55661e-06	0.0543783	0.0122484	0.426179	1.1446e-05	1.96106e-05	4.26789e-06	1.27865e-05	2.90561e-06	6.96841e-06	9.46746	0.23641	9.47041	1.43042	112136	4.49069e+06	4.49209e+06	-88.5696	0.0000000E+000	0.0000000E+000	0.0000000E+000	88.5696	0.0000000E+000	0.0000000E+000	0.0000000E+000	-88.5696	0.0000000E+000	0.0000000E+000	0.0000000E+000	-1.43042	0.0000000E+000	0.0000000E+000	0.0000000E+000	1.43042	40.0468	88.5696	-0.00260027
167.481	0.106653	0.00248759	0.106682	-1.33613	110520	-0.00116124	-8.6391	382011	207.706	2	37	0.00542719	0.0508724	0	-3.73833	14.3	0.278781	0.155157	5.1569	5.38953e-06	9.15352e-06	4.73176e-06	4.89889e-06	6.22476e-06	3.62362e-06	0.0832236	0.0281941	0.422759	1.04242e-05	3.05461e-05	6.66131e-06	2.47932e-05	4.31368e-06	6.88754e-06	9.37107	0.218572	9.37362	1.33613	207706	8.90521e+06	8.90763e+06	-88.6639	0.0000000E+000	0.0000000E+000	0.0000000E+000	88.6639	0.0000000E+000	0.0000000E+000	0.0000000E+000	-88.6639	0.0000000E+000	0.0000000E+000	0.0000000E+000	-1.33613	0.0000000E+000	0.0000000E+000	0.0000000E+000	1.33613	42.8741	88.6639	-0.00269577
83.635	0.107582	0.00252737	0.107611	-1.34578	110524	-0.00116081	-8.67321	752944	415.323	2	37	0.0050916	0.0473147	0	-3.74696	14.3	0.245102	0.169155	5.5461	6.77764e-06	3.06195e-06	5.8465e-06	3.09134e-06	5.40867e-06	3.56346e-06	0.0945724	0.0208946	0.465678	1.12514e-05	2.89257e-05	3.71769e-06	2.95103e-05	6.42491e-06	3.75591e-06	9.29014	0.21825	9.29271	1.34578	415323	1.76789e+07	1.76838e+07	-88.6542	0.0000000E+000	0.0000000E+000	0.0000000E+000	88.6542	0.0000000E+000	0.0000000E+000	0.0000000E+000	-88.6542	0.0000000E+000	0.0000000E+000	0.0000000E+000	-1.34578	0.0000000E+000	0.0000000E+000	0.0000000E+000	1.34578	42.5666	88.6542	-0.00270328
41.7501	0.108683	0.00250623	0.108712	-1.32101	110527	-0.00115827	-8.63539	1.52104e+06	808.41	2	37	0.00512205	0.0471159	0	-3.7549	14.3	0.268288	0.0841194	5.45101	4.42199e-06	3.92767e-06	5.34221e-06	4.94142e-06	4.65273e-06	7.0756e-06	0.126828	0.0655286	0.448574	4.40792e-06	3.59563e-05	8.62379e-06	3.86137e-05	2.39899e-05	8.69858e-06	9.1962	0.212065	9.19865	1.32101	808412	3.50567e+07	3.5066e+07	-88.679	0.0000000E+000	0.0000000E+000	0.0000000E+000	88.679	0.0000000E+000	0.0000000E+000	0.0000000E+000	-88.679	0.0000000E+000	0.0000000E+000	0.0000000E+000	-1.32101	0.0000000E+000	0.0000000E+000	0.0000000E+000	1.32101	43.365	88.679	-0.00253822
20.8333	0.109633	0.00275253	0.109668	-1.43821	110530	-0.00115587	-8.62523	2.77543e+06	1748.39	2	37	0.00512611	0.0467423	0	-3.7627	14.3	0.304946	0.151269	5.48454	4.09912e-06	6.64222e-06	5.89923e-06	5.01316e-06	5.58299e-06	6.83679e-06	0.121264	0.104237	0.444204	1.64955e-05	3.25271e-05	6.49454e-06	3.94932e-05	8.26278e-06	1.30464e-05	9.11559	0.228863	9.11847	1.43821	1.74839e+06	6.96381e+07	6.966e+07	-88.5618	0.0000000E+000	0.0000000E+000	0.0000000E+000	88.5618	0.0000000E+000	0.0000000E+000	0.0000000E+000	-88.5618	0.0000000E+000	0.0000000E+000	0.0000000E+000	-1.43821	0.0000000E+000	0.0000000E+000	0.0000000E+000	1.43821	39.8299	88.5618	-0.0024654
10.3959	0.110612	0.00312406	0.110656	-1.6178	110534	-0.00115453	-8.65458	4.9005e+06	3905.98	2	37	0.00512715	0.0463342	0	-3.77099	14.3	0.28899	0.232421	5.51899	5.84236e-06	6.54723e-06	6.38307e-06	4.88716e-06	5.22623e-06	3.62957e-06	0.139129	0.118287	0.440153	1.03809e-05	2.84276e-05	1.05685e-05	5.3471e-05	9.59066e-06	6.98609e-06	9.03343	0.255135	9.03703	1.6178	3.90597e+06	1.38297e+08	1.38352e+08	-88.3822	0.0000000E+000	0.0000000E+000	0.0000000E+000	88.3822	0.0000000E+000	0.0000000E+000	0.0000000E+000	-88.3822	0.0000000E+000	0.0000000E+000	0.0000000E+000	-1.6178	0.0000000E+000	0.0000000E+000	0.0000000E+000	1.6178	35.4064	88.3822	-0.00288769
5.19276	0.111794	0.00423488	0.111874	-2.1694	110538	-0.00115208	-8.68825	7.23738e+06	10370.6	2	37	0.00512784	0.0458358	0	-3.78037	14.3	0.179777	0.0774229	3.14152	2.72134e-06	3.11309e-06	4.46823e-06	4.23717e-06	1.74573e-06	3.54174e-06	0.143633	0.0366206	0.324947	9.61282e-06	5.08572e-05	5.86404e-06	3.72937e-05	3.32753e-06	5.45821e-06	8.93223	0.338363	8.93863	2.1694	1.03706e+07	2.73768e+08	2.73964e+08	-87.8306	0.0000000E+000	0.0000000E+000	0.0000000E+000	87.8306	0.0000000E+000	0.0000000E+000	0.0000000E+000	-87.8306	0.0000000E+000	0.0000000E+000	0.0000000E+000	-2.1694	0.0000000E+000	0.0000000E+000	0.0000000E+000	2.1694	26.3983	87.8306	-0.00400838
2.58949	0.113599	0.0059887	0.113757	-3.01771	110545	-0.00116292	-8.77518	1.0263e+07	28443.3	2	37	0.0051256	0.0450574	0	-3.79739	14.3	0.134388	0.0446887	2.02492	2.76049e-06	3.464e-06	2.09271e-06	3.32848e-06	1.7211e-06	1.96516e-06	0.132992	0.0581746	0.285525	1.00764e-05	2.92525e-05	7.94785e-06	3.05507e-05	3.83045e-05	8.94333e-06	8.77846	0.46278	8.79065	3.01771	2.84433e+07	5.3954e+08	5.40289e+08	-86.9823	0.0000000E+000	0.0000000E+000	0.0000000E+000	86.9823	0.0000000E+000	0.0000000E+000	0.0000000E+000	-86.9823	0.0000000E+000	0.0000000E+000	0.0000000E+000	-3.01771	0.0000000E+000	0.0000000E+000	0.0000000E+000	3.01771	18.969	86.9823	-0.00687281
1.29325	0.116471	0.00836007	0.11677	-4.10556	110557	-0.00114952	-8.65545	1.47207e+07	75454.3	2	37	0.00512294	0.043872	0	-3.82877	14.3	0.141459	0.0658388	1.45143	1.43754e-06	4.64763e-06	1.26901e-06	3.3855e-06	2.13503e-06	2.44352e-06	0.151416	0.100534	0.298661	2.02711e-05	3.90299e-05	1.19874e-05	4.49444e-05	8.96789e-06	5.71732e-06	8.54186	0.613121	8.56383	4.10556	7.54543e+07	1.05121e+09	1.05392e+09	-85.8944	0.0000000E+000	0.0000000E+000	0.0000000E+000	85.8944	0.0000000E+000	0.0000000E+000	0.0000000E+000	-85.8944	0.0000000E+000	0.0000000E+000	0.0000000E+000	-4.10556	0.0000000E+000	0.0000000E+000	0.0000000E+000	4.10556	13.9318	85.8944	-0.0149573
0.645874	0.120539	0.0110123	0.121041	-5.21996	110581	-0.00116528	-8.70116	2.23766e+07	185217	2	37	0.00512216	0.0423174	0	-3.88638	14.3	0.136278	0.0652438	1.03729	1.96978e-06	3.1665e-06	1.35632e-06	4.5746e-06	2.18976e-06	1.88866e-06	0.148189	0.187032	0.305174	2.28123e-05	3.16281e-05	8.33779e-06	4.50141e-05	9.31089e-06	9.84658e-06	8.22737	0.75164	8.26163	5.21996	1.85217e+08	2.02737e+09	2.03581e+09	-84.78	0.0000000E+000	0.0000000E+000	0.0000000E+000	84.78	0.0000000E+000	0.0000000E+000	0.0000000E+000	-84.78	0.0000000E+000	0.0000000E+000	0.0000000E+000	-5.21996	0.0000000E+000	0.0000000E+000	0.0000000E+000	5.21996	10.9459	84.78	-0.0237559
0.322118	0.128321	0.0140188	0.129085	-6.2347	110628	-0.0011429	-8.69823	3.52447e+07	415685	2	37	0.00511704	0.0396409	0	-4.00324	14.3	0.111129	0.0892093	0.733482	2.76163e-06	3.04872e-06	1.31027e-06	2.97487e-06	1.70224e-06	8.61731e-07	0.162114	0.125638	0.30342	2.11834e-05	4.02521e-05	1.02967e-05	3.95364e-05	9.78098e-06	5.52599e-06	7.70102	0.841318	7.74684	6.2347	4.15685e+08	3.80498e+09	3.82762e+09	-83.7653	0.0000000E+000	0.0000000E+000	0.0000000E+000	83.7653	0.0000000E+000	0.0000000E+000	0.0000000E+000	-83.7653	0.0000000E+000	0.0000000E+000	0.0000000E+000	-6.2347	0.0000000E+000	0.0000000E+000	0.0000000E+000	6.2347	9.15352	83.7653	-0.0526822
0.160792	0.136691	0.0111056	0.137142	-4.64485	110721	-0.00115911	-8.78687	8.91274e+07	584464	2	37	0.00511204	0.0372756	0	-4.21355	14.3	0.114817	0.04338	0.520251	3.20348e-06	3.50904e-06	8.19517e-07	2.81561e-06	1.30648e-06	8.0265e-07	0.134908	0.054098	0.291423	5.53566e-06	3.34702e-05	3.49878e-06	3.56187e-05	4.3475e-06	7.97775e-06	7.26777	0.590478	7.29172	4.64485	5.84464e+08	7.19376e+09	7.21746e+09	-85.3551	0.0000000E+000	0.0000000E+000	0.0000000E+000	85.3551	0.0000000E+000	0.0000000E+000	0.0000000E+000	-85.3551	0.0000000E+000	0.0000000E+000	0.0000000E+000	-4.64485	0.0000000E+000	0.0000000E+000	0.0000000E+000	4.64485	12.3083	85.3551	-0.0851449
0.0802383	0.140499	0.00658794	0.140654	-2.6846	110906	-0.0011659	-8.81383	3.01085e+08	660520	2	37	0.0051121	0.0363453	0	-4.68787	14.3	0.12381	0.0882789	0.383974	2.79859e-06	3.66568e-06	1.21659e-06	3.29802e-06	1.25408e-06	1.56654e-06	0.136497	0.112159	0.265317	1.25706e-05	3.13921e-05	4.33995e-06	3.33082e-05	5.01073e-06	1.05026e-05	7.10186	0.333002	7.10966	2.6846	6.60519e+08	1.40867e+10	1.41022e+10	-87.3154	0.0000000E+000	0.0000000E+000	0.0000000E+000	87.3154	0.0000000E+000	0.0000000E+000	0.0000000E+000	-87.3154	0.0000000E+000	0.0000000E+000	0.0000000E+000	-2.6846	0.0000000E+000	0.0000000E+000	0.0000000E+000	2.6846	21.3267	87.3154	-0.201355
0.04008	0.141936	0.00363841	0.141982	-1.46841	111276	-0.00116203	-8.73135	1.09139e+09	716697	2	37	0.00511199	0.0360044	0	-5.56636	14.3	0.113917	0.11043	0.291297	2.28889e-06	3.31985e-06	8.30494e-07	3.56791e-06	1.13492e-06	9.22476e-07	0.132028	0.151884	0.235742	1.51954e-05	3.08249e-05	5.78457e-06	2.94389e-05	5.83844e-06	5.98897e-06	7.04081	0.180486	7.04312	1.46841	7.16699e+08	2.79586e+10	2.79678e+10	-88.5316	0.0000000E+000	0.0000000E+000	0.0000000E+000	88.5316	0.0000000E+000	0.0000000E+000	0.0000000E+000	-88.5316	0.0000000E+000	0.0000000E+000	0.0000000E+000	-1.46841	0.0000000E+000	0.0000000E+000	0.0000000E+000	1.46841	39.0104	88.5316	-0.346086
0.0199946	0.142272	0.00181235	0.142284	-0.729831	112017	-0.00115666	-8.58948	4.39202e+09	712591	2	37	0.00511027	0.0359161	0	-7.30121	14.3	0.141218	0.133351	0.236298	4.4747e-06	3.78477e-06	2.11636e-06	3.01982e-06	8.52589e-07	1.48323e-06	0.143666	0.166363	0.215142	1.6886e-05	3.44359e-05	1.07356e-05	3.01183e-05	3.66044e-06	8.21327e-06	7.02764	0.0895227	7.02821	0.729831	7.12588e+08	5.59393e+10	5.59438e+10	-89.2702	0.0000000E+000	0.0000000E+000	0.0000000E+000	89.2702	0.0000000E+000	0.0000000E+000	0.0000000E+000	-89.2702	0.0000000E+000	0.0000000E+000	0.0000000E+000	-0.729831	0.0000000E+000	0.0000000E+000	0.0000000E+000	0.729831	78.5013	89.2702	-0.739973
138435	0.09854	-0.00773635	0.0988432	4.48907	112020	-0.0010622	-7.7711	-148.606	-0.910365	3	37	0.00519976	0.0526061	0	-7.30834	14.3	-1	-1	-1	0	0	0	0	0	0	-1	-1	-1	0	0	0	0	0	0	10.086	-0.791849	10.117	-4.48907	-910.365	11595.6	11631.2	-94.4891	0.0000000E+000	0.0000000E+000	0.0000000E+000	94.4891	0.0000000E+000	0.0000000E+000	0.0000000E+000	-94.4891	0.0000000E+000	0.0000000E+000	0.0000000E+000	4.48907	0.0000000E+000	0.0000000E+000	0.0000000E+000	-4.48907	12.7373	85.5109	-0.00240083
69097	0.0995069	-0.00411808	0.0995921	2.36983	112024	-0.00107883	-7.82347	-559.327	-0.956326	3	37	0.00520748	0.0522881	0	-7.31557	14.3	0.348531	0.168988	5.3868	6.61571e-06	9.97678e-06	8.8667e-06	5.34447e-06	5.17215e-06	5.54842e-06	0.097061	0.0586565	0.399909	1.39091e-05	4.75639e-05	5.64088e-06	4.97364e-06	3.7038e-06	5.51707e-06	10.0324	-0.415188	10.041	-2.36983	-956.327	23108.1	23127.9	-92.3698	0.0000000E+000	0.0000000E+000	0.0000000E+000	92.3698	0.0000000E+000	0.0000000E+000	0.0000000E+000	-92.3698	0.0000000E+000	0.0000000E+000	0.0000000E+000	2.36983	0.0000000E+000	0.0000000E+000	0.0000000E+000	-2.36983	24.1634	87.6302	-0.00236408
34488.2	0.0993794	-0.00167368	0.0993935	0.964848	112027	-0.0010698	-7.79565	-2757.25	-0.781821	3	37	0.00517894	0.0521054	0	-7.32292	14.3	0.368708	0.146861	5.48631	7.16528e-06	9.16691e-06	7.97839e-06	7.43144e-06	8.63361e-06	2.65616e-06	0.116657	0.05447	0.403247	1.09825e-05	5.88278e-05	3.35475e-06	7.26972e-06	2.53643e-06	4.3373e-06	10.0596	-0.169417	10.061	-0.964848	-781.818	46422.7	46429.2	-90.9648	0.0000000E+000	0.0000000E+000	0.0000000E+000	90.9648	0.0000000E+000	0.0000000E+000	0.0000000E+000	-90.9648	0.0000000E+000	0.0000000E+000	0.0000000E+000	0.964848	0.0000000E+000	0.0000000E+000	0.0000000E+000	-0.964848	59.3776	89.0352	-0.00241223
17211.6	0.0997286	-0.000129657	0.0997286	0.0744901	112031	-0.00107474	-7.78971	-71318.5	-0.120546	3	37	0.00516571	0.0517976	0	-7.33026	14.3	0.334138	0.17614	5.40696	6.94656e-06	7.76793e-06	6.28204e-06	7.49906e-06	6.68186e-06	4.84915e-06	0.110152	0.00970108	0.408031	6.46873e-06	5.58742e-05	2.10156e-06	7.82429e-06	2.66272e-06	3.69022e-06	10.0272	-0.0130364	10.0272	-0.0744901	-120.552	92721	92721.1	-90.0745	0.0000000E+000	0.0000000E+000	0.0000000E+000	90.0745	0.0000000E+000	0.0000000E+000	0.0000000E+000	-90.0745	0.0000000E+000	0.0000000E+000	0.0000000E+000	0.0744901	0.0000000E+000	0.0000000E+000	0.0000000E+000	-0.0744901	769.172	89.9255	-0.002541
8590.41	0.100335	0.00103732	0.10034	-0.592336	112034	-0.0011878	-8.5809	17860.5	1.90884	3	37	0.00524991	0.0523211	0	-7.33797	14.3	0.29269	0.135904	5.40182	4.5435e-06	8.21539e-06	4.72754e-06	4.0841e-06	5.03005e-06	8.09999e-06	0.116434	0.0556513	0.427254	3.90073e-06	5.90329e-05	7.44816e-06	9.45726e-06	2.73937e-06	6.4252e-06	9.96556	0.10303	9.96609	0.592336	1908.85	184632	184642	-89.4077	0.0000000E+000	0.0000000E+000	0.0000000E+000	89.4077	0.0000000E+000	0.0000000E+000	0.0000000E+000	-89.4077	0.0000000E+000	0.0000000E+000	0.0000000E+000	-0.592336	0.0000000E+000	0.0000000E+000	0.0000000E+000	0.592336	96.7251	89.4077	-0.00282799
4288.63	0.101325	0.00180168	0.101341	-1.01869	112038	-0.00118722	-8.52659	20597.9	6.5105	3	37	0.00517551	0.0510705	0	-7.34698	14.3	0.267148	0.14882	5.46916	5.33641e-06	3.63081e-06	7.35547e-06	3.28922e-06	5.14691e-06	5.61888e-06	0.0896265	0.0357255	0.428286	7.57993e-06	4.31068e-05	2.74323e-06	1.0489e-05	2.67035e-06	4.85505e-06	9.86616	0.175434	9.86772	1.01869	6510.47	366142	366200	-88.9813	0.0000000E+000	0.0000000E+000	0.0000000E+000	88.9813	0.0000000E+000	0.0000000E+000	0.0000000E+000	-88.9813	0.0000000E+000	0.0000000E+000	0.0000000E+000	-1.01869	0.0000000E+000	0.0000000E+000	0.0000000E+000	1.01869	56.2388	88.9813	-0.00320935
2140.69	0.102253	0.00235191	0.10228	-1.31762	112042	-0.00118265	-8.4946	31611.7	16.7149	3	37	0.00513274	0.0501832	0	-7.35629	14.3	0.312173	0.153679	5.48248	1.48136e-06	6.51975e-06	6.78481e-06	7.39422e-06	5.64656e-06	7.59753e-06	0.0576689	0.0278954	0.425763	8.67798e-06	2.54241e-05	3.8523e-06	5.11742e-06	6.92621e-06	2.72755e-06	9.77449	0.224821	9.77707	1.31762	16715	726710	726902	-88.6824	0.0000000E+000	0.0000000E+000	0.0000000E+000	88.6824	0.0000000E+000	0.0000000E+000	0.0000000E+000	-88.6824	0.0000000E+000	0.0000000E+000	0.0000000E+000	-1.31762	0.0000000E+000	0.0000000E+000	0.0000000E+000	1.31762	43.4767	88.6824	-0.00309366
1068.29	0.103505	0.00245436	0.103534	-1.35837	112046	-0.00118297	-8.5168	60700.4	34.1116	3	37	0.005158	0.0498194	0	-7.36545	14.3	0.257958	0.114543	5.39666	3.73615e-06	5.2882e-06	6.89609e-06	5.8755e-06	5.8357e-06	2.98318e-06	0.0302886	0.0969891	0.446005	9.28743e-06	8.58221e-06	3.48833e-06	3.77994e-06	3.81453e-06	3.98196e-06	9.65596	0.228967	9.65868	1.35837	34111.7	1.43855e+06	1.43895e+06	-88.6416	0.0000000E+000	0.0000000E+000	0.0000000E+000	88.6416	0.0000000E+000	0.0000000E+000	0.0000000E+000	-88.6416	0.0000000E+000	0.0000000E+000	0.0000000E+000	-1.35837	0.0000000E+000	0.0000000E+000	0.0000000E+000	1.35837	42.1718	88.6416	-0.00304207
533.464	0.10484	0.00256326	0.104872	-1.40056	112050	-0.00115164	-8.4075	116392	69.533	3	37	0.00508359	0.0484743	0	-7.37492	14.3	0.263466	0.155747	5.50801	5.57727e-06	7.44109e-06	4.19686e-06	5.04508e-06	4.64022e-06	4.11713e-06	0.0461725	0.0135986	0.453718	1.28085e-05	1.09344e-05	2.55105e-06	1.10405e-05	6.50176e-06	4.96415e-06	9.53261	0.233064	9.53546	1.40056	69533.2	2.84398e+06	2.84483e+06	-88.5994	0.0000000E+000	0.0000000E+000	0.0000000E+000	88.5994	0.0000000E+000	0.0000000E+000	0.0000000E+000	-88.5994	0.0000000E+000	0.0000000E+000	0.0000000E+000	-1.40056	0.0000000E+000	0.0000000E+000	0.0000000E+000	1.40056	40.9012	88.5994	-0.00310671
266.278	0.106111	0.00256813	0.106142	-1.38642	112054	-0.00115361	-8.3782	232738	136.248	3	37	0.00503389	0.047426	0	-7.38364	14.3	0.325372	0.088465	5.5522	7.899e-06	6.62264e-06	5.08216e-06	6.54225e-06	5.79432e-06	5.22351e-06	0.0710367	0.0241952	0.451867	1.07793e-05	2.17955e-05	6.96907e-06	1.91717e-05	6.10467e-06	4.52166e-06	9.41859	0.227952	9.42135	1.38642	136247	5.62951e+06	5.63116e+06	-88.6136	0.0000000E+000	0.0000000E+000	0.0000000E+000	88.6136	0.0000000E+000	0.0000000E+000	0.0000000E+000	-88.6136	0.0000000E+000	0.0000000E+000	0.0000000E+000	-1.38642	0.0000000E+000	0.0000000E+000	0.0000000E+000	1.38642	41.3183	88.6136	-0.00305312
132.916	0.107122	0.00244843	0.10715	-1.30935	112057	-0.00114191	-8.33644	489052	255.355	3	37	0.00534222	0.0498572	0	-7.39138	14.3	0.227517	0.12018	5.19563	2.71023e-06	4.72327e-06	5.10719e-06	5.14673e-06	6.04103e-06	4.9623e-06	0.0894843	0.0222991	0.433499	1.02378e-05	3.23867e-05	7.15348e-06	2.49555e-05	4.47649e-06	1.07544e-05	9.33025	0.213256	9.33269	1.30935	255355	1.11721e+07	1.1175e+07	-88.6907	0.0000000E+000	0.0000000E+000	0.0000000E+000	88.6907	0.0000000E+000	0.0000000E+000	0.0000000E+000	-88.6907	0.0000000E+000	0.0000000E+000	0.0000000E+000	-1.30935	0.0000000E+000	0.0000000E+000	0.0000000E+000	1.30935	43.7514	88.6907	-0.00257992
66.3374	0.108096	0.00245944	0.108124	-1.30339	112060	-0.00114877	-8.37424	975496	504.721	3	37	0.00541967	0.0501244	0	-7.39914	14.3	0.30629	0.16224	5.16535	6.98223e-06	2.65514e-06	3.46022e-06	4.03419e-06	5.61147e-06	1.07664e-05	0.108612	0.0172361	0.427546	1.35572e-05	3.79824e-05	8.80816e-06	3.34853e-05	5.26927e-06	6.14173e-06	9.24622	0.210373	9.24861	1.30339	504723	2.21833e+07	2.2189e+07	-88.6966	0.0000000E+000	0.0000000E+000	0.0000000E+000	88.6966	0.0000000E+000	0.0000000E+000	0.0000000E+000	-88.6966	0.0000000E+000	0.0000000E+000	0.0000000E+000	-1.30339	0.0000000E+000	0.0000000E+000	0.0000000E+000	1.30339	43.9516	88.6966	-0.0026151
33.1038	0.109076	0.00263422	0.109107	-1.38345	112064	-0.00113747	-8.37543	1.82511e+06	1063.86	3	37	0.00543329	0.0497977	0	-7.40698	14.3	0.307216	0.160839	5.22865	6.47358e-06	6.95418e-06	5.49854e-06	8.19067e-06	4.93535e-06	4.92734e-06	0.113136	0.015819	0.441118	1.71919e-05	3.57448e-05	9.21014e-06	3.65618e-05	5.81624e-06	7.66412e-06	9.16261	0.221281	9.16528	1.38345	1.06386e+06	4.40516e+07	4.40644e+07	-88.6166	0.0000000E+000	0.0000000E+000	0.0000000E+000	88.6166	0.0000000E+000	0.0000000E+000	0.0000000E+000	-88.6166	0.0000000E+000	0.0000000E+000	0.0000000E+000	-1.38345	0.0000000E+000	0.0000000E+000	0.0000000E+000	1.38345	41.4071	88.6166	-0.00271677
16.5286	0.110057	0.00284503	0.110094	-1.48079	112067	-0.00114556	-8.4903	3.38452e+06	2260.17	3	37	0.00543622	0.0493779	0	-7.41469	14.3	0.352155	0.1211	5.1855	4.84197e-06	6.51795e-06	8.88939e-06	7.97406e-06	7.75804e-06	6.43423e-06	0.109724	0.0563525	0.409949	8.94667e-06	3.66375e-05	6.76554e-06	3.34895e-05	6.68855e-06	9.88712e-06	9.08009	0.234724	9.08313	1.48079	2.26017e+06	8.74328e+07	8.7462e+07	-88.5192	0.0000000E+000	0.0000000E+000	0.0000000E+000	88.5192	0.0000000E+000	0.0000000E+000	0.0000000E+000	-88.5192	0.0000000E+000	0.0000000E+000	0.0000000E+000	-1.48079	0.0000000E+000	0.0000000E+000	0.0000000E+000	1.48079	38.6841	88.5192	-0.00271085
8.24973	0.111051	0.00341077	0.111104	-1.7592	112070	-0.00114708	-8.53442	5.65625e+06	5330.61	3	37	0.00543715	0.0489377	0	-7.42242	14.3	0.163953	0.139435	3.60273	1.62239e-06	3.28838e-06	4.86292e-06	4.54218e-06	2.83564e-06	2.96585e-06	0.179449	0.0989793	0.319113	3.78558e-05	3.57414e-05	8.49503e-06	3.86117e-05	5.62235e-05	1.12301e-05	8.99637	0.27631	9.00061	1.7592	5.33061e+06	1.73559e+08	1.73641e+08	-88.2408	0.0000000E+000	0.0000000E+000	0.0000000E+000	88.2408	0.0000000E+000	0.0000000E+000	0.0000000E+000	-88.2408	0.0000000E+000	0.0000000E+000	0.0000000E+000	-1.7592	0.0000000E+000	0.0000000E+000	0.0000000E+000	1.7592	32.559	88.2408	-0.00244579
4.11618	0.112372	0.00478565	0.112473	-2.43863	112075	-0.00114678	-8.55762	8.0795e+06	14627.4	3	37	0.00543555	0.0483274	0	-7.43444	14.3	0.14839	0.0606239	2.52541	3.40109e-06	1.87754e-06	3.41964e-06	4.29644e-06	2.77988e-06	1.26908e-06	0.123213	0.075452	0.308837	1.00992e-05	2.85007e-05	2.4469e-05	4.30962e-05	5.67457e-06	9.36189e-06	8.88294	0.378305	8.89099	2.43863	1.46274e+07	3.43465e+08	3.43776e+08	-87.5614	0.0000000E+000	0.0000000E+000	0.0000000E+000	87.5614	0.0000000E+000	0.0000000E+000	0.0000000E+000	-87.5614	0.0000000E+000	0.0000000E+000	0.0000000E+000	-2.43863	0.0000000E+000	0.0000000E+000	0.0000000E+000	2.43863	23.4809	87.5614	-0.00505274
2.05457	0.11453	0.0067697	0.114729	-3.38275	112083	-0.00114304	-8.50865	1.14427e+07	39839.9	3	37	0.00543417	0.047365	0	-7.45313	14.3	0.155595	0.0662491	1.70917	2.04625e-06	5.23557e-06	1.99193e-06	4.558e-06	3.0604e-06	8.63356e-07	0.137729	0.0528085	0.280059	1.66613e-05	3.37973e-05	9.77262e-06	3.96667e-05	1.45719e-05	2.88837e-05	8.70097	0.514303	8.71615	3.38275	3.98399e+07	6.7401e+08	6.75186e+08	-86.6173	0.0000000E+000	0.0000000E+000	0.0000000E+000	86.6173	0.0000000E+000	0.0000000E+000	0.0000000E+000	-86.6173	0.0000000E+000	0.0000000E+000	0.0000000E+000	-3.38275	0.0000000E+000	0.0000000E+000	0.0000000E+000	3.38275	16.918	86.6173	-0.00740823
1.02607	0.117851	0.00928054	0.118216	-4.50263	112099	-0.00115018	-8.4844	1.67136e+07	103006	3	37	0.00543012	0.0459338	0	-7.49049	14.3	0.134245	0.065813	1.21601	2.00138e-06	4.26315e-06	1.90544e-06	3.96865e-06	1.41483e-06	1.75827e-06	0.120217	0.0732622	0.281148	1.852e-05	3.25919e-05	1.35147e-05	3.45986e-05	5.22341e-06	5.38075e-06	8.43297	0.664079	8.45908	4.50263	1.03006e+08	1.30805e+09	1.3121e+09	-85.4974	0.0000000E+000	0.0000000E+000	0.0000000E+000	85.4974	0.0000000E+000	0.0000000E+000	0.0000000E+000	-85.4974	0.0000000E+000	0.0000000E+000	0.0000000E+000	-4.50263	0.0000000E+000	0.0000000E+000	0.0000000E+000	4.50263	12.6987	85.4974	-0.0142283
0.511825	0.122551	0.0124534	0.123182	-5.80235	112129	-0.00115952	-8.58587	2.49696e+07	255205	3	37	0.00542987	0.0440799	0	-7.56124	14.3	0.126471	0.0621891	0.866162	2.21005e-06	4.15375e-06	9.46821e-07	4.31888e-06	1.70011e-06	1.12619e-06	0.140825	0.105637	0.281901	1.98792e-05	3.78582e-05	8.34347e-06	4.06603e-05	6.05268e-06	6.47269e-06	8.07645	0.820711	8.11804	5.80235	2.55205e+08	2.51142e+09	2.52435e+09	-84.1976	0.0000000E+000	0.0000000E+000	0.0000000E+000	84.1976	0.0000000E+000	0.0000000E+000	0.0000000E+000	-84.1976	0.0000000E+000	0.0000000E+000	0.0000000E+000	-5.80235	0.0000000E+000	0.0000000E+000	0.0000000E+000	5.80235	9.8408	84.1976	-0.0259635
0.255612	0.131667	0.0137032	0.132378	-5.94165	112188	-0.00114904	-8.50597	4.5438e+07	486890	3	37	0.00542385	0.0409725	0	-7.7071	14.3	0.122986	0.0756299	0.612483	3.04819e-06	3.86954e-06	9.67082e-07	3.58637e-06	2.05777e-06	9.81026e-07	0.153753	0.0862327	0.280004	1.71958e-05	3.66063e-05	1.31721e-05	4.4268e-05	8.10854e-06	4.07567e-06	7.51356	0.781971	7.55414	5.94165	4.8689e+08	4.67827e+09	4.70354e+09	-84.0584	0.0000000E+000	0.0000000E+000	0.0000000E+000	84.0584	0.0000000E+000	0.0000000E+000	0.0000000E+000	-84.0584	0.0000000E+000	0.0000000E+000	0.0000000E+000	-5.94165	0.0000000E+000	0.0000000E+000	0.0000000E+000	5.94165	9.60848	84.0584	-0.0645394
0.127525	0.13864	0.00956718	0.138969	-3.94758	112305	-0.00116558	-8.61971	1.30449e+08	618260	3	37	0.00542137	0.0390113	0	-7.96927	14.3	0.118869	0.0665379	0.450514	3.14128e-06	3.04649e-06	1.53829e-06	3.58878e-06	1.64379e-06	7.31451e-07	0.133942	0.110057	0.277884	1.09983e-05	3.21893e-05	1.21247e-05	3.58906e-05	5.69266e-06	9.50807e-06	7.17876	0.495389	7.19583	3.94758	6.18261e+08	8.95931e+09	8.98062e+09	-86.0524	0.0000000E+000	0.0000000E+000	0.0000000E+000	86.0524	0.0000000E+000	0.0000000E+000	0.0000000E+000	-86.0524	0.0000000E+000	0.0000000E+000	0.0000000E+000	-3.94758	0.0000000E+000	0.0000000E+000	0.0000000E+000	3.94758	14.4912	86.0524	-0.10454
0.0636941	0.141448	0.00549266	0.141554	-2.22378	112538	-0.00116393	-8.72063	4.54923e+08	684948	3	37	0.00542149	0.0382997	0	-8.55067	14.3	0.121861	0.150458	0.327139	3.11771e-06	3.3546e-06	1.61771e-06	3.76885e-06	1.91622e-06	6.56771e-07	0.133794	0.149931	0.233058	1.34321e-05	3.29231e-05	1.0913e-05	3.35493e-05	5.98741e-06	4.60113e-06	7.0591	0.274117	7.06442	2.22378	6.84947e+08	1.76389e+10	1.76521e+10	-87.7762	0.0000000E+000	0.0000000E+000	0.0000000E+000	87.7762	0.0000000E+000	0.0000000E+000	0.0000000E+000	-87.7762	0.0000000E+000	0.0000000E+000	0.0000000E+000	-2.22378	0.0000000E+000	0.0000000E+000	0.0000000E+000	2.22378	25.7521	87.7762	-0.249591
0.0317924	0.14239	0.00293107	0.142421	-1.17925	113004	-0.00115617	-8.73356	1.70793e+09	723398	3	37	0.00541991	0.0380557	0	-9.69487	14.3	0.119035	0.110259	0.254212	2.23155e-06	3.60305e-06	1.45877e-06	3.87631e-06	2.06278e-06	7.01541e-07	0.134201	0.123633	0.206063	1.52784e-05	3.17624e-05	1.10275e-05	3.25922e-05	9.15011e-06	5.21227e-06	7.01997	0.144504	7.02146	1.17925	7.23398e+08	3.51424e+10	3.51499e+10	-88.8207	0.0000000E+000	0.0000000E+000	0.0000000E+000	88.8207	0.0000000E+000	0.0000000E+000	0.0000000E+000	-88.8207	0.0000000E+000	0.0000000E+000	0.0000000E+000	-1.17925	0.0000000E+000	0.0000000E+000	0.0000000E+000	1.17925	48.5796	88.8207	-0.445441
0.0199946	0.142642	0.00181733	0.142653	-0.729939	113552	-0.00116226	-8.64037	4.38e+09	710850	3	37	0.00542198	0.0380081	0	-10.9267	14.3	0.104424	0.132663	0.223529	2.23504e-06	2.65746e-06	1.24786e-06	3.54361e-06	2.08487e-06	9.61613e-07	0.14217	0.18819	0.201238	2.42273e-05	3.10999e-05	1.11117e-05	3.29561e-05	7.11257e-06	7.74696e-06	7.00944	0.0893039	7.01001	0.729939	7.10853e+08	5.57944e+10	5.57989e+10	-89.2701	0.0000000E+000	0.0000000E+000	0.0000000E+000	89.2701	0.0000000E+000	0.0000000E+000	0.0000000E+000	-89.2701	0.0000000E+000	0.0000000E+000	0.0000000E+000	-0.729939	0.0000000E+000	0.0000000E+000	0.0000000E+000	0.729939	78.4897	89.2701	-0.688002