File: Python/Experiments/IRFB/240515-Paper-1p5M_FeCl2FeCl3-1M_HCl/Data/240515-EIS-Paper-1p5M_FeCl2FeCl3-1M_HCl-Wamup_10mLmin-4xFlowRate-20mHz_10ppd_02_PEIS_C15.mpt
EC-Lab ASCII FILE
Nb header lines : 75

Potentio Electrochemical Impedance Spectroscopy

Run on channel : 15 (SN 19485)
User :
Electrode connection : standard
Potential control : Ewe
Ewe ctrl range : min = -1.00 V, max = 1.00 V
Ewe,I filtering : 50 kHz
Safety Limits :
	Do not start on E overload
Channel : Grounded
Acquisition started on : 05/15/2024 11:35:32.904
Loaded Setting File :  C:\Data\mathias\IRFB\240507-EIS-Cloth-1p5M_FeCl2FeCl3-1M_HCl-Wamup_10mLmin-4xFlowRate-20mHz_10ppd.mps
Saved on :
	File : 240515-EIS-Paper-1p5M_FeCl2FeCl3-1M_HCl-Wamup_10mLmin-4xFlowRate-20mHz_10ppd_02_PEIS_C15.mpr
	Directory : C:\Data\mathias\IRFB\
	Host : 192.168.0.1
Device : VMP-300 (SN 0826)
Address : USB
EC-Lab for windows v11.52 (software)
Internet server v11.52 (firmware)
Command interpretor v11.52 (firmware)
Electrode material :
Initial state :
Electrolyte :
Comments :
Cable : special
Electrode surface area : 0.001 cm²
Characteristic mass : 0.001 g
Equivalent Weight : 0.000 g/eq.
Density : 0.000 g/cm3
Volume (V) : 0.001 cm³
Record EIS quality indicators
Cycle Definition : Charge/Discharge alternance
External device configuration :
   device type : Other
   device name : Other
   Analog OUT :
      mode : E/V
      unit : KNF Pump/ml/min
      max : 120.000 at 5.000 V
      min : 0.000 at 0.000 V
      current : 3.400
Mode                Single sine
E (V)               0.0000
vs.                 Eoc
tE (h:m:s)          0:00:0.0000
record              0
dI                  0.000
unit dI             mA
dt (s)              0.000
fi                  220.000
unit fi             kHz
ff                  20.000
unit ff             mHz
Nd                  10
Points              per decade
spacing             Logarithmic
Va (mV)             5.0
pw                  0.10
Na                  3
corr                0
E range min (V)     -1.000
E range max (V)     1.000
I Range             Auto
Bandwidth           8
nc cycles           59
goto Ns'            0
nr cycles           0
inc. cycle          0

freq/Hz	Re(Z)/Ohm	-Im(Z)/Ohm	|Z|/Ohm	Phase(Z)/deg	time/s	<Ewe>/V	<I>/mA	Cs/µF	Cp/µF	cycle number	I Range	|Ewe|/V	|I|/A	Ns	(Q-Qo)/mA.h	Analog OUT/V	THD Ewe/%	NSD Ewe/%	NSR Ewe/%	|Ewe h2|/V	|Ewe h3|/V	|Ewe h4|/V	|Ewe h5|/V	|Ewe h6|/V	|Ewe h7|/V	THD I/%	NSD I/%	NSR I/%	|I h2|/A	|I h3|/A	|I h4|/A	|I h5|/A	|I h6|/A	|I h7|/A	Re(Y)/Ohm-1	Im(Y)/Ohm-1	|Y|/Ohm-1	Phase(Y)/deg	Re(C)/nF	Im(C)/nF	|C|/nF	Phase(C)/deg	Re(M)	Im(M)	|M|	Phase(M)/deg	Re(Permittivity)	Im(Permittivity)	|Permittivity|	Phase(Permittivity)/deg	Re(Resistivity)/Ohm.cm	Im(Resistivity)/Ohm.cm	|Resistivity|/Ohm.cm	Phase(Resistivity)/deg	Re(Conductivity)/mS/cm	Im(Conductivity)/mS/cm	|Conductivity|/mS/cm	Phase(Conductivity)/deg	Tan(Delta)	Loss Angle(Delta)/deg	dq/mA.h
220003	0.102374	-0.0119434	0.103068	6.65432	601.661	-0.00110056	-4.53697	-60.5709	-0.81334	1	37	0.00361437	0.0350677	0	-0.00213302	3.4	-1	-1	-1	0	0	0	0	0	0	-1	-1	-1	0	0	0	0	0	0	9.63696	-1.12429	9.70232	-6.65432	-813.339	6971.6	7018.88	-96.6543	0.0000000E+000	0.0000000E+000	0.0000000E+000	96.6543	0.0000000E+000	0.0000000E+000	0.0000000E+000	-96.6543	0.0000000E+000	0.0000000E+000	0.0000000E+000	6.65432	0.0000000E+000	0.0000000E+000	0.0000000E+000	-6.65432	8.57157	83.3457	-0.00213302
0.645874	0.13089	0.016384	0.131911	-7.13485	700.119	-0.00117809	-3.0307	1.50401e+07	232022	1	37	0.00527127	0.0399607	0	-0.10155	3.4	0.123775	0.058411	1.01329	2.65907e-06	3.16e-06	1.29536e-06	3.65752e-06	1.68318e-06	2.03254e-06	0.208747	0.571319	0.347375	4.73258e-05	5.48793e-05	2.51392e-05	2.39041e-05	1.31288e-05	1.22343e-05	7.52216	0.941581	7.58086	7.13485	2.32022e+08	1.85359e+09	1.86806e+09	-82.8651	0.0000000E+000	0.0000000E+000	0.0000000E+000	82.8651	0.0000000E+000	0.0000000E+000	0.0000000E+000	-82.8651	0.0000000E+000	0.0000000E+000	0.0000000E+000	-7.13485	0.0000000E+000	0.0000000E+000	0.0000000E+000	7.13485	7.98886	82.8651	-0.0126333
26.2693	0.110005	0.00302334	0.110047	-1.5743	2183.62	-0.00118676	-5.38793	2.00394e+06	1512.53	2	37	0.00544307	0.0494614	0	-2.02813	3.4	0.338758	0.176956	5.25421	7.6973e-06	9.63978e-06	1.78877e-06	9.32563e-06	6.83059e-06	5.86203e-06	0.134592	0.0295147	0.431674	3.53334e-05	3.70769e-05	5.01628e-06	3.85106e-05	1.52182e-05	5.35818e-06	9.08362	0.24965	9.08705	1.5743	1.51253e+06	5.50339e+07	5.50546e+07	-88.4257	0.0000000E+000	0.0000000E+000	0.0000000E+000	88.4257	0.0000000E+000	0.0000000E+000	0.0000000E+000	-88.4257	0.0000000E+000	0.0000000E+000	0.0000000E+000	-1.5743	0.0000000E+000	0.0000000E+000	0.0000000E+000	1.5743	36.3854	88.4257	-0.0017082
1068.29	0.10251	0.00240782	0.102538	-1.34555	3700.14	-0.00120085	-5.25309	61873.6	34.1179	3	37	0.00511227	0.0498573	0	-4.14323	3.4	0.332335	0.159796	5.49868	4.96764e-06	9.62271e-06	5.0619e-06	9.17625e-06	4.41384e-06	4.33972e-06	0.0358367	0.0939141	0.438897	5.69846e-06	1.20988e-05	5.79345e-06	7.67637e-06	4.35845e-06	2.31296e-06	9.74978	0.229009	9.75247	1.34555	34117.8	1.45253e+06	1.45293e+06	-88.6544	0.0000000E+000	0.0000000E+000	0.0000000E+000	88.6544	0.0000000E+000	0.0000000E+000	0.0000000E+000	-88.6544	0.0000000E+000	0.0000000E+000	0.0000000E+000	-1.34555	0.0000000E+000	0.0000000E+000	0.0000000E+000	1.34555	42.5737	88.6544	-0.00183064
43479.1	0.0981266	-0.00253506	0.0981593	1.47989	5215.83	-0.00109741	-3.94219	-1443.95	-0.963087	4	37	0.00518661	0.0528387	0	-6.32289	3.4	0.269787	0.161081	5.41982	5.45554e-06	6.88906e-06	3.87017e-06	5.19987e-06	7.09092e-06	3.1188e-06	0.115901	0.0382876	0.419225	7.49858e-06	6.00733e-05	2.37237e-06	7.60892e-06	2.80272e-06	2.22051e-06	10.1841	-0.263103	10.1875	-1.47989	-963.089	37278.9	37291.4	-91.4799	0.0000000E+000	0.0000000E+000	0.0000000E+000	91.4799	0.0000000E+000	0.0000000E+000	0.0000000E+000	-91.4799	0.0000000E+000	0.0000000E+000	0.0000000E+000	1.47989	0.0000000E+000	0.0000000E+000	0.0000000E+000	-1.47989	38.7077	88.5201	-0.00126003
0.127525	0.139612	0.0318199	0.143192	-12.8393	5494.38	-0.0011643	-3.99928	3.92217e+07	1.9368e+06	4	37	0.00541995	0.0378508	0	-6.68706	3.4	0.123265	0.0967964	0.456154	2.74354e-06	3.47669e-06	1.16763e-06	4.04067e-06	1.93085e-06	1.28046e-06	0.874229	1.49161	0.680772	0.000313418	6.59463e-05	3.91856e-05	6.06375e-05	2.60435e-05	2.18035e-05	6.809	1.55188	6.98361	12.8393	1.9368e+09	8.49784e+09	8.71576e+09	-77.1607	0.0000000E+000	0.0000000E+000	0.0000000E+000	77.1607	0.0000000E+000	0.0000000E+000	0.0000000E+000	-77.1607	0.0000000E+000	0.0000000E+000	0.0000000E+000	-12.8393	0.0000000E+000	0.0000000E+000	0.0000000E+000	12.8393	4.38757	77.1607	-0.0681498
5.19276	0.110046	0.00463345	0.110144	-2.41099	6798.45	-0.00116513	-5.32084	6.61481e+06	11706	5	37	0.00544062	0.0493957	0	-8.37284	3.4	0.157566	0.10244	3.02535	4.27695e-06	3.22208e-06	2.76792e-06	3.24003e-06	2.05441e-06	3.18933e-06	0.144259	0.0660874	0.30291	9.7773e-06	5.68918e-05	5.93468e-06	3.65593e-05	7.38642e-06	4.71009e-06	9.07102	0.381932	9.07906	2.41099	1.1706e+07	2.78021e+08	2.78268e+08	-87.589	0.0000000E+000	0.0000000E+000	0.0000000E+000	87.589	0.0000000E+000	0.0000000E+000	0.0000000E+000	-87.589	0.0000000E+000	0.0000000E+000	0.0000000E+000	-2.41099	0.0000000E+000	0.0000000E+000	0.0000000E+000	2.41099	23.7504	87.589	-0.00270691
211.149	0.104062	0.00224896	0.104086	-1.23807	8315.27	-0.00116446	-5.46697	335158	156.47	6	37	0.00531254	0.05104	0	-10.5522	3.4	0.32609	0.161629	5.33338	6.01772e-06	6.06337e-06	6.79268e-06	8.18666e-06	4.6065e-06	7.37533e-06	0.0723285	0.0130995	0.427212	1.1316e-05	2.74579e-05	3.01325e-06	1.86338e-05	7.08088e-06	6.13364e-06	9.60521	0.207586	9.60746	1.23807	156470	7.24e+06	7.24169e+06	-88.7619	0.0000000E+000	0.0000000E+000	0.0000000E+000	88.7619	0.0000000E+000	0.0000000E+000	0.0000000E+000	-88.7619	0.0000000E+000	0.0000000E+000	0.0000000E+000	-1.23807	0.0000000E+000	0.0000000E+000	0.0000000E+000	1.23807	46.271	88.7619	-0.00161209
8590.41	0.0984147	0.000916952	0.098419	-0.533822	9830.16	-0.00115935	-5.01431	20205	1.75386	7	37	0.00525009	0.0533442	0	-12.6945	3.4	0.320077	0.135505	5.40917	4.12205e-06	5.69166e-06	6.66863e-06	5.89073e-06	8.30051e-06	8.04753e-06	0.128369	0.0607475	0.418535	1.02059e-05	6.56824e-05	7.05394e-06	1.3609e-05	3.47536e-06	3.34471e-06	10.1602	0.0946648	10.1606	0.533822	1753.86	188239	188247	-89.4662	0.0000000E+000	0.0000000E+000	0.0000000E+000	89.4662	0.0000000E+000	0.0000000E+000	0.0000000E+000	-89.4662	0.0000000E+000	0.0000000E+000	0.0000000E+000	-0.533822	0.0000000E+000	0.0000000E+000	0.0000000E+000	0.533822	107.328	89.4662	-0.00154216
0.0252177	0.198218	0.0407141	0.202356	-11.6072	11042.8	-0.00119737	-5.1954	1.55014e+08	6.27519e+06	7	37	0.00509531	0.0251799	0	-14.3899	3.4	0.141036	0.112595	0.259003	2.23719e-06	4.96729e-06	1.89876e-06	3.22124e-06	1.90796e-06	1.1627e-06	5.51198	0.495234	3.93115	0.000129953	0.0010529	0.000569232	0.000665879	0.000108251	0.000133808	4.84072	0.994288	4.94178	11.6072	6.27519e+09	3.0551e+10	3.11888e+10	-78.3928	0.0000000E+000	0.0000000E+000	0.0000000E+000	78.3928	0.0000000E+000	0.0000000E+000	0.0000000E+000	-78.3928	0.0000000E+000	0.0000000E+000	0.0000000E+000	-11.6072	0.0000000E+000	0.0000000E+000	0.0000000E+000	11.6072	4.86853	78.3928	-0.336097
1.02607	0.115066	0.0112035	0.11561	-5.56111	11430.6	-0.0011965	-5.65484	1.38449e+07	130018	8	37	0.00543489	0.0470105	0	-14.9562	3.4	0.156575	0.0669554	1.25015	3.70135e-06	4.98646e-06	1.27394e-06	4.18352e-06	2.38406e-06	2.48255e-06	0.132116	0.231533	0.284768	2.3771e-05	3.96375e-05	1.11752e-05	3.46301e-05	1.16827e-05	8.6893e-06	8.60905	0.838225	8.64976	5.56111	1.30018e+08	1.33536e+09	1.34167e+09	-84.4389	0.0000000E+000	0.0000000E+000	0.0000000E+000	84.4389	0.0000000E+000	0.0000000E+000	0.0000000E+000	-84.4389	0.0000000E+000	0.0000000E+000	0.0000000E+000	-5.56111	0.0000000E+000	0.0000000E+000	0.0000000E+000	5.56111	10.2706	84.4389	-0.00931662
41.7501	0.106193	0.00259242	0.106224	-1.39845	12929.5	-0.00120195	-5.79803	1.47047e+06	875.827	9	37	0.00544095	0.0512213	0	-17.0068	3.4	0.292415	0.172489	5.21309	2.12818e-06	7.84981e-06	7.64205e-06	7.9429e-06	4.89235e-06	3.88171e-06	0.115653	0.0658393	0.419655	6.91694e-06	3.82716e-05	8.48527e-06	3.82915e-05	1.90379e-05	6.078e-06	9.41122	0.22975	9.41403	1.39845	875825	3.58763e+07	3.5887e+07	-88.6016	0.0000000E+000	0.0000000E+000	0.0000000E+000	88.6016	0.0000000E+000	0.0000000E+000	0.0000000E+000	-88.6016	0.0000000E+000	0.0000000E+000	0.0000000E+000	-1.39845	0.0000000E+000	0.0000000E+000	0.0000000E+000	1.39845	40.9628	88.6016	-0.00179373
1698.37	0.100614	0.00235279	0.100642	-1.33958	14445.6	-0.00122428	-5.73026	39829.5	21.7678	10	37	0.00514321	0.0511041	0	-19.2975	3.4	0.318245	0.170412	5.54833	4.28374e-06	5.02689e-06	9.52994e-06	5.76236e-06	6.17847e-06	3.53068e-06	0.0515017	0.0698983	0.423836	7.49946e-06	2.30545e-05	5.52521e-06	5.67549e-06	3.8585e-06	3.72411e-06	9.9335	0.232288	9.93622	1.33958	21767.8	930874	931128	-88.6604	0.0000000E+000	0.0000000E+000	0.0000000E+000	88.6604	0.0000000E+000	0.0000000E+000	0.0000000E+000	-88.6604	0.0000000E+000	0.0000000E+000	0.0000000E+000	-1.33958	0.0000000E+000	0.0000000E+000	0.0000000E+000	1.33958	42.7638	88.6604	-0.0020859
69097	0.0976632	-0.0042074	0.0977538	2.46682	15961.7	-0.00108716	-5.21278	-547.453	-1.01416	11	37	0.00520948	0.0532918	0	-21.5589	3.4	0.300353	0.177948	5.47235	5.98116e-06	8.8513e-06	3.44022e-06	5.13685e-06	4.01433e-06	5.95239e-06	0.106121	0.0571756	0.41457	1.24894e-05	5.442e-05	4.42136e-06	3.80209e-06	4.02501e-06	3.94152e-06	10.2203	-0.440298	10.2298	-2.46682	-1014.16	23541	23562.8	-92.4668	0.0000000E+000	0.0000000E+000	0.0000000E+000	92.4668	0.0000000E+000	0.0000000E+000	0.0000000E+000	-92.4668	0.0000000E+000	0.0000000E+000	0.0000000E+000	2.46682	0.0000000E+000	0.0000000E+000	0.0000000E+000	-2.46682	23.2122	87.5332	-0.00154012
0.202719	0.131367	0.0262872	0.133971	-11.3157	16156	-0.00117905	-5.77977	2.98663e+07	1.14986e+06	11	37	0.00542413	0.0404872	0	-21.8607	3.4	0.0996594	0.040823	0.558224	1.64768e-06	2.5749e-06	1.25066e-06	3.47275e-06	1.66499e-06	1.1831e-06	0.345657	1.80225	0.311726	0.000125046	4.4823e-05	1.05805e-05	3.95199e-05	8.68423e-06	8.19979e-06	7.31918	1.4646	7.46428	11.3157	1.14986e+09	5.74629e+09	5.86021e+09	-78.6843	0.0000000E+000	0.0000000E+000	0.0000000E+000	78.6843	0.0000000E+000	0.0000000E+000	0.0000000E+000	-78.6843	0.0000000E+000	0.0000000E+000	0.0000000E+000	-11.3157	0.0000000E+000	0.0000000E+000	0.0000000E+000	11.3157	4.99738	78.6843	-0.0564962
8.24973	0.109106	0.00388215	0.109175	-2.0378	17543.9	-0.00115088	-5.61377	4.96944e+06	6283.54	12	37	0.00513114	0.0469991	0	-23.9593	3.4	0.254371	0.115663	3.92139	3.92224e-06	7.50765e-06	3.11989e-06	4.20968e-06	3.61914e-06	7.07806e-06	0.195992	0.0752062	0.343382	4.85996e-05	3.79066e-05	3.88853e-06	3.55998e-05	5.72749e-05	8.13987e-06	9.15379	0.325704	9.15958	2.0378	6.28353e+06	1.76596e+08	1.76708e+08	-87.9622	0.0000000E+000	0.0000000E+000	0.0000000E+000	87.9622	0.0000000E+000	0.0000000E+000	0.0000000E+000	-87.9622	0.0000000E+000	0.0000000E+000	0.0000000E+000	-2.0378	0.0000000E+000	0.0000000E+000	0.0000000E+000	2.0378	28.1046	87.9622	-0.00227296
335.537	0.103587	0.00234613	0.103613	-1.29746	19061.2	-0.00119606	-5.85924	202176	103.657	13	37	0.00547422	0.0528331	0	-26.284	3.4	0.292907	0.109559	5.22913	7.18953e-06	4.03287e-06	4.22222e-06	5.7445e-06	7.40712e-06	8.0025e-06	0.0532703	0.0143908	0.420664	1.15549e-05	1.80132e-05	3.17693e-06	1.70835e-05	4.64633e-06	1.22047e-06	9.64878	0.218534	9.65126	1.29746	103657	4.5767e+06	4.57787e+06	-88.7025	0.0000000E+000	0.0000000E+000	0.0000000E+000	88.7025	0.0000000E+000	0.0000000E+000	0.0000000E+000	-88.7025	0.0000000E+000	0.0000000E+000	0.0000000E+000	-1.29746	0.0000000E+000	0.0000000E+000	0.0000000E+000	1.29746	44.1523	88.7025	-0.00173741
13658	0.0984211	0.000186364	0.0984212	-0.108492	20576	-0.0010762	-4.79445	62527.7	0.224191	14	37	0.00514984	0.0523245	0	-28.5174	3.4	0.305187	0.167584	5.62061	5.95417e-06	7.70871e-06	4.37493e-06	5.24716e-06	7.94976e-06	4.52785e-06	0.109623	0.0138451	0.411489	3.12053e-06	5.57987e-05	3.65851e-06	9.09246e-06	4.16011e-06	6.29927e-06	10.1604	0.0192391	10.1604	0.108492	224.188	118398	118398	-89.8915	0.0000000E+000	0.0000000E+000	0.0000000E+000	89.8915	0.0000000E+000	0.0000000E+000	0.0000000E+000	-89.8915	0.0000000E+000	0.0000000E+000	0.0000000E+000	-0.108492	0.0000000E+000	0.0000000E+000	0.0000000E+000	0.108492	528.112	89.8915	-0.00159415
0.04008	0.179754	0.047202	0.185848	-14.7133	21355.9	-0.00115498	-5.35844	8.41265e+07	5.42674e+06	14	37	0.00540229	0.0290684	0	-29.7095	3.4	0.119201	0.148291	0.286819	3.04094e-06	2.93253e-06	1.23857e-06	3.828e-06	2.11653e-06	8.94892e-07	2.36328	4.47454	3.02122	0.000513346	0.000245908	0.000277291	0.000152829	0.000162412	0.000104253	5.20431	1.36661	5.38075	14.7133	5.42674e+09	2.0666e+10	2.13666e+10	-75.2867	0.0000000E+000	0.0000000E+000	0.0000000E+000	75.2867	0.0000000E+000	0.0000000E+000	0.0000000E+000	-75.2867	0.0000000E+000	0.0000000E+000	0.0000000E+000	-14.7133	0.0000000E+000	0.0000000E+000	0.0000000E+000	14.7133	3.80818	75.2867	-0.209504
1.63084	0.113521	0.00880487	0.113862	-4.43509	22167.2	-0.00118955	-5.57879	1.10838e+07	66279.3	15	37	0.00543615	0.0477434	0	-30.8758	3.4	0.146596	0.0620533	1.566	3.0279e-06	3.30201e-06	1.90824e-06	4.05668e-06	3.7922e-06	1.42746e-06	0.122697	0.261962	0.282424	1.91364e-05	3.99355e-05	8.01965e-06	2.73326e-05	1.45044e-05	1.04881e-05	8.75629	0.679154	8.78259	4.43509	6.62794e+07	8.54536e+08	8.57102e+08	-85.5649	0.0000000E+000	0.0000000E+000	0.0000000E+000	85.5649	0.0000000E+000	0.0000000E+000	0.0000000E+000	-85.5649	0.0000000E+000	0.0000000E+000	0.0000000E+000	-4.43509	0.0000000E+000	0.0000000E+000	0.0000000E+000	4.43509	12.8929	85.5649	-0.00501133
66.3374	0.106258	0.00238118	0.106285	-1.28375	23675.4	-0.00119904	-5.85701	1.00756e+06	505.723	16	37	0.00511334	0.0481098	0	-33.106	3.4	0.349205	0.173217	5.51875	7.69228e-06	7.36492e-06	4.68984e-06	8.98374e-06	4.80121e-06	7.14754e-06	0.101105	0.0289288	0.465716	7.75274e-06	3.44377e-05	6.62616e-06	3.15228e-05	4.58028e-06	4.49698e-06	9.40632	0.21079	9.40868	1.28375	505723	2.25674e+07	2.25731e+07	-88.7162	0.0000000E+000	0.0000000E+000	0.0000000E+000	88.7162	0.0000000E+000	0.0000000E+000	0.0000000E+000	-88.7162	0.0000000E+000	0.0000000E+000	0.0000000E+000	-1.28375	0.0000000E+000	0.0000000E+000	0.0000000E+000	1.28375	44.6241	88.7162	-0.00170865
2699.14	0.100693	0.00205266	0.100714	-1.16783	25191.1	-0.00119524	-5.64143	28726.3	11.9326	17	37	0.00517696	0.0514029	0	-35.4379	3.4	0.239405	0.155597	5.52764	4.17846e-06	4.93452e-06	6.4786e-06	3.13258e-06	5.29468e-06	1.9704e-06	0.0722702	0.017755	0.419897	2.91545e-06	3.62638e-05	1.54566e-06	4.6972e-06	2.99775e-06	1.74591e-06	9.92709	0.202367	9.92915	1.16783	11932.6	585352	585474	-88.8322	0.0000000E+000	0.0000000E+000	0.0000000E+000	88.8322	0.0000000E+000	0.0000000E+000	0.0000000E+000	-88.8322	0.0000000E+000	0.0000000E+000	0.0000000E+000	-1.16783	0.0000000E+000	0.0000000E+000	0.0000000E+000	1.16783	49.0548	88.8322	-0.00197476
109811	0.0982664	-0.00612769	0.0984573	3.56822	26707.3	-0.00107692	-6.79381	-236.525	-0.916167	18	37	0.00523423	0.0531625	0	-37.6638	3.4	-1	-1	-1	0	0	0	0	0	0	-1	-1	-1	0	0	0	0	0	0	10.137	-0.632122	10.1567	-3.56822	-916.167	14692.1	14720.6	-93.5682	0.0000000E+000	0.0000000E+000	0.0000000E+000	93.5682	0.0000000E+000	0.0000000E+000	0.0000000E+000	-93.5682	0.0000000E+000	0.0000000E+000	0.0000000E+000	3.56822	0.0000000E+000	0.0000000E+000	0.0000000E+000	-3.56822	16.0365	86.4318	-0.00212384
0.322118	0.12624	0.0209682	0.12797	-9.4306	26849.5	-0.00117436	-5.47042	2.35637e+07	632631	18	37	0.0051165	0.0399821	0	-37.876	3.4	0.13329	0.0834755	0.749019	1.79467e-06	3.99997e-06	1.87124e-06	4.22833e-06	1.897e-06	6.84542e-07	0.340332	1.66001	0.45683	9.04012e-05	6.20927e-05	3.35799e-05	6.00567e-05	2.17125e-05	1.76846e-05	7.70872	1.2804	7.81433	9.4306	6.32631e+08	3.80879e+09	3.86097e+09	-80.5694	0.0000000E+000	0.0000000E+000	0.0000000E+000	80.5694	0.0000000E+000	0.0000000E+000	0.0000000E+000	-80.5694	0.0000000E+000	0.0000000E+000	0.0000000E+000	-9.4306	0.0000000E+000	0.0000000E+000	0.0000000E+000	9.4306	6.02056	80.5694	-0.0296816
13.1083	0.10923	0.00351447	0.109287	-1.84285	28289.5	-0.00114386	-5.1943	3.45474e+06	3572.74	19	37	0.00543838	0.0497625	0	-40.016	3.4	0.28721	0.130089	3.72453	6.29956e-06	8.0784e-06	5.73044e-06	5.53751e-06	5.99799e-06	3.10561e-06	0.145882	0.109242	0.350244	1.83985e-05	3.67763e-05	3.27269e-05	4.70757e-05	1.20549e-05	7.97009e-06	9.14551	0.294256	9.15025	1.84285	3.57273e+06	1.11041e+08	1.11098e+08	-88.1572	0.0000000E+000	0.0000000E+000	0.0000000E+000	88.1572	0.0000000E+000	0.0000000E+000	0.0000000E+000	-88.1572	0.0000000E+000	0.0000000E+000	0.0000000E+000	-1.84285	0.0000000E+000	0.0000000E+000	0.0000000E+000	1.84285	31.0801	88.1572	-0.00199963
533.464	0.103933	0.00241204	0.103961	-1.32946	29806.7	-0.00118161	-5.9665	123689	66.582	20	37	0.00506183	0.0486897	0	-42.3359	3.4	0.337248	0.217929	5.65435	6.91041e-06	4.61635e-06	6.66506e-06	4.36957e-06	3.917e-06	9.50932e-06	0.0440147	0.0146251	0.45396	1.21824e-05	1.01172e-05	3.3313e-06	1.16958e-05	5.36103e-06	2.24103e-06	9.61639	0.223173	9.61898	1.32946	66582.2	2.86898e+06	2.86975e+06	-88.6705	0.0000000E+000	0.0000000E+000	0.0000000E+000	88.6705	0.0000000E+000	0.0000000E+000	0.0000000E+000	-88.6705	0.0000000E+000	0.0000000E+000	0.0000000E+000	-1.32946	0.0000000E+000	0.0000000E+000	0.0000000E+000	1.32946	43.0894	88.6705	-0.00215123
21702.4	0.0992004	-0.000662905	0.0992026	0.382872	31321.8	-0.00106201	-4.89426	-11062.7	-0.493989	21	37	0.00516555	0.0520707	0	-44.6003	3.4	0.324238	0.194443	5.48861	5.01589e-06	9.97236e-06	6.42673e-06	4.63974e-06	3.91282e-06	6.52452e-06	0.116562	0.0565862	0.418325	4.8705e-06	5.83666e-05	3.85437e-06	9.24819e-06	4.71702e-06	1.01087e-05	10.0802	-0.0673604	10.0804	-0.382872	-493.99	73922.9	73924.6	-90.3829	0.0000000E+000	0.0000000E+000	0.0000000E+000	90.3829	0.0000000E+000	0.0000000E+000	0.0000000E+000	-90.3829	0.0000000E+000	0.0000000E+000	0.0000000E+000	0.382872	0.0000000E+000	0.0000000E+000	0.0000000E+000	-0.382872	149.645	89.6171	-0.00160596
0.0636941	0.159448	0.0456497	0.165854	-15.9763	31830.2	-0.00116416	-5.43544	5.47372e+07	4.14673e+06	21	37	0.00540984	0.0326181	0	-45.3654	3.4	0.141172	0.119859	0.338703	3.73149e-06	4.02913e-06	8.97518e-07	3.85928e-06	2.17667e-06	1.11853e-06	1.0667	4.18654	1.56139	0.00019865	0.00019243	0.000103687	8.262e-05	6.87462e-05	2.74003e-05	5.79651	1.65953	6.02939	15.9763	4.14673e+09	1.4484e+10	1.50659e+10	-74.0237	0.0000000E+000	0.0000000E+000	0.0000000E+000	74.0237	0.0000000E+000	0.0000000E+000	0.0000000E+000	-74.0237	0.0000000E+000	0.0000000E+000	0.0000000E+000	-15.9763	0.0000000E+000	0.0000000E+000	0.0000000E+000	15.9763	3.49286	74.0237	-0.13204
2.58949	0.113243	0.00662391	0.113437	-3.34757	32907.8	-0.00115919	-5.57939	9.27878e+06	31638.1	22	37	0.00543714	0.0479309	0	-47.0521	3.4	0.1415	0.0825141	1.97417	3.15782e-06	1.42324e-06	1.21992e-06	5.45155e-06	2.30503e-06	2.0494e-06	0.146705	0.242592	0.281035	2.71862e-05	2.78174e-05	1.73706e-05	3.53648e-05	3.89521e-05	1.31846e-05	8.80043	0.51476	8.81547	3.34757	3.16381e+07	5.4089e+08	5.41814e+08	-86.6524	0.0000000E+000	0.0000000E+000	0.0000000E+000	86.6524	0.0000000E+000	0.0000000E+000	0.0000000E+000	-86.6524	0.0000000E+000	0.0000000E+000	0.0000000E+000	-3.34757	0.0000000E+000	0.0000000E+000	0.0000000E+000	3.34757	17.0962	86.6524	-0.00414365
105.438	0.107062	0.00223566	0.107086	-1.19627	34421.1	-0.00115589	-5.39496	675175	294.282	23	37	0.00537668	0.0502092	0	-49.2682	3.4	0.269151	0.143641	5.2905	5.74783e-06	4.64884e-06	5.12954e-06	4.06623e-06	7.93335e-06	5.65683e-06	0.0973223	0.0149469	0.45973	8.20213e-06	3.37064e-05	5.87404e-06	3.31053e-05	4.7695e-06	1.35671e-06	9.33629	0.194959	9.33832	1.19627	294282	1.40927e+07	1.40958e+07	-88.8037	0.0000000E+000	0.0000000E+000	0.0000000E+000	88.8037	0.0000000E+000	0.0000000E+000	0.0000000E+000	-88.8037	0.0000000E+000	0.0000000E+000	0.0000000E+000	-1.19627	0.0000000E+000	0.0000000E+000	0.0000000E+000	1.19627	47.8885	88.8037	-0.0016352
4288.63	0.101393	0.00168408	0.101407	-0.951567	35936.3	-0.0011738	-5.62381	22036.3	6.07761	24	37	0.00516304	0.0509143	0	-51.5483	3.4	0.356471	0.146569	5.51477	6.7572e-06	6.14697e-06	4.07676e-06	7.7712e-06	8.44118e-06	8.92064e-06	0.102833	0.0225582	0.425492	6.11767e-06	5.02039e-05	2.78593e-06	1.12528e-05	4.12727e-06	4.54406e-06	9.85994	0.163769	9.8613	0.951567	6077.62	365911	365962	-89.0484	0.0000000E+000	0.0000000E+000	0.0000000E+000	89.0484	0.0000000E+000	0.0000000E+000	0.0000000E+000	-89.0484	0.0000000E+000	0.0000000E+000	0.0000000E+000	-0.951567	0.0000000E+000	0.0000000E+000	0.0000000E+000	0.951567	60.2065	89.0484	-0.0020367
174510	0.0979086	-0.00967239	0.0983852	5.64195	37452.9	-0.00106242	-11.5197	-94.29	-0.911327	25	37	0.00492698	0.0500784	0	-53.8032	3.4	-1	-1	-1	0	0	0	0	0	0	-1	-1	-1	0	0	0	0	0	0	10.1149	-0.999251	10.1641	-5.64195	-911.326	9224.88	9269.79	-95.6419	0.0000000E+000	0.0000000E+000	0.0000000E+000	95.6419	0.0000000E+000	0.0000000E+000	0.0000000E+000	-95.6419	0.0000000E+000	0.0000000E+000	0.0000000E+000	5.64195	0.0000000E+000	0.0000000E+000	0.0000000E+000	-5.64195	10.1225	84.3581	-0.00343763
0.511825	0.122745	0.0165682	0.123858	-7.68738	37562.8	-0.00114568	-5.75462	1.87682e+07	335836	25	37	0.00511901	0.0413297	0	-53.9735	3.4	0.137663	0.057632	0.925124	1.48029e-06	4.7166e-06	1.74543e-06	4.09984e-06	1.76347e-06	5.65845e-07	0.396264	0.842587	0.507239	0.000117056	7.04331e-05	5.14444e-05	5.21676e-05	2.83417e-05	2.96741e-05	8.0012	1.08001	8.07376	7.68738	3.35836e+08	2.48802e+09	2.51058e+09	-82.3126	0.0000000E+000	0.0000000E+000	0.0000000E+000	82.3126	0.0000000E+000	0.0000000E+000	0.0000000E+000	-82.3126	0.0000000E+000	0.0000000E+000	0.0000000E+000	-7.68738	0.0000000E+000	0.0000000E+000	0.0000000E+000	7.68738	7.40845	82.3126	-0.0209782
20.8333	0.109369	0.00314201	0.109414	-1.64557	39035.1	-0.00116554	-5.04438	2.43138e+06	2005.03	26	37	0.00543742	0.0496957	0	-56.1717	3.4	0.313447	0.16952	5.26088	4.35979e-06	7.39157e-06	7.14275e-06	3.28526e-06	7.14468e-06	7.00276e-06	0.115414	0.108092	0.428134	6.22617e-06	3.64536e-05	6.82096e-06	4.06345e-05	7.24167e-06	1.03021e-05	9.13579	0.262457	9.13956	1.64557	2.00503e+06	6.97924e+07	6.98212e+07	-88.3544	0.0000000E+000	0.0000000E+000	0.0000000E+000	88.3544	0.0000000E+000	0.0000000E+000	0.0000000E+000	-88.3544	0.0000000E+000	0.0000000E+000	0.0000000E+000	-1.64557	0.0000000E+000	0.0000000E+000	0.0000000E+000	1.64557	34.8087	88.3544	-0.00140946
847.556	0.104072	0.00240442	0.1041	-1.3235	40551.9	-0.00115279	-5.75826	78098.2	41.6643	27	37	0.00509667	0.0489595	0	-58.5043	3.4	0.279072	0.187307	5.58271	4.82428e-06	6.53077e-06	5.20748e-06	5.49204e-06	4.42204e-06	5.61183e-06	0.0319745	0.0934374	0.450293	3.02988e-06	7.99338e-06	4.26684e-06	9.1975e-06	6.42104e-06	3.68059e-06	9.60361	0.221877	9.60618	1.3235	41664.2	1.80338e+06	1.80386e+06	-88.6765	0.0000000E+000	0.0000000E+000	0.0000000E+000	88.6765	0.0000000E+000	0.0000000E+000	0.0000000E+000	-88.6765	0.0000000E+000	0.0000000E+000	0.0000000E+000	-1.3235	0.0000000E+000	0.0000000E+000	0.0000000E+000	1.3235	43.2835	88.6765	-0.00204856
34488.2	0.0996843	-0.00179879	0.0997005	1.03378	42067.4	-0.00106636	-5.11533	-2565.48	-0.835094	28	37	0.00518495	0.0520052	0	-60.7342	3.4	0.219668	0.241493	5.59314	4.25608e-06	5.47806e-06	5.36957e-06	4.0564e-06	1.99869e-06	4.90368e-06	0.118744	0.0538338	0.410153	7.42117e-06	5.98464e-05	4.65874e-06	1.07243e-05	3.83905e-06	3.24114e-06	10.0284	-0.180961	10.03	-1.03378	-835.094	46278.7	46286.3	-91.0338	0.0000000E+000	0.0000000E+000	0.0000000E+000	91.0338	0.0000000E+000	0.0000000E+000	0.0000000E+000	-91.0338	0.0000000E+000	0.0000000E+000	0.0000000E+000	1.03378	0.0000000E+000	0.0000000E+000	0.0000000E+000	-1.03378	55.4174	88.9662	-0.00162802
0.101164	0.144675	0.0344041	0.14871	-13.3766	42405.7	-0.00115714	-4.9267	4.57282e+07	2.44751e+06	28	37	0.00510738	0.0343446	0	-61.256	3.4	0.130952	0.1302	0.435556	3.37429e-06	3.29441e-06	1.60627e-06	3.42968e-06	1.53127e-06	8.80713e-07	0.902238	0.716883	0.4696	0.000272123	0.00012801	5.44022e-05	1.71434e-05	2.16409e-05	2.1709e-05	6.54207	1.55572	6.7245	13.3766	2.44751e+09	1.02922e+10	1.05792e+10	-76.6234	0.0000000E+000	0.0000000E+000	0.0000000E+000	76.6234	0.0000000E+000	0.0000000E+000	0.0000000E+000	-76.6234	0.0000000E+000	0.0000000E+000	0.0000000E+000	-13.3766	0.0000000E+000	0.0000000E+000	0.0000000E+000	13.3766	4.20518	76.6234	-0.0865784
4.11618	0.112385	0.00524017	0.112507	-2.6696	43651	-0.00115076	-5.13895	7.37871e+06	16007.1	29	37	0.00543515	0.0483095	0	-63.1725	3.4	0.172103	0.0851591	2.60227	2.51909e-06	4.13704e-06	1.81489e-06	5.44001e-06	3.17142e-06	2.57618e-06	0.136859	0.0793808	0.303665	1.97111e-05	4.13951e-05	2.16374e-05	4.04583e-05	7.72359e-06	4.28573e-06	8.8787	0.413987	8.88834	2.6696	1.60071e+07	3.43301e+08	3.43674e+08	-87.3304	0.0000000E+000	0.0000000E+000	0.0000000E+000	87.3304	0.0000000E+000	0.0000000E+000	0.0000000E+000	-87.3304	0.0000000E+000	0.0000000E+000	0.0000000E+000	-2.6696	0.0000000E+000	0.0000000E+000	0.0000000E+000	2.6696	21.4468	87.3304	-0.00235147
167.481	0.106436	0.00225002	0.10646	-1.21103	45167	-0.00114282	-4.98371	422346	188.654	30	37	0.00527579	0.0495564	0	-65.3861	3.4	0.274114	0.170919	5.36328	5.84086e-06	4.57061e-06	4.46349e-06	4.63522e-06	8.61829e-06	2.65105e-06	0.0740742	0.0189613	0.454864	5.48538e-06	2.90344e-05	4.24458e-06	1.93486e-05	3.64103e-06	5.72694e-06	9.39108	0.198523	9.39318	1.21103	188654	8.92422e+06	8.92622e+06	-88.789	0.0000000E+000	0.0000000E+000	0.0000000E+000	88.789	0.0000000E+000	0.0000000E+000	0.0000000E+000	-88.789	0.0000000E+000	0.0000000E+000	0.0000000E+000	-1.21103	0.0000000E+000	0.0000000E+000	0.0000000E+000	1.21103	47.3047	88.789	-0.00154811
6816.86	0.10046	0.00124763	0.100468	-0.71153	46681.8	-0.00118694	-5.87379	18713.2	2.88581	31	37	0.00517186	0.0514777	0	-67.718	3.4	0.380827	0.157201	5.43977	7.1406e-06	8.47487e-06	6.91383e-06	7.14498e-06	6.87019e-06	6.91661e-06	0.124673	0.0532142	0.42682	5.4147e-06	6.17198e-05	6.54822e-06	1.40462e-05	4.45607e-06	1.67006e-06	9.95265	0.123604	9.95342	0.71153	2885.82	232367	232385	-89.2885	0.0000000E+000	0.0000000E+000	0.0000000E+000	89.2885	0.0000000E+000	0.0000000E+000	0.0000000E+000	-89.2885	0.0000000E+000	0.0000000E+000	0.0000000E+000	-0.71153	0.0000000E+000	0.0000000E+000	0.0000000E+000	0.71153	80.5207	89.2885	-0.00180371
0.0199946	0.208132	0.0361815	0.211254	-9.86168	48198.7	-0.00116004	-5.27836	2.19999e+08	6.45334e+06	31	37	0.00540219	0.025572	0	-70.0197	3.4	0.135103	0.0528758	0.230463	3.39491e-06	3.44579e-06	1.90602e-06	4.3909e-06	2.21627e-06	6.86804e-07	3.99803	0.668088	5.06356	0.000147052	0.000226092	0.00085105	0.000217806	0.000358877	0.000260504	4.6637	0.810732	4.73364	9.86168	6.45334e+09	3.71225e+10	3.76793e+10	-80.1383	0.0000000E+000	0.0000000E+000	0.0000000E+000	80.1383	0.0000000E+000	0.0000000E+000	0.0000000E+000	-80.1383	0.0000000E+000	0.0000000E+000	0.0000000E+000	-9.86168	0.0000000E+000	0.0000000E+000	0.0000000E+000	9.86168	5.75245	80.1383	-0.486799
0.813551	0.118706	0.0129422	0.11941	-6.2222	48288.7	-0.00116083	-5.73423	1.51157e+07	177568	32	37	0.00543234	0.0454934	0	-70.145	3.4	0.130786	0.0864866	1.11125	1.98868e-06	3.98444e-06	9.54949e-07	4.27628e-06	2.46804e-06	1.07973e-06	0.198861	0.3515	0.312818	4.92561e-05	6.09351e-05	1.90232e-05	2.988e-05	1.93253e-05	1.20772e-05	8.3252	0.907671	8.37454	6.2222	1.77567e+08	1.62866e+09	1.63831e+09	-83.7778	0.0000000E+000	0.0000000E+000	0.0000000E+000	83.7778	0.0000000E+000	0.0000000E+000	0.0000000E+000	-83.7778	0.0000000E+000	0.0000000E+000	0.0000000E+000	-6.2222	0.0000000E+000	0.0000000E+000	0.0000000E+000	6.2222	9.17205	83.7778	-0.014748
33.1038	0.108397	0.00272353	0.108431	-1.43928	49780.9	-0.00116944	-4.88176	1.76527e+06	1113.69	33	37	0.00543629	0.0501359	0	-72.3883	3.4	0.287771	0.136307	5.12565	5.44835e-06	4.81705e-06	5.31724e-06	6.95885e-06	4.83529e-06	7.79824e-06	0.11098	0.0154993	0.427952	8.54863e-06	3.24324e-05	6.47607e-06	4.2226e-05	6.70461e-06	4.71825e-06	9.21953	0.231645	9.22244	1.43928	1.1137e+06	4.43252e+07	4.43392e+07	-88.5607	0.0000000E+000	0.0000000E+000	0.0000000E+000	88.5607	0.0000000E+000	0.0000000E+000	0.0000000E+000	-88.5607	0.0000000E+000	0.0000000E+000	0.0000000E+000	-1.43928	0.0000000E+000	0.0000000E+000	0.0000000E+000	1.43928	39.8002	88.5607	-0.00165142
1347.15	0.102838	0.00237904	0.102865	-1.32524	51297.2	-0.00118554	-5.82165	49659.2	26.5623	34	37	0.00514861	0.0500519	0	-74.5964	3.4	0.268546	0.108616	5.49958	5.37527e-06	3.67306e-06	4.67614e-06	7.89721e-06	4.26188e-06	5.33745e-06	0.0475101	0.031778	0.435575	9.70359e-06	1.95515e-05	2.0656e-06	5.57695e-06	4.854e-06	4.56058e-06	9.71883	0.224835	9.72143	1.32524	26562.4	1.1482e+06	1.14851e+06	-88.6748	0.0000000E+000	0.0000000E+000	0.0000000E+000	88.6748	0.0000000E+000	0.0000000E+000	0.0000000E+000	-88.6748	0.0000000E+000	0.0000000E+000	0.0000000E+000	-1.32524	0.0000000E+000	0.0000000E+000	0.0000000E+000	1.32524	43.2266	88.6748	-0.00221718
54808.1	0.0995824	-0.00332807	0.099638	1.91413	52812.8	-0.00105733	-5.3028	-872.535	-0.97346	35	37	0.00519382	0.0521269	0	-76.8052	3.4	0.324317	0.214144	5.44744	4.10592e-06	8.57861e-06	5.83009e-06	7.91493e-06	6.58148e-06	4.26282e-06	0.119282	0.0523062	0.410277	7.36793e-06	6.08947e-05	1.65193e-06	8.51928e-06	1.65831e-06	4.78387e-06	10.0307	-0.33523	10.0363	-1.91413	-973.461	29127.8	29144.1	-91.9141	0.0000000E+000	0.0000000E+000	0.0000000E+000	91.9141	0.0000000E+000	0.0000000E+000	0.0000000E+000	-91.9141	0.0000000E+000	0.0000000E+000	0.0000000E+000	1.91413	0.0000000E+000	0.0000000E+000	0.0000000E+000	-1.91413	29.922	88.0859	-0.00163813
0.160792	0.137458	0.0294434	0.140576	-12.09	53044.3	-0.001127	-5.00336	3.36176e+07	1.47475e+06	35	37	0.00541755	0.0385382	0	-77.1445	3.4	0.111748	0.0524308	0.496391	2.52357e-06	3.39168e-06	7.46896e-07	3.86e-06	1.36407e-06	7.19264e-07	0.349762	1.92911	0.437472	9.13663e-05	5.90413e-05	2.97058e-05	4.11579e-05	2.40034e-05	2.05257e-05	6.9558	1.48992	7.11358	12.09	1.47475e+09	6.88496e+09	7.04113e+09	-77.91	0.0000000E+000	0.0000000E+000	0.0000000E+000	77.91	0.0000000E+000	0.0000000E+000	0.0000000E+000	-77.91	0.0000000E+000	0.0000000E+000	0.0000000E+000	-12.09	0.0000000E+000	0.0000000E+000	0.0000000E+000	12.09	4.66856	77.91	-0.0469708
6.54313	0.111577	0.00439109	0.111663	-2.2537	54395.2	-0.00116803	-5.02005	5.53939e+06	8566.14	36	37	0.00496881	0.0444981	0	-79.1037	3.4	0.314427	0.185799	4.02101	3.40483e-06	6.96552e-06	4.35473e-06	9.91182e-06	2.78551e-06	5.35962e-06	0.15338	0.0740785	0.388643	2.69141e-05	4.39101e-05	8.57031e-06	3.9901e-05	6.91042e-06	1.02068e-05	8.94855	0.352168	8.95548	2.2537	8.56614e+06	2.17664e+08	2.17833e+08	-87.7463	0.0000000E+000	0.0000000E+000	0.0000000E+000	87.7463	0.0000000E+000	0.0000000E+000	0.0000000E+000	-87.7463	0.0000000E+000	0.0000000E+000	0.0000000E+000	-2.2537	0.0000000E+000	0.0000000E+000	0.0000000E+000	2.2537	25.4099	87.7463	-0.00177327
266.278	0.106028	0.0023493	0.106054	-1.26932	55912.5	-0.00114465	-4.80126	254417	124.845	37	37	0.00502869	0.0474164	0	-81.3986	3.4	0.326978	0.0946348	5.62631	5.92135e-06	9.76853e-06	5.82135e-06	6.5149e-06	3.56688e-06	4.99046e-06	0.0611609	0.020016	0.449947	6.83847e-06	2.27758e-05	3.42266e-06	1.31644e-05	7.43703e-06	3.51426e-06	9.42687	0.208875	9.42918	1.26932	124845	5.63446e+06	5.63585e+06	-88.7307	0.0000000E+000	0.0000000E+000	0.0000000E+000	88.7307	0.0000000E+000	0.0000000E+000	0.0000000E+000	-88.7307	0.0000000E+000	0.0000000E+000	0.0000000E+000	-1.26932	0.0000000E+000	0.0000000E+000	0.0000000E+000	1.26932	45.1316	88.7307	-0.00185771
10837.3	0.100574	0.000565295	0.100575	-0.322039	57427.1	-0.0010649	-5.20338	25979.1	0.820715	38	37	0.00515441	0.0512493	0	-83.5918	3.4	0.273981	0.133151	5.4954	3.66066e-06	8.09278e-06	5.63119e-06	4.27557e-06	4.22362e-06	6.10818e-06	0.160801	0.036857	0.406619	7.14243e-06	5.08581e-05	4.46696e-06	5.08213e-06	3.29173e-06	6.38059e-05	9.94264	0.0558847	9.9428	0.322039	820.708	146016	146019	-89.678	0.0000000E+000	0.0000000E+000	0.0000000E+000	89.678	0.0000000E+000	0.0000000E+000	0.0000000E+000	-89.678	0.0000000E+000	0.0000000E+000	0.0000000E+000	-0.322039	0.0000000E+000	0.0000000E+000	0.0000000E+000	0.322039	177.914	89.678	-0.00173611
0.0317924	0.192874	0.045418	0.19815	-13.2506	58398.3	-0.00115071	-5.496	1.10222e+08	5.79079e+06	38	37	0.00540371	0.0272709	0	-85.0729	3.4	0.114125	0.143404	0.254411	1.89602e-06	3.55036e-06	1.30371e-06	3.96147e-06	1.69578e-06	5.85455e-07	2.93746	1.36191	4.81722	0.000711866	0.00010266	0.000132446	0.00024758	0.00014181	9.92081e-05	4.91233	1.15676	5.04669	13.2506	5.79079e+09	2.45914e+10	2.5264e+10	-76.7494	0.0000000E+000	0.0000000E+000	0.0000000E+000	76.7494	0.0000000E+000	0.0000000E+000	0.0000000E+000	-76.7494	0.0000000E+000	0.0000000E+000	0.0000000E+000	-13.2506	0.0000000E+000	0.0000000E+000	0.0000000E+000	13.2506	4.24665	76.7494	-0.310926
1.29325	0.116577	0.009846	0.116992	-4.8277	59022.2	-0.00114982	-5.7377	1.24991e+07	88529	39	37	0.00543263	0.046436	0	-85.9924	3.4	0.165789	0.0943925	1.39692	3.54969e-06	2.87807e-06	1.64322e-06	5.99166e-06	3.49493e-06	1.6856e-06	0.140698	0.210238	0.281653	2.63731e-05	3.79848e-05	9.48926e-06	4.00331e-05	1.88623e-05	5.79253e-06	8.51727	0.719363	8.5476	4.8277	8.8529e+07	1.04819e+09	1.05192e+09	-85.1723	0.0000000E+000	0.0000000E+000	0.0000000E+000	85.1723	0.0000000E+000	0.0000000E+000	0.0000000E+000	-85.1723	0.0000000E+000	0.0000000E+000	0.0000000E+000	-4.8277	0.0000000E+000	0.0000000E+000	0.0000000E+000	4.8277	11.84	85.1723	-0.00626299
52.6255	0.108407	0.00258498	0.108438	-1.36596	60526.3	-0.0011519	-4.88676	1.16995e+06	664.838	40	37	0.00542621	0.0500396	0	-88.2878	3.4	0.345959	0.10004	5.1823	6.47113e-06	4.8919e-06	7.24836e-06	1.26002e-05	5.7612e-06	3.86292e-06	0.121409	0.0847313	0.424871	5.22566e-06	4.69491e-05	8.14785e-06	3.54756e-05	7.68711e-06	4.78795e-06	9.21923	0.219833	9.22185	1.36596	664837	2.78816e+07	2.78896e+07	-88.634	0.0000000E+000	0.0000000E+000	0.0000000E+000	88.634	0.0000000E+000	0.0000000E+000	0.0000000E+000	-88.634	0.0000000E+000	0.0000000E+000	0.0000000E+000	-1.36596	0.0000000E+000	0.0000000E+000	0.0000000E+000	1.36596	41.9375	88.634	-0.00151521
2140.69	0.102986	0.00221331	0.10301	-1.23117	62042.2	-0.00118951	-5.77808	33591.1	15.5078	41	37	0.00517374	0.0502256	0	-90.5759	3.4	0.347588	0.124717	5.56347	6.65278e-06	7.28375e-06	6.94256e-06	5.8762e-06	7.80158e-06	7.09416e-06	0.0673397	0.0272962	0.434366	9.34954e-06	3.03075e-05	4.59822e-06	7.85847e-06	3.91963e-06	4.45245e-06	9.70554	0.208585	9.70778	1.23117	15507.8	721584	721750	-88.7688	0.0000000E+000	0.0000000E+000	0.0000000E+000	88.7688	0.0000000E+000	0.0000000E+000	0.0000000E+000	-88.7688	0.0000000E+000	0.0000000E+000	0.0000000E+000	-1.23117	0.0000000E+000	0.0000000E+000	0.0000000E+000	1.23117	46.5305	88.7688	-0.0021512
87106.6	0.100323	-0.00508301	0.100451	2.90051	63558.2	-0.00106307	-6.06071	-359.458	-0.920406	42	37	0.00523176	0.0520826	0	-92.7582	3.4	0.286756	0.140645	5.45849	4.48042e-06	5.66962e-06	5.98126e-06	7.93567e-06	5.14942e-06	5.491e-06	0.0906045	0.0210246	0.416232	1.10716e-05	4.50189e-05	4.02651e-06	4.98429e-06	3.17152e-06	2.15271e-06	9.94232	-0.503744	9.95508	-2.90051	-920.406	18165.9	18189.2	-92.9005	0.0000000E+000	0.0000000E+000	0.0000000E+000	92.9005	0.0000000E+000	0.0000000E+000	0.0000000E+000	-92.9005	0.0000000E+000	0.0000000E+000	0.0000000E+000	2.90051	0.0000000E+000	0.0000000E+000	0.0000000E+000	-2.90051	19.7368	87.0995	-0.00204204
0.255612	0.130868	0.0235132	0.132963	-10.1857	63723.3	-0.00114588	-5.49633	2.64806e+07	828110	42	37	0.00542334	0.0407883	0	-92.998	3.4	0.114224	0.114837	0.613931	1.30041e-06	3.62884e-06	8.97256e-07	4.20486e-06	1.6546e-06	1.16668e-06	0.297301	1.11741	0.321331	8.78655e-05	5.87321e-05	2.16169e-05	4.31153e-05	1.32248e-05	7.71282e-06	7.40234	1.32999	7.52088	10.1857	8.2811e+08	4.60902e+09	4.68283e+09	-79.8143	0.0000000E+000	0.0000000E+000	0.0000000E+000	79.8143	0.0000000E+000	0.0000000E+000	0.0000000E+000	-79.8143	0.0000000E+000	0.0000000E+000	0.0000000E+000	-10.1857	0.0000000E+000	0.0000000E+000	0.0000000E+000	10.1857	5.56571	79.8143	-0.0367226
10.3959	0.111481	0.00364899	0.111541	-1.87473	65140.1	-0.00114679	-4.81602	4.19552e+06	4490.16	43	37	0.00544207	0.0487897	0	-95.1229	3.4	0.337587	0.109781	5.11631	7.46237e-06	8.34558e-06	8.10425e-06	4.77222e-06	3.1922e-06	8.71021e-06	0.154052	0.125201	0.421677	1.28284e-05	4.09181e-05	1.1137e-05	5.8375e-05	8.84022e-06	6.00351e-06	8.9605	0.293294	8.9653	1.87473	4.49016e+06	1.3718e+08	1.37254e+08	-88.1253	0.0000000E+000	0.0000000E+000	0.0000000E+000	88.1253	0.0000000E+000	0.0000000E+000	0.0000000E+000	-88.1253	0.0000000E+000	0.0000000E+000	0.0000000E+000	-1.87473	0.0000000E+000	0.0000000E+000	0.0000000E+000	1.87473	30.5513	88.1253	-0.00175099
423.239	0.105897	0.0024344	0.105925	-1.31691	66657.5	-0.00115988	-4.90495	154469	81.5888	44	37	0.00504762	0.0476528	0	-97.3552	3.4	0.250338	0.14166	5.58808	3.99676e-06	4.84503e-06	4.05212e-06	8.32551e-06	2.76827e-06	4.0031e-06	0.049238	0.0180143	0.465154	9.02002e-06	1.39658e-05	3.18982e-06	1.23122e-05	7.57203e-06	5.27784e-06	9.43816	0.216968	9.44065	1.31691	81589	3.54913e+06	3.55006e+06	-88.6831	0.0000000E+000	0.0000000E+000	0.0000000E+000	88.6831	0.0000000E+000	0.0000000E+000	0.0000000E+000	-88.6831	0.0000000E+000	0.0000000E+000	0.0000000E+000	-1.31691	0.0000000E+000	0.0000000E+000	0.0000000E+000	1.31691	43.5002	88.6831	-0.00175261
17211.6	0.100567	-0.000158056	0.100568	0.0900483	68172.3	-0.00107849	-5.12707	-58504.2	-0.144508	45	37	0.00516897	0.051398	0	-99.6199	3.4	0.309108	0.20494	5.5287	8.68944e-06	4.54773e-06	4.29295e-06	3.75705e-06	8.42258e-06	5.22499e-06	0.116439	0.0137931	0.414649	3.54541e-06	5.90116e-05	4.16565e-06	5.68458e-06	4.58188e-06	2.99125e-06	9.94355	-0.0156277	9.94356	-0.0900483	-144.511	91947.5	91947.6	-90.0901	0.0000000E+000	0.0000000E+000	0.0000000E+000	90.0901	0.0000000E+000	0.0000000E+000	0.0000000E+000	-90.0901	0.0000000E+000	0.0000000E+000	0.0000000E+000	0.0900483	0.0000000E+000	0.0000000E+000	0.0000000E+000	-0.0900483	636.277	89.9099	-0.00149322
0.0505041	0.166247	0.0497517	0.173532	-16.6605	68800.7	-0.00116611	-5.40481	6.33412e+07	5.20647e+06	45	37	0.00540732	0.0311604	0	-100.575	3.4	0.117284	0.146439	0.304823	1.53083e-06	3.77053e-06	1.07084e-06	4.07141e-06	1.87416e-06	6.76336e-07	2.45642	1.15247	0.987585	0.000454395	0.000561658	0.000153604	0.000157004	4.37294e-05	4.53275e-05	5.52072	1.65215	5.76263	16.6605	5.20647e+09	1.73976e+10	1.816e+10	-73.3395	0.0000000E+000	0.0000000E+000	0.0000000E+000	73.3395	0.0000000E+000	0.0000000E+000	0.0000000E+000	-73.3395	0.0000000E+000	0.0000000E+000	0.0000000E+000	-16.6605	0.0000000E+000	0.0000000E+000	0.0000000E+000	16.6605	3.34154	73.3395	-0.203729
2.05457	0.114915	0.0075619	0.115164	-3.76487	69760.5	-0.00114101	-5.45551	1.0244e+07	44166.9	46	37	0.00543466	0.0471907	0	-101.994	3.4	0.156334	0.0838544	1.7479	1.35922e-06	4.59297e-06	2.06259e-06	5.40065e-06	3.18551e-06	8.49486e-07	0.160276	0.184148	0.297424	2.23036e-05	4.41803e-05	2.18367e-05	4.04383e-05	1.01275e-05	2.72375e-05	8.66454	0.570162	8.68328	3.76487	4.41669e+07	6.71188e+08	6.7264e+08	-86.2351	0.0000000E+000	0.0000000E+000	0.0000000E+000	86.2351	0.0000000E+000	0.0000000E+000	0.0000000E+000	-86.2351	0.0000000E+000	0.0000000E+000	0.0000000E+000	-3.76487	0.0000000E+000	0.0000000E+000	0.0000000E+000	3.76487	15.1966	86.2351	-0.0056737
83.635	0.107767	0.00234165	0.107792	-1.24477	71271.6	-0.00116071	-4.81269	812663	383.511	47	37	0.00524734	0.0486801	0	-104.316	3.4	0.332608	0.102278	5.35799	8.7291e-06	5.31029e-06	4.32107e-06	5.30947e-06	1.08382e-05	4.15407e-06	0.107549	0.0160211	0.440058	5.87734e-06	3.88729e-05	4.82542e-06	3.35207e-05	2.17638e-06	3.28294e-06	9.27491	0.201533	9.2771	1.24477	383511	1.76499e+07	1.7654e+07	-88.7552	0.0000000E+000	0.0000000E+000	0.0000000E+000	88.7552	0.0000000E+000	0.0000000E+000	0.0000000E+000	-88.7552	0.0000000E+000	0.0000000E+000	0.0000000E+000	-1.24477	0.0000000E+000	0.0000000E+000	0.0000000E+000	1.24477	46.0218	88.7552	-0.00150237
3403.27	0.102001	0.00195088	0.10202	-1.09571	72787	-0.001205	-5.91586	23971.4	8.76568	48	37	0.00517139	0.05069	0	-106.594	3.4	0.385038	0.206289	5.46727	7.55906e-06	9.17253e-06	5.41779e-06	5.82006e-06	6.94621e-06	8.62671e-06	0.0871847	0.0469126	0.426029	5.98148e-06	4.13532e-05	5.1937e-06	9.42911e-06	6.94704e-06	3.85948e-06	9.80022	0.18744	9.80202	1.09571	8765.69	458310	458394	-88.9043	0.0000000E+000	0.0000000E+000	0.0000000E+000	88.9043	0.0000000E+000	0.0000000E+000	0.0000000E+000	-88.9043	0.0000000E+000	0.0000000E+000	0.0000000E+000	-1.09571	0.0000000E+000	0.0000000E+000	0.0000000E+000	1.09571	52.2846	88.9043	-0.00210104
138435	0.0993643	-0.00776548	0.0996673	4.46868	74303.6	-0.00104809	-1.92934	-148.049	-0.898745	49	37	0.00522133	0.0523876	0	-108.857	3.4	-1	-1	-1	0	0	0	0	0	0	-1	-1	-1	0	0	0	0	0	0	10.0029	-0.781741	10.0334	-4.46868	-898.744	11500	11535.1	-94.4687	0.0000000E+000	0.0000000E+000	0.0000000E+000	94.4687	0.0000000E+000	0.0000000E+000	0.0000000E+000	-94.4687	0.0000000E+000	0.0000000E+000	0.0000000E+000	4.46868	0.0000000E+000	0.0000000E+000	0.0000000E+000	-4.46868	12.7956	85.5313	-0.000394152
0.406108	0.124975	0.0185433	0.126343	-8.43976	74427.5	-0.0011413	-5.24307	2.11344e+07	455263	49	37	0.00542653	0.0429507	0	-109.043	3.4	0.131988	0.0501346	0.779691	2.9237e-06	4.03531e-06	9.6229e-07	4.36343e-06	1.54362e-06	7.74856e-07	0.299469	0.787254	0.422721	7.71602e-05	6.14981e-05	4.14693e-05	5.70821e-05	2.50286e-05	2.55218e-05	7.82923	1.16167	7.91495	8.43976	4.55263e+08	3.0683e+09	3.10189e+09	-81.5602	0.0000000E+000	0.0000000E+000	0.0000000E+000	81.5602	0.0000000E+000	0.0000000E+000	0.0000000E+000	-81.5602	0.0000000E+000	0.0000000E+000	0.0000000E+000	-8.43976	0.0000000E+000	0.0000000E+000	0.0000000E+000	8.43976	6.73962	81.5602	-0.0226945
16.5286	0.109995	0.00327081	0.110043	-1.70325	75885.6	-0.00118394	-5.13148	2.94394e+06	2600.84	50	37	0.00543461	0.0493862	0	-111.301	3.4	0.29481	0.144174	5.20048	6.52239e-06	6.59173e-06	7.54071e-06	7.81206e-06	5.07877e-06	3.78917e-06	0.166141	0.0835025	0.418529	4.59579e-06	7.07028e-05	6.17243e-06	3.53944e-05	8.42524e-06	9.8138e-06	9.08333	0.270103	9.08734	1.70325	2.60084e+06	8.7464e+07	8.75027e+07	-88.2967	0.0000000E+000	0.0000000E+000	0.0000000E+000	88.2967	0.0000000E+000	0.0000000E+000	0.0000000E+000	-88.2967	0.0000000E+000	0.0000000E+000	0.0000000E+000	-1.70325	0.0000000E+000	0.0000000E+000	0.0000000E+000	1.70325	33.6291	88.2967	-0.00175167
672.366	0.104366	0.00249068	0.104396	-1.3671	77402.6	-0.00114765	-5.01107	95037.7	54.0961	51	37	0.00515678	0.0493965	0	-113.53	3.4	0.312831	0.146446	5.4749	8.52557e-06	5.57261e-06	3.77804e-06	5.97724e-06	5.98944e-06	6.8044e-06	0.0334252	0.0135587	0.457881	5.34219e-06	5.83361e-06	3.99556e-06	1.21759e-05	3.66259e-06	3.14691e-06	9.5762	0.228534	9.57893	1.3671	54096.1	2.26677e+06	2.26741e+06	-88.6329	0.0000000E+000	0.0000000E+000	0.0000000E+000	88.6329	0.0000000E+000	0.0000000E+000	0.0000000E+000	-88.6329	0.0000000E+000	0.0000000E+000	0.0000000E+000	-1.3671	0.0000000E+000	0.0000000E+000	0.0000000E+000	1.3671	41.9026	88.6329	-0.00176072
27362.3	0.0996922	-0.00105523	0.0996978	0.606449	78917.7	-0.0010616	-5.21105	-5512.12	-0.617512	52	37	0.00517764	0.0519334	0	-115.864	3.4	0.282574	0.210767	5.51392	5.12513e-06	6.56467e-06	4.51612e-06	3.27932e-06	3.82633e-06	9.28031e-06	0.120905	0.0399712	0.427167	5.72198e-06	6.07692e-05	4.37513e-06	1.04006e-05	4.16135e-06	6.72903e-06	10.0297	-0.106164	10.0303	-0.606449	-617.508	58338.8	58342.1	-90.6064	0.0000000E+000	0.0000000E+000	0.0000000E+000	90.6064	0.0000000E+000	0.0000000E+000	0.0000000E+000	-90.6064	0.0000000E+000	0.0000000E+000	0.0000000E+000	0.606449	0.0000000E+000	0.0000000E+000	0.0000000E+000	-0.606449	94.474	89.3936	-0.00165148
0.0802383	0.151705	0.0412221	0.157206	-15.2016	79331	-0.0011661	-5.75501	4.8118e+07	3.30848e+06	52	37	0.00541423	0.0344403	0	-116.479	3.4	0.133179	0.0903767	0.368523	2.27859e-06	4.16764e-06	1.37228e-06	4.29659e-06	2.36302e-06	8.1589e-07	0.861883	3.44291	1.25971	0.000187962	0.00013171	9.11753e-05	8.41883e-05	5.18518e-05	5.65949e-05	6.13849	1.66798	6.36107	15.2016	3.30848e+09	1.21759e+10	1.26174e+10	-74.7984	0.0000000E+000	0.0000000E+000	0.0000000E+000	74.7984	0.0000000E+000	0.0000000E+000	0.0000000E+000	-74.7984	0.0000000E+000	0.0000000E+000	0.0000000E+000	-15.2016	0.0000000E+000	0.0000000E+000	0.0000000E+000	15.2016	3.6802	74.7984	-0.102559
3.26541	0.112615	0.00573501	0.112761	-2.91533	80502.3	-0.0011414	-5.69883	8.49861e+06	21983.8	53	37	0.00496758	0.0440542	0	-118.263	3.4	0.17261	0.0847573	2.53243	3.13232e-06	3.16706e-06	2.73209e-06	4.08227e-06	3.5192e-06	3.54414e-06	0.130903	0.063935	0.31854	1.09289e-05	3.53544e-05	9.5074e-06	4.14671e-05	8.60111e-06	7.15682e-06	8.85687	0.451045	8.86835	2.91533	2.19838e+07	4.31681e+08	4.3224e+08	-87.0847	0.0000000E+000	0.0000000E+000	0.0000000E+000	87.0847	0.0000000E+000	0.0000000E+000	0.0000000E+000	-87.0847	0.0000000E+000	0.0000000E+000	0.0000000E+000	-2.91533	0.0000000E+000	0.0000000E+000	0.0000000E+000	2.91533	19.6363	87.0847	-0.00355497
132.916	0.106525	0.00228391	0.106549	-1.22825	82017.3	-0.00118191	-5.02672	524279	240.892	54	37	0.00533721	0.0500916	0	-120.598	3.4	0.322215	0.0886886	5.25799	8.05214e-06	3.68094e-06	4.80127e-06	8.46902e-06	6.2689e-06	6.04156e-06	0.0878008	0.0235332	0.434975	5.03299e-06	3.03265e-05	4.08423e-06	2.99025e-05	5.91257e-06	3.30438e-06	9.38319	0.201178	9.38535	1.22825	240892	1.12355e+07	1.12381e+07	-88.7718	0.0000000E+000	0.0000000E+000	0.0000000E+000	88.7718	0.0000000E+000	0.0000000E+000	0.0000000E+000	-88.7718	0.0000000E+000	0.0000000E+000	0.0000000E+000	-1.22825	0.0000000E+000	0.0000000E+000	0.0000000E+000	1.22825	46.6413	88.7718	-0.0014726
5406.63	0.100603	0.00142332	0.100613	-0.81056	83532.2	-0.00119102	-5.99832	20682	4.13893	55	37	0.00517926	0.0514771	0	-122.92	3.4	0.341866	0.151543	5.46548	5.79663e-06	1.18643e-05	5.42992e-06	6.26161e-06	6.18522e-06	3.22472e-06	0.116399	0.0942251	0.425284	1.20333e-05	5.52321e-05	1.20987e-05	1.10449e-05	3.73467e-06	8.6196e-06	9.93808	0.140603	9.93907	0.81056	4138.94	292547	292577	-89.1894	0.0000000E+000	0.0000000E+000	0.0000000E+000	89.1894	0.0000000E+000	0.0000000E+000	0.0000000E+000	-89.1894	0.0000000E+000	0.0000000E+000	0.0000000E+000	-0.81056	0.0000000E+000	0.0000000E+000	0.0000000E+000	0.81056	70.682	89.1894	-0.00228564
220003	0.0953092	-0.0119314	0.0960531	7.13551	85049.1	-0.00104236	-1.10376	-60.632	-0.935535	56	37	0.00338512	0.0352421	0	-125.199	3.4	-1	-1	-1	0	0	0	0	0	0	-1	-1	-1	0	0	0	0	0	0	10.3303	-1.29321	10.4109	-7.13551	-935.535	7473.16	7531.49	-97.1355	0.0000000E+000	0.0000000E+000	0.0000000E+000	97.1355	0.0000000E+000	0.0000000E+000	0.0000000E+000	-97.1355	0.0000000E+000	0.0000000E+000	0.0000000E+000	7.13551	0.0000000E+000	0.0000000E+000	0.0000000E+000	-7.13551	7.98811	82.8645	0.00033876
0.645874	0.119762	0.0146542	0.120655	-6.97607	85147.6	-0.00116144	-5.65622	1.68155e+07	248051	56	37	0.0054297	0.0450017	0	-125.339	3.4	0.142295	0.0777664	0.988077	2.4582e-06	4.39689e-06	1.72079e-06	5.05211e-06	1.6356e-06	8.6718e-07	0.152612	0.602821	0.299011	2.52417e-05	4.04497e-05	5.76197e-06	4.48264e-05	9.84163e-06	1.20054e-05	8.22672	1.00663	8.28807	6.97607	2.48051e+08	2.02721e+09	2.04233e+09	-83.0239	0.0000000E+000	0.0000000E+000	0.0000000E+000	83.0239	0.0000000E+000	0.0000000E+000	0.0000000E+000	-83.0239	0.0000000E+000	0.0000000E+000	0.0000000E+000	-6.97607	0.0000000E+000	0.0000000E+000	0.0000000E+000	6.97607	8.17256	83.0239	-0.0101126
26.2693	0.108125	0.00283273	0.108162	-1.50073	86631.3	-0.00115872	-5.15594	2.13878e+06	1466.98	57	37	0.00512649	0.0473963	0	-127.596	3.4	0.283645	0.148612	5.55357	3.13981e-06	5.11426e-06	7.36275e-06	5.12541e-06	7.45964e-06	5.02254e-06	0.141357	0.0258254	0.453744	4.15668e-05	3.82155e-05	2.91777e-06	2.83306e-05	1.76588e-05	9.46086e-06	9.2422	0.242133	9.24537	1.50073	1.46699e+06	5.59946e+07	5.60139e+07	-88.4993	0.0000000E+000	0.0000000E+000	0.0000000E+000	88.4993	0.0000000E+000	0.0000000E+000	0.0000000E+000	-88.4993	0.0000000E+000	0.0000000E+000	0.0000000E+000	-1.50073	0.0000000E+000	0.0000000E+000	0.0000000E+000	1.50073	38.1699	88.4993	-0.00165583
1068.29	0.102741	0.0024368	0.10277	-1.35868	88147.8	-0.00121856	-4.94881	61137.8	34.373	58	37	0.00512218	0.0498413	0	-129.9	3.4	0.305062	0.146565	5.46272	6.4673e-06	7.86553e-06	8.00098e-06	5.11305e-06	2.62434e-06	4.26323e-06	0.0304925	0.100354	0.440023	3.88882e-06	9.99852e-06	3.62581e-06	7.04737e-06	3.97036e-06	5.25434e-06	9.72774	0.230721	9.73047	1.35868	34373	1.44924e+06	1.44965e+06	-88.6413	0.0000000E+000	0.0000000E+000	0.0000000E+000	88.6413	0.0000000E+000	0.0000000E+000	0.0000000E+000	-88.6413	0.0000000E+000	0.0000000E+000	0.0000000E+000	-1.35868	0.0000000E+000	0.0000000E+000	0.0000000E+000	1.35868	42.1623	88.6413	-0.00178376
43479.1	0.0989527	-0.00246009	0.0989833	1.42415	89663.3	-0.00106499	-5.18453	-1487.95	-0.91911	59	37	0.00519372	0.0524706	0	-132.192	3.4	0.299296	0.133092	5.53419	4.3932e-06	4.66802e-06	5.58513e-06	6.16678e-06	5.09227e-06	8.73859e-06	0.115884	0.0277512	0.406667	7.84181e-06	5.93952e-05	3.2011e-06	7.51809e-06	4.75819e-06	3.5197e-06	10.0996	-0.251089	10.1027	-1.42415	-919.111	36969.5	36980.9	-91.4242	0.0000000E+000	0.0000000E+000	0.0000000E+000	91.4242	0.0000000E+000	0.0000000E+000	0.0000000E+000	-91.4242	0.0000000E+000	0.0000000E+000	0.0000000E+000	1.42415	0.0000000E+000	0.0000000E+000	0.0000000E+000	-1.42415	40.2232	88.5758	-0.00161256
0.127525	0.140079	0.0322495	0.143743	-12.965	89942.1	-0.00116583	-5.0708	3.86992e+07	1.94794e+06	59	37	0.00495294	0.0344569	0	-132.609	3.4	0.10963	0.0650804	0.496477	1.97094e-06	2.33117e-06	1.55883e-06	3.73602e-06	1.23629e-06	8.85015e-07	0.821049	0.809315	0.732085	0.000259778	7.8771e-05	4.57584e-05	3.94517e-05	3.31103e-05	2.79536e-05	6.77951	1.56081	6.95686	12.965	1.94794e+09	8.46104e+09	8.68238e+09	-77.035	0.0000000E+000	0.0000000E+000	0.0000000E+000	77.035	0.0000000E+000	0.0000000E+000	0.0000000E+000	-77.035	0.0000000E+000	0.0000000E+000	0.0000000E+000	-12.965	0.0000000E+000	0.0000000E+000	0.0000000E+000	12.965	4.34358	77.035	-0.069096
5.19276	0.111098	0.00454317	0.11119	-2.34172	91246.1	-0.00115689	-5.54352	6.74625e+06	11262.8	60	37	0.00544214	0.0489443	0	-134.564	3.4	0.201868	0.145018	3.00796	3.36059e-06	6.25708e-06	4.54165e-06	3.31261e-06	3.77345e-06	3.62329e-06	0.161845	0.0785983	0.304494	1.4933e-05	6.41584e-05	8.09176e-06	3.95159e-05	7.16495e-06	8.46817e-06	8.98606	0.367472	8.99357	2.34172	1.12628e+07	2.75418e+08	2.75648e+08	-87.6583	0.0000000E+000	0.0000000E+000	0.0000000E+000	87.6583	0.0000000E+000	0.0000000E+000	0.0000000E+000	-87.6583	0.0000000E+000	0.0000000E+000	0.0000000E+000	-2.34172	0.0000000E+000	0.0000000E+000	0.0000000E+000	2.34172	24.4537	87.6583	-0.00212057
0.0199946	0.207409	0.036226	0.210549	-9.90734	92725.1	-0.00115361	-5.48392	2.19729e+08	6.50464e+06	60	37	0.00539821	0.0256388	0	-136.824	3.4	0.109762	0.0956432	0.224212	1.60138e-06	3.37916e-06	1.42737e-06	3.83603e-06	1.59344e-06	6.21688e-07	3.81741	0.241687	4.58814	6.17373e-05	0.000126732	0.000657647	0.000430499	0.000556646	9.75058e-05	4.67867	0.817176	4.7495	9.90734	6.50464e+09	3.72417e+10	3.78055e+10	-80.0927	0.0000000E+000	0.0000000E+000	0.0000000E+000	80.0927	0.0000000E+000	0.0000000E+000	0.0000000E+000	-80.0927	0.0000000E+000	0.0000000E+000	0.0000000E+000	-9.90734	0.0000000E+000	0.0000000E+000	0.0000000E+000	9.90734	5.72541	80.0927	-0.451566