File: Python/ImpedanceDataOld/dual layer tests _vanadium positive side single-tank symmetric cell_1.6 M total vanadium_ve=5cms_choose the cycle number=3/dual-layer_ELAT-H carbon cloth + Freudenberg H23 carbon paper.mpt
EC-Lab ASCII FILE
Nb header lines : 66

Potentio Electrochemical Impedance Spectroscopy

Run on channel : 1 (SN 5680)
User :
Electrode connection : standard
Potential control : Ewe
Ewe ctrl range : min = 0.00 V, max = 5.00 V
Ewe,I filtering : <None>
Safety Limits :
	Do not start on E overload
Channel : Floating
Acquisition started on : 06/29/2023 23:52:53.281
Loaded Setting File :  C:\Data\baili\Electrode Combination Tests\20230622\new tests\positive\ELATvers_ve5_30mL_EIS_C01.mpr
Saved on :
	File : ELAT_FrePaper_ve5_30mL_EIS_C01.mpr
	Directory : C:\Data\baili\Electrode Combination Tests\20230622\new tests\positive\
	Host : 192.168.0.1
Device : SP-300 (SN 0955)
Address : 192.168.0.4
EC-Lab for windows v11.46 (software)
Internet server v11.40 (firmware)
Command interpretor v11.46 (firmware)
Electrode material :
Initial state :
Electrolyte :
Comments :
Current amplifier : B-10A5V
Cable : standard
Electrode surface area : 0.001 cm2
Characteristic mass : 0.001 g
Equivalent Weight : 0.000 g/eq.
Density : 0.000 g/cm3
Volume (V) : 0.001 cm3
Cycle Definition : Charge/Discharge alternance
Mode                Single sine
E (V)               0.0000
vs.                 Eoc
tE (h:m:s)          0:00:0.0000
record              0
dI                  0.000
unit dI             mA
dt (s)              0.000
fi                  200.000
unit fi             kHz
ff                  50.000
unit ff             mHz
Nd                  12
Points              per decade
spacing             Logarithmic
Va (mV)             10.0
pw                  0.10
Na                  3
corr                0
E range min (V)     0.000
E range max (V)     5.000
I Range             Auto
Bandwidth           8
nc cycles           3
goto Ns'            0
nr cycles           0
inc. cycle          0

freq/Hz	Re(Z)/Ohm	-Im(Z)/Ohm	|Z|/Ohm	Phase(Z)/deg	time/s	<Ewe>/V	<I>/mA	Cs/uF	Cp/uF	cycle number	I Range	|Ewe|/V	|I|/A	Ns	(Q-Qo)/mA.h	Re(Y)/Ohm-1	Im(Y)/Ohm-1	|Y|/Ohm-1	Phase(Y)/deg	Re(C)/nF	Im(C)/nF	|C|/nF	Phase(C)/deg	Re(M)	Im(M)	|M|	Phase(M)/deg	Re(Permittivity)	Im(Permittivity)	|Permittivity|	Phase(Permittivity)/deg	Re(Resistivity)/Ohm.cm	Im(Resistivity)/Ohm.cm	|Resistivity|/Ohm.cm	Phase(Resistivity)/deg	Re(Conductivity)/mS/cm	Im(Conductivity)/mS/cm	|Conductivity|/mS/cm	Phase(Conductivity)/deg	Tan(Delta)	Loss Angle(Delta)/deg	dq/mA.h
199998	0.126075	-0.0238142	0.128305	10.6965	1.94649	0.000282167	-13.8834	-33.4162	-1.15118	1	65	0.00969311	0.0755475	0	-0.00276193	7.65851	-1.44661	7.79394	-10.6965	-1151.18	6094.51	6202.28	-100.697	0.0000000E+000	0.0000000E+000	0.0000000E+000	100.697	0.0000000E+000	0.0000000E+000	0.0000000E+000	-100.697	0.0000000E+000	0.0000000E+000	0.0000000E+000	10.6965	0.0000000E+000	0.0000000E+000	0.0000000E+000	-10.6965	-5.29412	-10.6965	-0.00276193
112288	0.128227	-0.0123015	0.128816	5.4799	3.6745	0.000305953	3.9496	-115.22	-1.05076	1	65	0.0105425	0.0818414	0	-0.000443665	7.72752	-0.74134	7.763	-5.4799	-1050.76	10952.8	11003.1	-95.4799	0.0000000E+000	0.0000000E+000	0.0000000E+000	95.4799	0.0000000E+000	0.0000000E+000	0.0000000E+000	-95.4799	0.0000000E+000	0.0000000E+000	0.0000000E+000	5.4799	0.0000000E+000	0.0000000E+000	0.0000000E+000	-5.4799	-10.4237	-5.4799	0.00142323
63038.2	0.129149	-0.0056237	0.129271	2.49333	5.40248	0.000307705	3.7303	-448.946	-0.849642	1	65	0.0105217	0.0813923	0	0.00284152	7.72836	-0.336526	7.73568	-2.49333	-849.641	19512.1	19530.6	-92.4933	0.0000000E+000	0.0000000E+000	0.0000000E+000	92.4933	0.0000000E+000	0.0000000E+000	0.0000000E+000	-92.4933	0.0000000E+000	0.0000000E+000	0.0000000E+000	2.49333	0.0000000E+000	0.0000000E+000	0.0000000E+000	-2.49333	-22.9651	-2.49333	0.000389295
35388.2	0.130231	-0.0014317	0.130239	0.629858	7.13248	0.000291227	3.6336	-3141.3	-0.379605	1	65	0.0104476	0.0802187	0	0.00450177	7.67773	-0.0844055	7.6782	-0.629858	-379.606	34529.8	34531.9	-90.6299	0.0000000E+000	0.0000000E+000	0.0000000E+000	90.6299	0.0000000E+000	0.0000000E+000	0.0000000E+000	-90.6299	0.0000000E+000	0.0000000E+000	0.0000000E+000	0.629858	0.0000000E+000	0.0000000E+000	0.0000000E+000	-0.629858	-90.9625	-0.629858	0.00116442
19865.3	0.131426	0.00119252	0.131431	-0.519869	8.86048	0.000296651	3.63491	6718.32	0.553085	1	65	0.0103351	0.0786353	0	0.00521525	7.60822	0.0690345	7.60853	0.519869	553.083	60954.9	60957.4	-89.4801	0.0000000E+000	0.0000000E+000	0.0000000E+000	89.4801	0.0000000E+000	0.0000000E+000	0.0000000E+000	-89.4801	0.0000000E+000	0.0000000E+000	0.0000000E+000	-0.519869	0.0000000E+000	0.0000000E+000	0.0000000E+000	0.519869	110.209	0.519869	0.00107082
11152.8	0.132884	0.00283744	0.132914	-1.22324	10.5885	0.000292979	3.53075	5029.34	2.29205	1	65	0.0101799	0.0765899	0	0.00643884	7.52196	0.160615	7.52367	1.22324	2292.06	107342	107366	-88.7768	0.0000000E+000	0.0000000E+000	0.0000000E+000	88.7768	0.0000000E+000	0.0000000E+000	0.0000000E+000	-88.7768	0.0000000E+000	0.0000000E+000	0.0000000E+000	-1.22324	0.0000000E+000	0.0000000E+000	0.0000000E+000	1.22324	46.8321	1.22324	0.000187136
6263.42	0.134562	0.00392761	0.13462	-1.67188	12.4407	0.000205944	3.0003	6469.64	5.50707	1	65	0.0108264	0.0804223	0	0.0076775	7.42518	0.216727	7.42834	1.67188	5507.06	188676	188756	-88.3281	0.0000000E+000	0.0000000E+000	0.0000000E+000	88.3281	0.0000000E+000	0.0000000E+000	0.0000000E+000	-88.3281	0.0000000E+000	0.0000000E+000	0.0000000E+000	-1.67188	0.0000000E+000	0.0000000E+000	0.0000000E+000	1.67188	34.2606	1.67188	0.000635596
3516.12	0.136402	0.00474181	0.136484	-1.991	14.7457	0.000206429	2.82889	9545.8	11.5222	1	65	0.010742	0.0787049	0	0.009498	7.32243	0.254554	7.32686	1.991	11522.2	331445	331645	-88.009	0.0000000E+000	0.0000000E+000	0.0000000E+000	88.009	0.0000000E+000	0.0000000E+000	0.0000000E+000	-88.009	0.0000000E+000	0.0000000E+000	0.0000000E+000	-1.991	0.0000000E+000	0.0000000E+000	0.0000000E+000	1.991	28.7658	1.991	0.000251367
1974.37	0.138236	0.00536324	0.13834	-2.22183	17.0548	0.000200669	2.94795	15030.2	22.5905	1	65	0.0101622	0.0734582	0	0.0111811	7.22314	0.280242	7.22858	2.22183	22590.4	582262	582700	-87.7782	0.0000000E+000	0.0000000E+000	0.0000000E+000	87.7782	0.0000000E+000	0.0000000E+000	0.0000000E+000	-87.7782	0.0000000E+000	0.0000000E+000	0.0000000E+000	-2.22183	0.0000000E+000	0.0000000E+000	0.0000000E+000	2.22183	25.7747	2.22183	0.000357221
1108.23	0.140591	0.00558704	0.140702	-2.27572	19.1311	0.000196586	2.74113	25704.5	40.5298	1	65	0.0102624	0.0729372	0	0.0130044	7.10164	0.282217	7.10724	2.27572	40529.8	1.01988e+06	1.02068e+06	-87.7243	0.0000000E+000	0.0000000E+000	0.0000000E+000	87.7243	0.0000000E+000	0.0000000E+000	0.0000000E+000	-87.7243	0.0000000E+000	0.0000000E+000	0.0000000E+000	-2.27572	0.0000000E+000	0.0000000E+000	0.0000000E+000	2.27572	25.1637	2.27572	0.000457741
622.19	0.142607	0.00575893	0.142724	-2.31253	21.204	0.000216607	2.85311	44417.6	72.3181	1	65	0.0102818	0.0720396	0	0.014315	7.00084	0.282716	7.00655	2.31253	72318	1.7908e+06	1.79226e+06	-87.6875	0.0000000E+000	0.0000000E+000	0.0000000E+000	87.6875	0.0000000E+000	0.0000000E+000	0.0000000E+000	-87.6875	0.0000000E+000	0.0000000E+000	0.0000000E+000	-2.31253	0.0000000E+000	0.0000000E+000	0.0000000E+000	2.31253	24.7628	2.31253	0.000848974
349.218	0.144812	0.00575426	0.144926	-2.27551	23.2832	0.000212002	2.85609	79201.7	124.859	1	65	0.0102798	0.0709312	0	0.0158712	6.89463	0.273966	6.90007	2.27551	124859	3.14221e+06	3.14469e+06	-87.7245	0.0000000E+000	0.0000000E+000	0.0000000E+000	87.7245	0.0000000E+000	0.0000000E+000	0.0000000E+000	-87.7245	0.0000000E+000	0.0000000E+000	0.0000000E+000	-2.27551	0.0000000E+000	0.0000000E+000	0.0000000E+000	2.27551	25.166	2.27551	0.00023077
196.066	0.146892	0.00565686	0.147001	-2.20539	25.3637	0.000212916	2.94608	143496	212.497	1	65	0.0102765	0.0699077	0	0.017365	6.79764	0.261779	6.80268	2.20539	212497	5.51791e+06	5.522e+06	-87.7946	0.0000000E+000	0.0000000E+000	0.0000000E+000	87.7946	0.0000000E+000	0.0000000E+000	0.0000000E+000	-87.7946	0.0000000E+000	0.0000000E+000	0.0000000E+000	-2.20539	0.0000000E+000	0.0000000E+000	0.0000000E+000	2.20539	25.967	2.20539	0.000552907
110.105	0.148716	0.00555517	0.14882	-2.13924	27.4376	0.000223075	2.90807	260204	362.565	1	65	0.0102723	0.0690251	0	0.0192133	6.71485	0.250827	6.71953	2.13924	362565	9.70616e+06	9.71293e+06	-87.8608	0.0000000E+000	0.0000000E+000	0.0000000E+000	87.8608	0.0000000E+000	0.0000000E+000	0.0000000E+000	-87.8608	0.0000000E+000	0.0000000E+000	0.0000000E+000	-2.13924	0.0000000E+000	0.0000000E+000	0.0000000E+000	2.13924	26.7708	2.13924	0.000757157
61.7996	0.150828	0.00556621	0.150931	-2.1135	29.4889	0.000224772	3.00906	462674	629.269	1	65	0.0102735	0.0680672	0	0.0209397	6.62103	0.244344	6.62554	2.1135	629268	1.70514e+07	1.7063e+07	-87.8865	0.0000000E+000	0.0000000E+000	0.0000000E+000	87.8865	0.0000000E+000	0.0000000E+000	0.0000000E+000	-87.8865	0.0000000E+000	0.0000000E+000	0.0000000E+000	-2.1135	0.0000000E+000	0.0000000E+000	0.0000000E+000	2.1135	27.0972	2.1135	0.000485273
34.7002	0.153047	0.00560722	0.15315	-2.09822	31.5285	0.00021355	2.81081	817977	1096.49	1	65	0.0102735	0.0670815	0	0.0223644	6.52518	0.239064	6.52956	2.09822	1.09649e+06	2.99282e+07	2.99483e+07	-87.9018	0.0000000E+000	0.0000000E+000	0.0000000E+000	87.9018	0.0000000E+000	0.0000000E+000	0.0000000E+000	-87.9018	0.0000000E+000	0.0000000E+000	0.0000000E+000	-2.09822	0.0000000E+000	0.0000000E+000	0.0000000E+000	2.09822	27.2947	2.09822	0.000174702
19.4825	0.158831	0.00511942	0.158913	-1.84612	33.9511	0.000222982	4.22362	1.59571e+06	1656.06	1	37	0.0102764	0.0646671	0	0.0236769	6.28948	0.202722	6.29275	1.84612	1.65606e+06	5.13795e+07	5.14062e+07	-88.1539	0.0000000E+000	0.0000000E+000	0.0000000E+000	88.1539	0.0000000E+000	0.0000000E+000	0.0000000E+000	-88.1539	0.0000000E+000	0.0000000E+000	0.0000000E+000	-1.84612	0.0000000E+000	0.0000000E+000	0.0000000E+000	1.84612	31.0251	1.84612	0.000426078
10.9418	0.160632	0.00439347	0.160692	-1.56672	36.0125	0.000207901	2.41939	3.31071e+06	2474.85	1	37	0.0102735	0.0639327	0	0.0253753	6.22076	0.170145	6.22308	1.56672	2.47485e+06	9.04842e+07	9.0518e+07	-88.4333	0.0000000E+000	0.0000000E+000	0.0000000E+000	88.4333	0.0000000E+000	0.0000000E+000	0.0000000E+000	-88.4333	0.0000000E+000	0.0000000E+000	0.0000000E+000	-1.56672	0.0000000E+000	0.0000000E+000	0.0000000E+000	1.56672	36.5615	1.56672	0.000518153
6.1419	0.161898	0.00363633	0.161939	-1.28669	37.8485	0.000215432	2.41888	7.12613e+06	3593.19	1	37	0.0102743	0.0634458	0	0.0264906	6.17363	0.138664	6.17518	1.28669	3.59318e+06	1.59977e+08	1.60017e+08	-88.7133	0.0000000E+000	0.0000000E+000	0.0000000E+000	88.7133	0.0000000E+000	0.0000000E+000	0.0000000E+000	-88.7133	0.0000000E+000	0.0000000E+000	0.0000000E+000	-1.28669	0.0000000E+000	0.0000000E+000	0.0000000E+000	1.28669	44.5223	1.28669	0.000404905
3.4477	0.162856	0.003145	0.162886	-1.10634	40.3098	0.000209411	2.40729	1.46781e+07	5471.97	1	37	0.0102758	0.063086	0	0.0273904	6.13812	0.118537	6.13927	1.10634	5.47199e+06	2.83352e+08	2.83404e+08	-88.8937	0.0000000E+000	0.0000000E+000	0.0000000E+000	88.8937	0.0000000E+000	0.0000000E+000	0.0000000E+000	-88.8937	0.0000000E+000	0.0000000E+000	0.0000000E+000	-1.10634	0.0000000E+000	0.0000000E+000	0.0000000E+000	1.10634	51.7823	1.10634	-0.000540351
1.93571	0.163518	0.00315713	0.163549	-1.1061	44.5145	0.000219319	2.41613	2.60429e+07	9704.61	1	37	0.0102752	0.0628264	0	0.0308323	6.11324	0.118031	6.11438	1.1061	9.70463e+06	5.02635e+08	5.02729e+08	-88.8939	0.0000000E+000	0.0000000E+000	0.0000000E+000	88.8939	0.0000000E+000	0.0000000E+000	0.0000000E+000	-88.8939	0.0000000E+000	0.0000000E+000	0.0000000E+000	-1.1061	0.0000000E+000	0.0000000E+000	0.0000000E+000	1.1061	51.7934	1.1061	-0.000221173
1.08628	0.164267	0.00351931	0.164304	-1.22734	51.8487	0.000221001	2.42441	4.16314e+07	19100.2	1	37	0.0102737	0.0625283	0	0.037303	6.08487	0.130364	6.08627	1.22734	1.91002e+07	8.91517e+08	8.91722e+08	-88.7727	0.0000000E+000	0.0000000E+000	0.0000000E+000	88.7727	0.0000000E+000	0.0000000E+000	0.0000000E+000	-88.7727	0.0000000E+000	0.0000000E+000	0.0000000E+000	-1.22734	0.0000000E+000	0.0000000E+000	0.0000000E+000	1.22734	46.6758	1.22734	0.00438779
0.609875	0.165585	0.004097	0.165636	-1.41736	64.7592	0.000228158	2.40977	6.36962e+07	38970.7	1	37	0.0102743	0.0620294	0	0.0437955	6.0355	0.149334	6.03735	1.41736	3.89707e+07	1.57504e+09	1.57553e+09	-88.5826	0.0000000E+000	0.0000000E+000	0.0000000E+000	88.5826	0.0000000E+000	0.0000000E+000	0.0000000E+000	-88.5826	0.0000000E+000	0.0000000E+000	0.0000000E+000	-1.41736	0.0000000E+000	0.0000000E+000	0.0000000E+000	1.41736	40.4161	1.41736	0.000189288
0.342428	0.167284	0.00400456	0.167332	-1.37132	87.6186	0.000231609	2.44277	1.16064e+08	66473.2	1	37	0.0102743	0.0614006	0	0.0576062	5.97443	0.14302	5.97614	1.37132	6.64733e+07	2.77682e+09	2.77761e+09	-88.6287	0.0000000E+000	0.0000000E+000	0.0000000E+000	88.6287	0.0000000E+000	0.0000000E+000	0.0000000E+000	-88.6287	0.0000000E+000	0.0000000E+000	0.0000000E+000	-1.37132	0.0000000E+000	0.0000000E+000	0.0000000E+000	1.37132	41.7734	1.37132	0.0094067
0.192388	0.168353	0.00314682	0.168382	-1.07084	128.193	0.000245735	2.55712	2.62887e+08	91816.6	1	37	0.0102732	0.0610114	0	0.101473	5.93783	0.110989	5.93887	1.07084	9.18167e+07	4.91213e+09	4.91299e+09	-88.9292	0.0000000E+000	0.0000000E+000	0.0000000E+000	88.9292	0.0000000E+000	0.0000000E+000	0.0000000E+000	-88.9292	0.0000000E+000	0.0000000E+000	0.0000000E+000	-1.07084	0.0000000E+000	0.0000000E+000	0.0000000E+000	1.07084	53.4993	1.07084	0.0136331
0.108004	0.168581	0.00234226	0.168598	-0.796014	200.35	0.000240873	2.5644	6.29135e+08	121426	1	37	0.0102719	0.0609254	0	0.120036	5.93071	0.082401	5.93128	0.796014	1.21426e+08	8.73948e+09	8.74032e+09	-89.204	0.0000000E+000	0.0000000E+000	0.0000000E+000	89.204	0.0000000E+000	0.0000000E+000	0.0000000E+000	-89.204	0.0000000E+000	0.0000000E+000	0.0000000E+000	-0.796014	0.0000000E+000	0.0000000E+000	0.0000000E+000	0.796014	71.9738	0.796014	0.00524867
0.0606438	0.168129	0.00156193	0.168136	-0.532266	328.72	0.000221194	2.4569	1.68025e+09	145002	1	37	0.0102734	0.0611016	0	0.22125	5.94732	0.055251	5.94757	0.532266	1.45002e+08	1.56083e+10	1.5609e+10	-89.4677	0.0000000E+000	0.0000000E+000	0.0000000E+000	89.4677	0.0000000E+000	0.0000000E+000	0.0000000E+000	-89.4677	0.0000000E+000	0.0000000E+000	0.0000000E+000	-0.532266	0.0000000E+000	0.0000000E+000	0.0000000E+000	0.532266	107.642	0.532266	0.0551921
164990	0.123214	-0.0189016	0.124656	8.72144	392.446	0.000335984	3.35897	-51.0343	-1.17337	2	65	0.0104316	0.0836836	0	0.29567	7.92934	-1.2164	8.02209	-8.72144	-1173.37	7648.89	7738.37	-98.7214	0.0000000E+000	0.0000000E+000	0.0000000E+000	98.7214	0.0000000E+000	0.0000000E+000	0.0000000E+000	-98.7214	0.0000000E+000	0.0000000E+000	0.0000000E+000	8.72144	0.0000000E+000	0.0000000E+000	0.0000000E+000	-8.72144	-6.51871	-8.72144	-0.000110619
92627.3	0.124812	-0.00949005	0.125172	4.34811	394.174	0.000334548	3.32096	-181.056	-1.04072	2	65	0.0105614	0.0843746	0	0.296853	7.966	-0.605693	7.98899	-4.34811	-1040.72	13687.4	13726.9	-94.3481	0.0000000E+000	0.0000000E+000	0.0000000E+000	94.3481	0.0000000E+000	0.0000000E+000	0.0000000E+000	-94.3481	0.0000000E+000	0.0000000E+000	0.0000000E+000	4.34811	0.0000000E+000	0.0000000E+000	0.0000000E+000	-4.34811	-13.1519	-4.34811	0.000254578
52006	0.125757	-0.004037	0.125821	1.83866	395.901	0.000334642	3.11489	-758.068	-0.780397	2	65	0.0105682	0.0839938	0	0.299188	7.94368	-0.255005	7.94777	-1.83866	-780.395	24310.2	24322.7	-91.8387	0.0000000E+000	0.0000000E+000	0.0000000E+000	91.8387	0.0000000E+000	0.0000000E+000	0.0000000E+000	-91.8387	0.0000000E+000	0.0000000E+000	0.0000000E+000	1.83866	0.0000000E+000	0.0000000E+000	0.0000000E+000	-1.83866	-31.1511	-1.83866	0.00149502
29199.5	0.126819	-0.000501618	0.12682	0.226626	397.63	0.000325955	3.20469	-10866.1	-0.169998	2	65	0.0105415	0.0831216	0	0.301169	7.88513	-0.0311887	7.88519	-0.226626	-169.996	42978.8	42979.1	-90.2266	0.0000000E+000	0.0000000E+000	0.0000000E+000	90.2266	0.0000000E+000	0.0000000E+000	0.0000000E+000	-90.2266	0.0000000E+000	0.0000000E+000	0.0000000E+000	0.226626	0.0000000E+000	0.0000000E+000	0.0000000E+000	-0.226626	-252.82	-0.226626	0.000672516
16395.1	0.128007	0.00174605	0.128019	-0.781484	399.358	0.00032849	3.19463	5559.66	1.03423	2	65	0.0103392	0.0807629	0	0.301967	7.81063	0.10654	7.81136	0.781484	1034.23	75821.4	75828.5	-89.2185	0.0000000E+000	0.0000000E+000	0.0000000E+000	89.2185	0.0000000E+000	0.0000000E+000	0.0000000E+000	-89.2185	0.0000000E+000	0.0000000E+000	0.0000000E+000	-0.781484	0.0000000E+000	0.0000000E+000	0.0000000E+000	0.781484	73.3121	0.781484	-0.000260528
9201.19	0.129619	0.00314596	0.129657	-1.39035	400.952	0.000235061	2.57419	5498.23	3.23696	2	65	0.0102511	0.0790635	0	0.302667	7.71039	0.187138	7.71266	1.39035	3236.96	133368	133407	-88.6097	0.0000000E+000	0.0000000E+000	0.0000000E+000	88.6097	0.0000000E+000	0.0000000E+000	0.0000000E+000	-88.6097	0.0000000E+000	0.0000000E+000	0.0000000E+000	-1.39035	0.0000000E+000	0.0000000E+000	0.0000000E+000	1.39035	41.2016	1.39035	0.000177676
5166.41	0.131427	0.00421447	0.131495	-1.83667	402.734	0.000233477	2.52575	7309.51	7.50858	2	65	0.0102888	0.078245	0	0.303721	7.60096	0.24374	7.60487	1.83667	7508.57	234153	234273	-88.1633	0.0000000E+000	0.0000000E+000	0.0000000E+000	88.1633	0.0000000E+000	0.0000000E+000	0.0000000E+000	-88.1633	0.0000000E+000	0.0000000E+000	0.0000000E+000	-1.83667	0.0000000E+000	0.0000000E+000	0.0000000E+000	1.83667	31.1847	1.83667	0.000357603
2900.93	0.133302	0.00477071	0.133387	-2.04967	404.809	0.000232601	2.69996	11500.1	14.7108	2	65	0.0101682	0.0762304	0	0.305755	7.49216	0.268135	7.49696	2.04967	14710.8	411046	411309	-87.9503	0.0000000E+000	0.0000000E+000	0.0000000E+000	87.9503	0.0000000E+000	0.0000000E+000	0.0000000E+000	-87.9503	0.0000000E+000	0.0000000E+000	0.0000000E+000	-2.04967	0.0000000E+000	0.0000000E+000	0.0000000E+000	2.04967	27.9418	2.04967	0.00087472
1628.44	0.135326	0.00526408	0.135429	-2.22763	406.885	0.000229022	2.63195	18566.4	28.0511	2	65	0.0101218	0.0747391	0	0.30682	7.37838	0.287013	7.38396	2.22763	28051.1	721124	721670	-87.7724	0.0000000E+000	0.0000000E+000	0.0000000E+000	87.7724	0.0000000E+000	0.0000000E+000	0.0000000E+000	-87.7724	0.0000000E+000	0.0000000E+000	0.0000000E+000	-2.22763	0.0000000E+000	0.0000000E+000	0.0000000E+000	2.22763	25.7075	2.22763	0.000310239
914.119	0.137556	0.00554972	0.137668	-2.31035	408.961	0.000231203	2.85702	31372.3	50.9825	2	65	0.0101035	0.0733899	0	0.30847	7.25793	0.292822	7.26384	2.31035	50982.5	1.26366e+06	1.26469e+06	-87.6897	0.0000000E+000	0.0000000E+000	0.0000000E+000	87.6897	0.0000000E+000	0.0000000E+000	0.0000000E+000	-87.6897	0.0000000E+000	0.0000000E+000	0.0000000E+000	-2.31035	0.0000000E+000	0.0000000E+000	0.0000000E+000	2.31035	24.7862	2.31035	0.000912052
513.194	0.139713	0.00567981	0.139828	-2.328	411.036	0.000221416	2.93267	54601.5	90.0917	2	65	0.0100932	0.0721831	0	0.309989	7.14575	0.2905	7.15165	2.328	90091.7	2.21608e+06	2.21791e+06	-87.672	0.0000000E+000	0.0000000E+000	0.0000000E+000	87.672	0.0000000E+000	0.0000000E+000	0.0000000E+000	-87.672	0.0000000E+000	0.0000000E+000	0.0000000E+000	-2.328	0.0000000E+000	0.0000000E+000	0.0000000E+000	2.328	24.5981	2.328	0.000419124
288.247	0.141658	0.0055055	0.141765	-2.22566	413.117	0.000222162	3.05787	100290	151.256	2	65	0.0100774	0.071085	0	0.310986	7.04859	0.273941	7.05391	2.22566	151256	3.89186e+06	3.8948e+06	-87.7743	0.0000000E+000	0.0000000E+000	0.0000000E+000	87.7743	0.0000000E+000	0.0000000E+000	0.0000000E+000	-87.7743	0.0000000E+000	0.0000000E+000	0.0000000E+000	-2.22566	0.0000000E+000	0.0000000E+000	0.0000000E+000	2.22566	25.7303	2.22566	0.000397649
161.812	0.143636	0.00555512	0.143743	-2.21482	415.188	0.000220876	3.03514	177058	264.441	2	65	0.0100801	0.0701258	0	0.313178	6.95167	0.268856	6.95687	2.21482	264441	6.8375e+06	6.84261e+06	-87.7852	0.0000000E+000	0.0000000E+000	0.0000000E+000	87.7852	0.0000000E+000	0.0000000E+000	0.0000000E+000	-87.7852	0.0000000E+000	0.0000000E+000	0.0000000E+000	-2.21482	0.0000000E+000	0.0000000E+000	0.0000000E+000	2.21482	25.8564	2.21482	0.000791849
90.8427	0.145596	0.00545833	0.145698	-2.14699	417.263	0.000225554	2.95391	320974	450.486	2	65	0.0100797	0.0691818	0	0.31538	6.85868	0.257129	6.86349	2.14699	450485	1.20163e+07	1.20247e+07	-87.853	0.0000000E+000	0.0000000E+000	0.0000000E+000	87.853	0.0000000E+000	0.0000000E+000	0.0000000E+000	-87.853	0.0000000E+000	0.0000000E+000	0.0000000E+000	-2.14699	0.0000000E+000	0.0000000E+000	0.0000000E+000	2.14699	26.6741	2.14699	0.000682068
50.9954	0.147881	0.0055577	0.147986	-2.15229	419.309	0.000224697	2.73014	561557	792.035	2	65	0.0100829	0.0681346	0	0.316461	6.75264	0.253779	6.75741	2.15229	792034	2.10748e+07	2.10896e+07	-87.8477	0.0000000E+000	0.0000000E+000	0.0000000E+000	87.8477	0.0000000E+000	0.0000000E+000	0.0000000E+000	-87.8477	0.0000000E+000	0.0000000E+000	0.0000000E+000	-2.15229	0.0000000E+000	0.0000000E+000	0.0000000E+000	2.15229	26.6084	2.15229	0.000579238
28.6347	0.150153	0.00536654	0.150249	-2.04691	421.387	0.000220615	2.68281	1.0357e+06	1321.29	2	65	0.010079	0.0670817	0	0.318431	6.65137	0.237723	6.65562	2.04691	1.32129e+06	3.69691e+07	3.69927e+07	-87.9531	0.0000000E+000	0.0000000E+000	0.0000000E+000	87.9531	0.0000000E+000	0.0000000E+000	0.0000000E+000	-87.9531	0.0000000E+000	0.0000000E+000	0.0000000E+000	-2.04691	0.0000000E+000	0.0000000E+000	0.0000000E+000	2.04691	27.9795	2.04691	0.000793842
16.0751	0.15564	0.00480045	0.155714	-1.76663	423.74	0.00022863	2.46435	2.06246e+06	1960.17	2	37	0.0100775	0.0647181	0	0.31955	6.41898	0.197983	6.42203	1.76663	1.96017e+06	6.35526e+07	6.35828e+07	-88.2334	0.0000000E+000	0.0000000E+000	0.0000000E+000	88.2334	0.0000000E+000	0.0000000E+000	0.0000000E+000	-88.2334	0.0000000E+000	0.0000000E+000	0.0000000E+000	-1.76663	0.0000000E+000	0.0000000E+000	0.0000000E+000	1.76663	32.4219	1.76663	0.000584886
9.02139	0.157352	0.00401794	0.157403	-1.46272	425.909	0.00022369	2.4616	4.3908e+06	2861.05	2	37	0.0100823	0.0640542	0	0.321206	6.35105	0.162173	6.35312	1.46272	2.86104e+06	1.12045e+08	1.12082e+08	-88.5373	0.0000000E+000	0.0000000E+000	0.0000000E+000	88.5373	0.0000000E+000	0.0000000E+000	0.0000000E+000	-88.5373	0.0000000E+000	0.0000000E+000	0.0000000E+000	-1.46272	0.0000000E+000	0.0000000E+000	0.0000000E+000	1.46272	39.1623	1.46272	0.000768053
5.06647	0.158548	0.00328252	0.158582	-1.18606	427.671	0.000225629	2.45081	9.56991e+06	4100.29	2	37	0.0100851	0.0635954	0	0.322638	6.30454	0.130527	6.30589	1.18606	4.10028e+06	1.98047e+08	1.98089e+08	-88.8139	0.0000000E+000	0.0000000E+000	0.0000000E+000	88.8139	0.0000000E+000	0.0000000E+000	0.0000000E+000	-88.8139	0.0000000E+000	0.0000000E+000	0.0000000E+000	-1.18606	0.0000000E+000	0.0000000E+000	0.0000000E+000	1.18606	48.3007	1.18606	0.00120713
2.84298	0.159349	0.00296593	0.159376	-1.06631	430.603	0.000222603	2.40132	1.8875e+07	6536.73	2	37	0.0100822	0.0632606	0	0.325052	6.27338	0.116765	6.27446	1.06631	6.53674e+06	3.51195e+08	3.51256e+08	-88.9337	0.0000000E+000	0.0000000E+000	0.0000000E+000	88.9337	0.0000000E+000	0.0000000E+000	0.0000000E+000	-88.9337	0.0000000E+000	0.0000000E+000	0.0000000E+000	-1.06631	0.0000000E+000	0.0000000E+000	0.0000000E+000	1.06631	53.7264	1.06631	0.00220434
1.59602	0.16013	0.00307551	0.16016	-1.10031	435.657	0.000238961	2.49522	3.24239e+07	11956.2	2	37	0.0100815	0.0629465	0	0.326266	6.24262	0.119898	6.24377	1.10031	1.19562e+07	6.22514e+08	6.22629e+08	-88.8997	0.0000000E+000	0.0000000E+000	0.0000000E+000	88.8997	0.0000000E+000	0.0000000E+000	0.0000000E+000	-88.8997	0.0000000E+000	0.0000000E+000	0.0000000E+000	-1.10031	0.0000000E+000	0.0000000E+000	0.0000000E+000	1.10031	52.0662	1.10031	0.00107236
0.896961	0.161182	0.00372421	0.161225	-1.32362	444.503	0.000229654	2.44218	4.76444e+07	25422.5	2	37	0.0100826	0.0625373	0	0.336074	6.20086	0.143275	6.20252	1.32362	2.54225e+07	1.10027e+09	1.10056e+09	-88.6764	0.0000000E+000	0.0000000E+000	0.0000000E+000	88.6764	0.0000000E+000	0.0000000E+000	0.0000000E+000	-88.6764	0.0000000E+000	0.0000000E+000	0.0000000E+000	-1.32362	0.0000000E+000	0.0000000E+000	0.0000000E+000	1.32362	43.2794	1.32362	0.00222796
0.503513	0.162927	0.0041297	0.162979	-1.45196	460.116	0.0002262	2.45803	7.65405e+07	49143.3	2	37	0.0100842	0.0618745	0	0.339196	6.13379	0.155473	6.13576	1.45196	4.91434e+07	1.93882e+09	1.93945e+09	-88.548	0.0000000E+000	0.0000000E+000	0.0000000E+000	88.548	0.0000000E+000	0.0000000E+000	0.0000000E+000	-88.548	0.0000000E+000	0.0000000E+000	0.0000000E+000	-1.45196	0.0000000E+000	0.0000000E+000	0.0000000E+000	1.45196	39.4524	1.45196	0.00284502
0.28257	0.164807	0.00378762	0.16485	-1.31655	487.792	0.000224255	2.42302	1.48706e+08	78502.2	2	37	0.0100791	0.061141	0	0.372186	6.06452	0.139376	6.06612	1.31655	7.85022e+07	3.41578e+09	3.41668e+09	-88.6834	0.0000000E+000	0.0000000E+000	0.0000000E+000	88.6834	0.0000000E+000	0.0000000E+000	0.0000000E+000	-88.6834	0.0000000E+000	0.0000000E+000	0.0000000E+000	-1.31655	0.0000000E+000	0.0000000E+000	0.0000000E+000	1.31655	43.5119	1.31655	0.0131472
0.158655	0.165988	0.00287643	0.166013	-0.992786	536.941	0.000237104	2.46751	3.48749e+08	104697	2	37	0.0100793	0.0607138	0	0.391834	6.02271	0.104368	6.02361	0.992786	1.04697e+08	6.04169e+09	6.0426e+09	-89.0072	0.0000000E+000	0.0000000E+000	0.0000000E+000	89.0072	0.0000000E+000	0.0000000E+000	0.0000000E+000	-89.0072	0.0000000E+000	0.0000000E+000	0.0000000E+000	-0.992786	0.0000000E+000	0.0000000E+000	0.0000000E+000	0.992786	57.7063	0.992786	0.00253459
0.0891104	0.16656	0.00202485	0.166573	-0.696502	624.359	0.000233618	2.44093	8.82061e+08	130340	2	37	0.010083	0.0605322	0	0.436697	6.00294	0.0729768	6.00338	0.696502	1.3034e+08	1.07215e+10	1.07223e+10	-89.3035	0.0000000E+000	0.0000000E+000	0.0000000E+000	89.3035	0.0000000E+000	0.0000000E+000	0.0000000E+000	-89.3035	0.0000000E+000	0.0000000E+000	0.0000000E+000	-0.696502	0.0000000E+000	0.0000000E+000	0.0000000E+000	0.696502	82.2581	0.696502	0.0281016
0.049976	0.166148	0.00155333	0.166155	-0.535647	779.991	0.000239521	2.47477	2.05019e+09	179182	2	37	0.0100845	0.0606931	0	0.614274	6.01821	0.0562647	6.01847	0.535647	1.79181e+08	1.91657e+10	1.91666e+10	-89.4644	0.0000000E+000	0.0000000E+000	0.0000000E+000	89.4644	0.0000000E+000	0.0000000E+000	0.0000000E+000	-89.4644	0.0000000E+000	0.0000000E+000	0.0000000E+000	-0.535647	0.0000000E+000	0.0000000E+000	0.0000000E+000	0.535647	106.962	0.535647	0.0687482
136106	0.122556	-0.0150707	0.123479	7.01047	782.317	0.000339358	3.33568	-77.5906	-1.15582	3	65	0.0105513	0.0854502	0	0.612455	8.03802	-0.988436	8.09856	-7.01047	-1155.82	9399.19	9469.99	-97.0105	0.0000000E+000	0.0000000E+000	0.0000000E+000	97.0105	0.0000000E+000	0.0000000E+000	0.0000000E+000	-97.0105	0.0000000E+000	0.0000000E+000	0.0000000E+000	7.01047	0.0000000E+000	0.0000000E+000	0.0000000E+000	-7.01047	-8.13206	-7.01047	0.000382785
76417.8	0.1238	-0.00733481	0.124018	3.39064	784.046	0.000338649	3.33419	-283.947	-0.993227	3	65	0.0105701	0.0852307	0	0.613439	8.04926	-0.476895	8.06338	-3.39064	-993.227	16764.2	16793.6	-93.3906	0.0000000E+000	0.0000000E+000	0.0000000E+000	93.3906	0.0000000E+000	0.0000000E+000	0.0000000E+000	-93.3906	0.0000000E+000	0.0000000E+000	0.0000000E+000	3.39064	0.0000000E+000	0.0000000E+000	0.0000000E+000	-3.39064	-16.8785	-3.39064	0.000292909
42903.8	0.124653	-0.00257024	0.12468	1.18122	785.774	0.000338873	3.28779	-1443.28	-0.613347	3	65	0.0105652	0.0847389	0	0.615809	8.01885	-0.165342	8.02055	-1.18122	-613.347	29746.5	29752.9	-91.1812	0.0000000E+000	0.0000000E+000	0.0000000E+000	91.1812	0.0000000E+000	0.0000000E+000	0.0000000E+000	-91.1812	0.0000000E+000	0.0000000E+000	0.0000000E+000	1.18122	0.0000000E+000	0.0000000E+000	0.0000000E+000	-1.18122	-48.4987	-1.18122	0.00023171
24087	0.125802	0.000468764	0.125803	-0.213494	787.503	0.000332256	3.35505	14095.6	0.195708	3	65	0.0105126	0.0835636	0	0.617319	7.94886	0.029619	7.94892	0.213494	195.707	52522.1	52522.5	-89.7865	0.0000000E+000	0.0000000E+000	0.0000000E+000	89.7865	0.0000000E+000	0.0000000E+000	0.0000000E+000	-89.7865	0.0000000E+000	0.0000000E+000	0.0000000E+000	-0.213494	0.0000000E+000	0.0000000E+000	0.0000000E+000	0.213494	268.37	0.213494	0.000883017
13518.8	0.127105	0.00224974	0.127125	-1.01402	789.231	0.000338277	3.46927	5233	1.6389	3	65	0.0101901	0.0801578	0	0.619249	7.86505	0.13921	7.86628	1.01402	1638.91	92594.2	92608.7	-88.986	0.0000000E+000	0.0000000E+000	0.0000000E+000	88.986	0.0000000E+000	0.0000000E+000	0.0000000E+000	-88.986	0.0000000E+000	0.0000000E+000	0.0000000E+000	-1.01402	0.0000000E+000	0.0000000E+000	0.0000000E+000	1.01402	56.4977	1.01402	-0.000259179
7590.76	0.128821	0.00346637	0.128868	-1.54137	790.753	0.0002381	2.81249	6048.68	4.37644	3	65	0.0103859	0.0805933	0	0.620647	7.75709	0.208731	7.7599	1.54137	4376.45	162642	162701	-88.4586	0.0000000E+000	0.0000000E+000	0.0000000E+000	88.4586	0.0000000E+000	0.0000000E+000	0.0000000E+000	-88.4586	0.0000000E+000	0.0000000E+000	0.0000000E+000	-1.54137	0.0000000E+000	0.0000000E+000	0.0000000E+000	1.54137	37.1631	1.54137	2.21506e-05
4261.37	0.130631	0.00430297	0.130701	-1.88664	792.72	0.00023508	2.80429	8679.67	9.40759	3	65	0.0103423	0.079129	0	0.622074	7.64687	0.251888	7.65102	1.88664	9407.57	285598	285753	-88.1134	0.0000000E+000	0.0000000E+000	0.0000000E+000	88.1134	0.0000000E+000	0.0000000E+000	0.0000000E+000	-88.1134	0.0000000E+000	0.0000000E+000	0.0000000E+000	-1.88664	0.0000000E+000	0.0000000E+000	0.0000000E+000	1.88664	30.3583	1.88664	0.00051518
2392.7	0.132577	0.00498735	0.132671	-2.15436	794.796	0.000236329	2.85348	13337.1	18.8473	3	65	0.0102571	0.0773121	0	0.623827	7.53212	0.283347	7.53744	2.15436	18847.3	501012	501367	-87.8456	0.0000000E+000	0.0000000E+000	0.0000000E+000	87.8456	0.0000000E+000	0.0000000E+000	0.0000000E+000	-87.8456	0.0000000E+000	0.0000000E+000	0.0000000E+000	-2.15436	0.0000000E+000	0.0000000E+000	0.0000000E+000	2.15436	26.5827	2.15436	0.000340243
1343.71	0.134633	0.00540986	0.134741	-2.30104	796.872	0.000232247	2.99732	21894.1	35.2938	3	65	0.0102263	0.0758956	0	0.625365	7.41565	0.297978	7.42163	2.30104	35293.8	878341	879050	-87.699	0.0000000E+000	0.0000000E+000	0.0000000E+000	87.699	0.0000000E+000	0.0000000E+000	0.0000000E+000	-87.699	0.0000000E+000	0.0000000E+000	0.0000000E+000	-2.30104	0.0000000E+000	0.0000000E+000	0.0000000E+000	2.30104	24.8865	2.30104	0.000598185
754.274	0.136793	0.00548635	0.136903	-2.29674	798.948	0.000243804	2.84361	38459.8	61.7662	3	65	0.0102166	0.0746269	0	0.627553	7.29859	0.292725	7.30446	2.29674	61766.3	1.54003e+06	1.54127e+06	-87.7033	0.0000000E+000	0.0000000E+000	0.0000000E+000	87.7033	0.0000000E+000	0.0000000E+000	0.0000000E+000	-87.7033	0.0000000E+000	0.0000000E+000	0.0000000E+000	-2.29674	0.0000000E+000	0.0000000E+000	0.0000000E+000	2.29674	24.9333	2.29674	0.000817711
423.509	0.138884	0.0056399	0.138998	-2.32543	801.025	0.000238547	2.97925	66632.5	109.701	3	65	0.0102032	0.0734049	0	0.628604	7.18841	0.291912	7.19433	2.32543	109701	2.70141e+06	2.70363e+06	-87.6746	0.0000000E+000	0.0000000E+000	0.0000000E+000	87.6746	0.0000000E+000	0.0000000E+000	0.0000000E+000	-87.6746	0.0000000E+000	0.0000000E+000	0.0000000E+000	-2.32543	0.0000000E+000	0.0000000E+000	0.0000000E+000	2.32543	24.6252	2.32543	0.000297761
237.793	0.140987	0.00533256	0.141088	-2.16607	803.109	0.000253106	2.89727	125512	179.298	3	65	0.0101977	0.0722787	0	0.62996	7.08271	0.267889	7.08777	2.16607	179298	4.74045e+06	4.74384e+06	-87.8339	0.0000000E+000	0.0000000E+000	0.0000000E+000	87.8339	0.0000000E+000	0.0000000E+000	0.0000000E+000	-87.8339	0.0000000E+000	0.0000000E+000	0.0000000E+000	-2.16607	0.0000000E+000	0.0000000E+000	0.0000000E+000	2.16607	26.4389	2.16607	0.000838066
133.421	0.142921	0.00546215	0.143025	-2.18867	805.18	0.000247141	2.81119	218391	318.52	3	65	0.0101945	0.0712777	0	0.632357	6.98668	0.267017	6.99179	2.18867	318520	8.33429e+06	8.34037e+06	-87.8113	0.0000000E+000	0.0000000E+000	0.0000000E+000	87.8113	0.0000000E+000	0.0000000E+000	0.0000000E+000	-87.8113	0.0000000E+000	0.0000000E+000	0.0000000E+000	-2.18867	0.0000000E+000	0.0000000E+000	0.0000000E+000	2.18867	26.1657	2.18867	0.000750426
74.9283	0.14476	0.00530317	0.144857	-2.09806	807.25	0.000238734	2.90789	400533	536.826	3	65	0.0101924	0.0703621	0	0.633992	6.89875	0.252731	6.90338	2.09806	536825	1.46536e+07	1.46634e+07	-87.9019	0.0000000E+000	0.0000000E+000	0.0000000E+000	87.9019	0.0000000E+000	0.0000000E+000	0.0000000E+000	-87.9019	0.0000000E+000	0.0000000E+000	0.0000000E+000	-2.09806	0.0000000E+000	0.0000000E+000	0.0000000E+000	2.09806	27.2968	2.09806	0.00030941
42.0592	0.147122	0.00539202	0.147221	-2.09894	809.266	0.000237242	2.73517	701791	941.392	3	65	0.010195	0.0692495	0	0.635562	6.78795	0.248777	6.7925	2.09894	941392	2.56861e+07	2.57033e+07	-87.9011	0.0000000E+000	0.0000000E+000	0.0000000E+000	87.9011	0.0000000E+000	0.0000000E+000	0.0000000E+000	-87.9011	0.0000000E+000	0.0000000E+000	0.0000000E+000	-2.09894	0.0000000E+000	0.0000000E+000	0.0000000E+000	2.09894	27.2852	2.09894	0.000816107
23.617	0.149211	0.00515396	0.1493	-1.9783	811.409	0.000241213	2.79703	1.30754e+06	1558.19	3	65	0.0101951	0.0682859	0	0.637483	6.69395	0.231219	6.69794	1.9783	1.55818e+06	4.51105e+07	4.51374e+07	-88.0217	0.0000000E+000	0.0000000E+000	0.0000000E+000	88.0217	0.0000000E+000	0.0000000E+000	0.0000000E+000	-88.0217	0.0000000E+000	0.0000000E+000	0.0000000E+000	-1.9783	0.0000000E+000	0.0000000E+000	0.0000000E+000	1.9783	28.9507	1.9783	0.000274674
13.2565	0.154674	0.00442338	0.154737	-1.6381	813.809	0.000246209	2.34548	2.71417e+06	2217.97	3	37	0.0101964	0.0658953	0	0.639206	6.45993	0.184742	6.46258	1.6381	2.21798e+06	7.75566e+07	7.75883e+07	-88.3619	0.0000000E+000	0.0000000E+000	0.0000000E+000	88.3619	0.0000000E+000	0.0000000E+000	0.0000000E+000	-88.3619	0.0000000E+000	0.0000000E+000	0.0000000E+000	-1.6381	0.0000000E+000	0.0000000E+000	0.0000000E+000	1.6381	34.9674	1.6381	0.000278716
7.44045	0.156054	0.00368354	0.156097	-1.35217	815.699	0.000246693	2.34995	5.80706e+06	3233.67	3	37	0.0101942	0.0653069	0	0.640742	6.40448	0.151173	6.40626	1.35217	3.23367e+06	1.36995e+08	1.37033e+08	-88.6478	0.0000000E+000	0.0000000E+000	0.0000000E+000	88.6478	0.0000000E+000	0.0000000E+000	0.0000000E+000	-88.6478	0.0000000E+000	0.0000000E+000	0.0000000E+000	-1.35217	0.0000000E+000	0.0000000E+000	0.0000000E+000	1.35217	42.3652	1.35217	0.00065478
4.17781	0.157123	0.00314172	0.157154	-1.14549	817.778	0.000248138	2.40206	1.21256e+07	4846.05	3	37	0.0101994	0.0649006	0	0.64125	6.36191	0.127209	6.36319	1.14549	4.84604e+06	2.42359e+08	2.42408e+08	-88.8545	0.0000000E+000	0.0000000E+000	0.0000000E+000	88.8545	0.0000000E+000	0.0000000E+000	0.0000000E+000	-88.8545	0.0000000E+000	0.0000000E+000	0.0000000E+000	-1.14549	0.0000000E+000	0.0000000E+000	0.0000000E+000	1.14549	50.0117	1.14549	-0.000548866
2.3461	0.157921	0.00298173	0.157949	-1.08168	821.284	0.000244357	2.36248	2.27513e+07	8107.92	3	37	0.0102004	0.0645804	0	0.643858	6.33004	0.119519	6.33117	1.08168	8.1079e+06	4.29418e+08	4.29495e+08	-88.9183	0.0000000E+000	0.0000000E+000	0.0000000E+000	88.9183	0.0000000E+000	0.0000000E+000	0.0000000E+000	-88.9183	0.0000000E+000	0.0000000E+000	0.0000000E+000	-1.08168	0.0000000E+000	0.0000000E+000	0.0000000E+000	1.08168	52.9628	1.08168	-0.000334938
1.31767	0.158608	0.00323751	0.158641	-1.16936	827.367	0.00024422	2.39133	3.73079e+07	15537.8	3	37	0.0101992	0.064291	0	0.649967	6.30221	0.128641	6.30352	1.16936	1.55378e+07	7.61212e+08	7.6137e+08	-88.8306	0.0000000E+000	0.0000000E+000	0.0000000E+000	88.8306	0.0000000E+000	0.0000000E+000	0.0000000E+000	-88.8306	0.0000000E+000	0.0000000E+000	0.0000000E+000	-1.16936	0.0000000E+000	0.0000000E+000	0.0000000E+000	1.16936	48.9908	1.16936	0.00378249
0.73982	0.159964	0.00386851	0.160011	-1.38535	838.05	0.000248525	2.39686	5.56096e+07	32504.1	3	37	0.0101963	0.0637226	0	0.652324	6.24774	0.151093	6.24957	1.38535	3.2504e+07	1.34405e+09	1.34445e+09	-88.6147	0.0000000E+000	0.0000000E+000	0.0000000E+000	88.6147	0.0000000E+000	0.0000000E+000	0.0000000E+000	-88.6147	0.0000000E+000	0.0000000E+000	0.0000000E+000	-1.38535	0.0000000E+000	0.0000000E+000	0.0000000E+000	1.38535	41.3503	1.38535	-0.000384939
0.415338	0.161868	0.00408213	0.16192	-1.44463	856.938	0.000242012	2.37224	9.38711e+07	59663	3	37	0.0101976	0.0629791	0	0.669741	6.17393	0.155699	6.1759	1.44463	5.9663e+07	2.36581e+09	2.36657e+09	-88.5554	0.0000000E+000	0.0000000E+000	0.0000000E+000	88.5554	0.0000000E+000	0.0000000E+000	0.0000000E+000	-88.5554	0.0000000E+000	0.0000000E+000	0.0000000E+000	-1.44463	0.0000000E+000	0.0000000E+000	0.0000000E+000	1.44463	39.6529	1.44463	0.00981923
0.233202	0.163597	0.0035013	0.163635	-1.22605	890.446	0.000256456	2.46339	1.94921e+08	89241.3	3	37	0.0101989	0.0623272	0	0.69454	6.10977	0.130761	6.11117	1.22605	8.92412e+07	4.16978e+09	4.17074e+09	-88.7739	0.0000000E+000	0.0000000E+000	0.0000000E+000	88.7739	0.0000000E+000	0.0000000E+000	0.0000000E+000	-88.7739	0.0000000E+000	0.0000000E+000	0.0000000E+000	-1.22605	0.0000000E+000	0.0000000E+000	0.0000000E+000	1.22605	46.7248	1.22605	0.00491145
0.13084	0.164561	0.00262758	0.164582	-0.914775	950.003	0.000261107	2.38257	4.62938e+08	117997	3	37	0.0101969	0.0619564	0	0.708654	6.07523	0.0970044	6.076	0.914775	1.17996e+08	7.38994e+09	7.39088e+09	-89.0852	0.0000000E+000	0.0000000E+000	0.0000000E+000	89.0852	0.0000000E+000	0.0000000E+000	0.0000000E+000	-89.0852	0.0000000E+000	0.0000000E+000	0.0000000E+000	-0.914775	0.0000000E+000	0.0000000E+000	0.0000000E+000	0.914775	62.6284	0.914775	0.00991627
0.0734642	0.16483	0.00174355	0.164839	-0.606045	1055.94	0.000259876	2.46699	1.24254e+09	139014	3	37	0.010199	0.0618726	0	0.823915	6.06617	0.0641672	6.06651	0.606045	1.39014e+08	1.31419e+10	1.31427e+10	-89.394	0.0000000E+000	0.0000000E+000	0.0000000E+000	89.394	0.0000000E+000	0.0000000E+000	0.0000000E+000	-89.394	0.0000000E+000	0.0000000E+000	0.0000000E+000	-0.606045	0.0000000E+000	0.0000000E+000	0.0000000E+000	0.606045	94.5369	0.606045	0.0523542
199998	0.119656	-0.0233209	0.121907	11.0287	1170.46	0.000333169	-14.5834	-34.1231	-1.24877	4	65	0.0096793	0.0793989	0	0.922297	8.05146	-1.56923	8.20296	-11.0287	-1248.77	6407.21	6527.77	-101.029	0.0000000E+000	0.0000000E+000	0.0000000E+000	101.029	0.0000000E+000	0.0000000E+000	0.0000000E+000	-101.029	0.0000000E+000	0.0000000E+000	0.0000000E+000	11.0287	0.0000000E+000	0.0000000E+000	0.0000000E+000	-11.0287	-5.13083	-11.0287	-0.00263008
112288	0.121938	-0.0119921	0.122527	5.61673	1172.19	0.000338929	3.27606	-118.192	-1.13219	4	65	0.0105641	0.0862189	0	0.923384	8.1223	-0.798793	8.16149	-5.61673	-1132.19	11512.4	11567.9	-95.6167	0.0000000E+000	0.0000000E+000	0.0000000E+000	95.6167	0.0000000E+000	0.0000000E+000	0.0000000E+000	-95.6167	0.0000000E+000	0.0000000E+000	0.0000000E+000	5.61673	0.0000000E+000	0.0000000E+000	0.0000000E+000	-5.61673	-10.1682	-5.61673	-0.000310781
63038.2	0.122806	-0.0055455	0.122932	2.58552	1173.91	0.000328938	3.40722	-455.277	-0.926469	4	65	0.0105694	0.0859775	0	0.92569	8.12633	-0.366956	8.13461	-2.58552	-926.469	20516.9	20537.8	-92.5855	0.0000000E+000	0.0000000E+000	0.0000000E+000	92.5855	0.0000000E+000	0.0000000E+000	0.0000000E+000	-92.5855	0.0000000E+000	0.0000000E+000	0.0000000E+000	2.58552	0.0000000E+000	0.0000000E+000	0.0000000E+000	-2.58552	-22.1452	-2.58552	0.00041006
35388.2	0.123842	-0.00154698	0.123852	0.715675	1175.64	0.00033302	3.42567	-2907.22	-0.453568	4	65	0.010554	0.0852149	0	0.927927	8.07355	-0.100851	8.07418	-0.715675	-453.568	36310	36312.8	-90.7157	0.0000000E+000	0.0000000E+000	0.0000000E+000	90.7157	0.0000000E+000	0.0000000E+000	0.0000000E+000	-90.7157	0.0000000E+000	0.0000000E+000	0.0000000E+000	0.715675	0.0000000E+000	0.0000000E+000	0.0000000E+000	-0.715675	-80.0542	-0.715675	0.000536904
19865.3	0.125066	0.00100471	0.12507	-0.460272	1177.37	0.000338612	3.55088	7974.17	0.514589	4	65	0.0104393	0.0834681	0	0.929635	7.99528	0.0642296	7.99554	0.460272	514.591	64055.9	64058	-89.5397	0.0000000E+000	0.0000000E+000	0.0000000E+000	89.5397	0.0000000E+000	0.0000000E+000	0.0000000E+000	-89.5397	0.0000000E+000	0.0000000E+000	0.0000000E+000	-0.460272	0.0000000E+000	0.0000000E+000	0.0000000E+000	0.460272	124.48	0.460272	0.000832032
11152.8	0.126424	0.00272028	0.126453	-1.23265	1178.95	0.000336077	3.57025	5245.96	2.42769	4	65	0.0108633	0.085908	0	0.931615	7.90626	0.17012	7.90809	1.23265	2427.69	112826	112852	-88.7673	0.0000000E+000	0.0000000E+000	0.0000000E+000	88.7673	0.0000000E+000	0.0000000E+000	0.0000000E+000	-88.7673	0.0000000E+000	0.0000000E+000	0.0000000E+000	-1.23265	0.0000000E+000	0.0000000E+000	0.0000000E+000	1.23265	46.4745	1.23265	0.000748081
6263.42	0.128175	0.00381241	0.128232	-1.70369	1180.63	0.000237541	2.95093	6665.13	5.8914	4	65	0.010419	0.0812517	0	0.932186	7.79494	0.231851	7.79839	1.70369	5891.41	198071	198159	-88.2963	0.0000000E+000	0.0000000E+000	0.0000000E+000	88.2963	0.0000000E+000	0.0000000E+000	0.0000000E+000	-88.2963	0.0000000E+000	0.0000000E+000	0.0000000E+000	-1.70369	0.0000000E+000	0.0000000E+000	0.0000000E+000	1.70369	33.6204	1.70369	0.000316734
3516.12	0.129981	0.0045925	0.130062	-2.02353	1182.7	0.000231743	2.89447	9856.15	12.2886	4	65	0.0103403	0.0795026	0	0.934188	7.68383	0.271485	7.68863	2.02353	12288.6	347803	348020	-87.9765	0.0000000E+000	0.0000000E+000	0.0000000E+000	87.9765	0.0000000E+000	0.0000000E+000	0.0000000E+000	-87.9765	0.0000000E+000	0.0000000E+000	0.0000000E+000	-2.02353	0.0000000E+000	0.0000000E+000	0.0000000E+000	2.02353	28.3029	2.02353	0.000248773
1974.37	0.131872	0.0050791	0.13197	-2.20567	1184.78	0.000231426	2.77691	15871.1	23.5087	4	65	0.0102763	0.0778687	0	0.936638	7.57186	0.291632	7.57747	2.20567	23508.7	610372	610825	-87.7943	0.0000000E+000	0.0000000E+000	0.0000000E+000	87.7943	0.0000000E+000	0.0000000E+000	0.0000000E+000	-87.7943	0.0000000E+000	0.0000000E+000	0.0000000E+000	-2.20567	0.0000000E+000	0.0000000E+000	0.0000000E+000	2.20567	25.9637	2.20567	0.000698581
1108.23	0.134172	0.00538018	0.13428	-2.29629	1186.86	0.000246507	2.8995	26692.8	42.8517	4	65	0.0102625	0.0764262	0	0.938769	7.44117	0.298385	7.44715	2.29629	42851.7	1.06864e+06	1.0695e+06	-87.7037	0.0000000E+000	0.0000000E+000	0.0000000E+000	87.7037	0.0000000E+000	0.0000000E+000	0.0000000E+000	-87.7037	0.0000000E+000	0.0000000E+000	0.0000000E+000	-2.29629	0.0000000E+000	0.0000000E+000	0.0000000E+000	2.29629	24.9381	2.29629	0.000904611
622.19	0.136367	0.00537648	0.136473	-2.25781	1188.93	0.000241959	2.86149	47577.2	73.8422	4	65	0.0102462	0.075079	0	0.940553	7.32179	0.288674	7.32748	2.25781	73842.2	1.8729e+06	1.87436e+06	-87.7422	0.0000000E+000	0.0000000E+000	0.0000000E+000	87.7422	0.0000000E+000	0.0000000E+000	0.0000000E+000	-87.7422	0.0000000E+000	0.0000000E+000	0.0000000E+000	-2.25781	0.0000000E+000	0.0000000E+000	0.0000000E+000	2.25781	25.3635	2.25781	0.000477694
349.218	0.138455	0.00545798	0.138562	-2.25747	1191.01	0.000250179	2.72846	83501.1	129.559	4	65	0.010239	0.073895	0	0.94202	7.21138	0.284278	7.21698	2.25747	129559	3.28657e+06	3.28912e+06	-87.7425	0.0000000E+000	0.0000000E+000	0.0000000E+000	87.7425	0.0000000E+000	0.0000000E+000	0.0000000E+000	-87.7425	0.0000000E+000	0.0000000E+000	0.0000000E+000	-2.25747	0.0000000E+000	0.0000000E+000	0.0000000E+000	2.25747	25.3674	2.25747	0.000418416
196.066	0.140288	0.00533162	0.140389	-2.17647	1193.09	0.000230569	2.60642	152250	219.588	4	65	0.0102321	0.072884	0	0.943213	7.11792	0.270515	7.12306	2.17647	219588	5.7779e+06	5.78207e+06	-87.8235	0.0000000E+000	0.0000000E+000	0.0000000E+000	87.8235	0.0000000E+000	0.0000000E+000	0.0000000E+000	-87.8235	0.0000000E+000	0.0000000E+000	0.0000000E+000	-2.17647	0.0000000E+000	0.0000000E+000	0.0000000E+000	2.17647	26.3124	2.17647	0.000202185
110.105	0.142369	0.00531143	0.142468	-2.13657	1195.16	0.000238249	2.5604	272145	378.258	4	65	0.0102398	0.0718746	0	0.944011	7.01425	0.261684	7.01912	2.13657	378259	1.01389e+07	1.0146e+07	-87.8634	0.0000000E+000	0.0000000E+000	0.0000000E+000	87.8634	0.0000000E+000	0.0000000E+000	0.0000000E+000	-87.8634	0.0000000E+000	0.0000000E+000	0.0000000E+000	-2.13657	0.0000000E+000	0.0000000E+000	0.0000000E+000	2.13657	26.8043	2.13657	0.000378099
90.8427	0.142955	0.00526661	0.143052	-2.10989	1195.85	0.000237298	2.49109	332659	450.895	4	65	0.0102328	0.0715325	0	0.944798	6.98575	0.257363	6.99048	2.10989	450895	1.22389e+07	1.22472e+07	-87.8901	0.0000000E+000	0.0000000E+000	0.0000000E+000	87.8901	0.0000000E+000	0.0000000E+000	0.0000000E+000	-87.8901	0.0000000E+000	0.0000000E+000	0.0000000E+000	-2.10989	0.0000000E+000	0.0000000E+000	0.0000000E+000	2.10989	27.1436	2.10989	0.000787031