File: Python/ImpedanceDataOld/dual layer tests _vanadium positive side single-tank symmetric cell_1.6 M total vanadium_ve=5cms_choose the cycle number=3/dual-layer_AvCarb 1186 carbon cloth + Freudenberg H23 carbon paper.mpt
EC-Lab ASCII FILE
Nb header lines : 66

Potentio Electrochemical Impedance Spectroscopy

Run on channel : 1 (SN 5680)
User :
Electrode connection : standard
Potential control : Ewe
Ewe ctrl range : min = 0.00 V, max = 5.00 V
Ewe,I filtering : <None>
Safety Limits :
	Do not start on E overload
Channel : Floating
Acquisition started on : 06/30/2023 00:59:40.052
Loaded Setting File :  C:\Data\baili\Electrode Combination Tests\20230622\new tests\positive\ELAT_ve5_30mL_EIS_C01.mpr
Saved on :
	File : AvCarb_FrePaper_ve5_30mL_EIS_C01.mpr
	Directory : C:\Data\baili\Electrode Combination Tests\20230622\new tests\positive\
	Host : 192.168.0.1
Device : SP-300 (SN 0955)
Address : 192.168.0.4
EC-Lab for windows v11.46 (software)
Internet server v11.40 (firmware)
Command interpretor v11.46 (firmware)
Electrode material :
Initial state :
Electrolyte :
Comments :
Current amplifier : B-10A5V
Cable : standard
Electrode surface area : 0.001 cm2
Characteristic mass : 0.001 g
Equivalent Weight : 0.000 g/eq.
Density : 0.000 g/cm3
Volume (V) : 0.001 cm3
Cycle Definition : Charge/Discharge alternance
Mode                Single sine
E (V)               0.0000
vs.                 Eoc
tE (h:m:s)          0:00:0.0000
record              0
dI                  0.000
unit dI             mA
dt (s)              0.000
fi                  200.000
unit fi             kHz
ff                  50.000
unit ff             mHz
Nd                  8
Points              per decade
spacing             Logarithmic
Va (mV)             10.0
pw                  0.10
Na                  3
corr                0
E range min (V)     0.000
E range max (V)     5.000
I Range             Auto
Bandwidth           8
nc cycles           3
goto Ns'            0
nr cycles           0
inc. cycle          0

freq/Hz	Re(Z)/Ohm	-Im(Z)/Ohm	|Z|/Ohm	Phase(Z)/deg	time/s	<Ewe>/V	<I>/mA	Cs/uF	Cp/uF	cycle number	I Range	|Ewe|/V	|I|/A	Ns	(Q-Qo)/mA.h	Re(Y)/Ohm-1	Im(Y)/Ohm-1	|Y|/Ohm-1	Phase(Y)/deg	Re(C)/nF	Im(C)/nF	|C|/nF	Phase(C)/deg	Re(M)	Im(M)	|M|	Phase(M)/deg	Re(Permittivity)	Im(Permittivity)	|Permittivity|	Phase(Permittivity)/deg	Re(Resistivity)/Ohm.cm	Im(Resistivity)/Ohm.cm	|Resistivity|/Ohm.cm	Phase(Resistivity)/deg	Re(Conductivity)/mS/cm	Im(Conductivity)/mS/cm	|Conductivity|/mS/cm	Phase(Conductivity)/deg	Tan(Delta)	Loss Angle(Delta)/deg	dq/mA.h
199998	0.123673	-0.0289378	0.127014	13.1695	1.9465	-0.000600988	-21.5776	-27.4998	-1.42745	1	65	0.00975392	0.0767944	0	-0.00555785	7.66611	-1.79376	7.87318	-13.1695	-1427.45	6100.56	6265.33	-103.169	0.0000000E+000	0.0000000E+000	0.0000000E+000	103.169	0.0000000E+000	0.0000000E+000	0.0000000E+000	-103.169	0.0000000E+000	0.0000000E+000	0.0000000E+000	13.1695	0.0000000E+000	0.0000000E+000	0.0000000E+000	-13.1695	-4.27376	-13.1695	-0.00555785
111453	0.12586	-0.0159153	0.126862	7.20694	3.0985	-0.000591611	-3.90581	-89.7245	-1.41214	1	65	0.0109049	0.0859581	0	-0.00772893	7.82028	-0.988893	7.88255	-7.20694	-1412.13	11167.3	11256.3	-97.2069	0.0000000E+000	0.0000000E+000	0.0000000E+000	97.2069	0.0000000E+000	0.0000000E+000	0.0000000E+000	-97.2069	0.0000000E+000	0.0000000E+000	0.0000000E+000	7.20694	0.0000000E+000	0.0000000E+000	0.0000000E+000	-7.20694	-7.90811	-7.20694	-0.00165746
62110.3	0.126316	-0.00831059	0.126589	3.76418	4.2505	-0.000593158	-3.81227	-308.336	-1.32891	1	65	0.0109036	0.0861341	0	-0.00860246	7.88254	-0.518608	7.89958	-3.76418	-1328.91	20198.7	20242.3	-93.7642	0.0000000E+000	0.0000000E+000	0.0000000E+000	93.7642	0.0000000E+000	0.0000000E+000	0.0000000E+000	-93.7642	0.0000000E+000	0.0000000E+000	0.0000000E+000	3.76418	0.0000000E+000	0.0000000E+000	0.0000000E+000	-3.76418	-15.1994	-3.76418	-0.000487321
34618.1	0.126953	-0.00341393	0.126999	1.54038	5.40348	-0.000585683	-3.70309	-1346.67	-0.973128	1	65	0.010773	0.0848274	0	-0.00910933	7.87123	-0.211667	7.87407	-1.54038	-973.128	36187.6	36200.6	-91.5404	0.0000000E+000	0.0000000E+000	0.0000000E+000	91.5404	0.0000000E+000	0.0000000E+000	0.0000000E+000	-91.5404	0.0000000E+000	0.0000000E+000	0.0000000E+000	1.54038	0.0000000E+000	0.0000000E+000	0.0000000E+000	-1.54038	-37.1868	-1.54038	-0.000587693
19290	0.127559	-0.000344908	0.12756	0.154922	6.5555	-0.000572951	-3.6526	-23921.3	-0.17489	1	65	0.0105561	0.0827539	0	-0.0093976	7.83944	-0.0211971	7.83947	-0.154922	-174.89	64680.4	64680.6	-90.1549	0.0000000E+000	0.0000000E+000	0.0000000E+000	90.1549	0.0000000E+000	0.0000000E+000	0.0000000E+000	-90.1549	0.0000000E+000	0.0000000E+000	0.0000000E+000	0.154922	0.0000000E+000	0.0000000E+000	0.0000000E+000	-0.154922	-369.836	-0.154922	-0.000546211
10753.8	0.128514	0.00139416	0.128521	-0.621539	7.70748	-0.000560276	-3.52851	10615.6	1.24917	1	65	0.0102819	0.0800012	0	-0.00964317	7.78035	0.0844037	7.78081	0.621539	1249.16	115148	115155	-89.3785	0.0000000E+000	0.0000000E+000	0.0000000E+000	89.3785	0.0000000E+000	0.0000000E+000	0.0000000E+000	-89.3785	0.0000000E+000	0.0000000E+000	0.0000000E+000	-0.621539	0.0000000E+000	0.0000000E+000	0.0000000E+000	0.621539	92.1802	0.621539	-0.000333497
5992.11	0.129827	0.00236316	0.129848	-1.04281	9.17012	-0.000659837	-4.32037	11239.5	3.72272	1	65	0.0101425	0.0781101	0	-0.0112209	7.70002	0.140159	7.7013	1.04281	3722.73	204518	204552	-88.9572	0.0000000E+000	0.0000000E+000	0.0000000E+000	88.9572	0.0000000E+000	0.0000000E+000	0.0000000E+000	-88.9572	0.0000000E+000	0.0000000E+000	0.0000000E+000	-1.04281	0.0000000E+000	0.0000000E+000	0.0000000E+000	1.04281	54.9378	1.04281	-0.000922282
3338.93	0.13101	0.00287914	0.131042	-1.25895	10.7878	-0.000663267	-4.21864	16555.8	7.99196	1	65	0.0101088	0.0771416	0	-0.0138146	7.62929	0.167664	7.63114	1.25895	7991.94	363661	363749	-88.7411	0.0000000E+000	0.0000000E+000	0.0000000E+000	88.7411	0.0000000E+000	0.0000000E+000	0.0000000E+000	-88.7411	0.0000000E+000	0.0000000E+000	0.0000000E+000	-1.25895	0.0000000E+000	0.0000000E+000	0.0000000E+000	1.25895	45.5034	1.25895	-0.00157485
1860.6	0.13236	0.00332359	0.132401	-1.43841	12.1717	-0.000661571	-4.2831	25737.1	16.2177	1	65	0.0103892	0.0784677	0	-0.0154308	7.55041	0.189593	7.55279	1.43841	16217.8	645860	646064	-88.5616	0.0000000E+000	0.0000000E+000	0.0000000E+000	88.5616	0.0000000E+000	0.0000000E+000	0.0000000E+000	-88.5616	0.0000000E+000	0.0000000E+000	0.0000000E+000	-1.43841	0.0000000E+000	0.0000000E+000	0.0000000E+000	1.43841	39.8243	1.43841	-0.000680373
1036.66	0.133753	0.00354786	0.1338	-1.51944	13.5555	-0.000655177	-4.18156	43273.1	30.4255	1	65	0.0104802	0.0783274	0	-0.016969	7.47121	0.198177	7.47384	1.51944	30425.5	1.14703e+06	1.14743e+06	-88.4806	0.0000000E+000	0.0000000E+000	0.0000000E+000	88.4806	0.0000000E+000	0.0000000E+000	0.0000000E+000	-88.4806	0.0000000E+000	0.0000000E+000	0.0000000E+000	-1.51944	0.0000000E+000	0.0000000E+000	0.0000000E+000	1.51944	37.6996	1.51944	-0.00042662
577.965	0.135058	0.00386669	0.135113	-1.63992	14.9415	-0.000663304	-4.31701	71216.2	58.3261	1	65	0.0104982	0.0776995	0	-0.0179372	7.39818	0.211809	7.40121	1.63992	58326	2.03724e+06	2.03808e+06	-88.3601	0.0000000E+000	0.0000000E+000	0.0000000E+000	88.3601	0.0000000E+000	0.0000000E+000	0.0000000E+000	-88.3601	0.0000000E+000	0.0000000E+000	0.0000000E+000	-1.63992	0.0000000E+000	0.0000000E+000	0.0000000E+000	1.63992	34.9285	1.63992	-0.000489364
321.957	0.136396	0.00396629	0.136453	-1.66565	16.3185	-0.000652549	-4.20019	124634	105.302	1	65	0.0105031	0.0769719	0	-0.0194647	7.32541	0.213018	7.32851	1.66565	105302	3.62121e+06	3.62274e+06	-88.3344	0.0000000E+000	0.0000000E+000	0.0000000E+000	88.3344	0.0000000E+000	0.0000000E+000	0.0000000E+000	-88.3344	0.0000000E+000	0.0000000E+000	0.0000000E+000	-1.66565	0.0000000E+000	0.0000000E+000	0.0000000E+000	1.66565	34.3887	1.66565	-0.000887963
179.483	0.137872	0.00438463	0.137941	-1.82152	17.7014	-0.000666995	-3.84805	202238	204.335	1	65	0.0105015	0.07613	0	-0.0213125	7.2458	0.230433	7.24946	1.82152	204335	6.42515e+06	6.4284e+06	-88.1785	0.0000000E+000	0.0000000E+000	0.0000000E+000	88.1785	0.0000000E+000	0.0000000E+000	0.0000000E+000	-88.1785	0.0000000E+000	0.0000000E+000	0.0000000E+000	-1.82152	0.0000000E+000	0.0000000E+000	0.0000000E+000	1.82152	31.4443	1.82152	-0.00103952
99.9682	0.139392	0.00471755	0.139472	-1.93836	19.0888	-0.000658831	-3.68539	337475	386.101	1	65	0.0104977	0.0752674	0	-0.0225569	7.16579	0.242517	7.1699	1.93836	386101	1.14083e+07	1.14149e+07	-88.0616	0.0000000E+000	0.0000000E+000	0.0000000E+000	88.0616	0.0000000E+000	0.0000000E+000	0.0000000E+000	-88.0616	0.0000000E+000	0.0000000E+000	0.0000000E+000	-1.93836	0.0000000E+000	0.0000000E+000	0.0000000E+000	1.93836	29.5476	1.93836	-0.000900523
55.7312	0.141241	0.0051111	0.141333	-2.07247	20.4671	-0.000660657	-3.92556	558738	730.715	1	65	0.0104948	0.0742555	0	-0.0247106	7.07085	0.255874	7.07548	2.07247	730714	2.01927e+07	2.02059e+07	-87.9275	0.0000000E+000	0.0000000E+000	0.0000000E+000	87.9275	0.0000000E+000	0.0000000E+000	0.0000000E+000	-87.9275	0.0000000E+000	0.0000000E+000	0.0000000E+000	-2.07247	0.0000000E+000	0.0000000E+000	0.0000000E+000	2.07247	27.6341	2.07247	-0.00105565
31.0636	0.143749	0.00508632	0.143839	-2.02647	21.8059	-0.000654431	-3.68502	1.00731e+06	1259.55	1	65	0.0105022	0.0730132	0	-0.0266514	6.94786	0.245838	6.95221	2.02647	1.25955e+06	3.55975e+07	3.56197e+07	-87.9735	0.0000000E+000	0.0000000E+000	0.0000000E+000	87.9735	0.0000000E+000	0.0000000E+000	0.0000000E+000	-87.9735	0.0000000E+000	0.0000000E+000	0.0000000E+000	-2.02647	0.0000000E+000	0.0000000E+000	0.0000000E+000	2.02647	28.262	2.02647	-0.00103905
17.3099	0.149621	0.00431477	0.149683	-1.65184	23.394	-0.000653816	-2.32119	2.13093e+06	1770.67	1	37	0.0104995	0.0701447	0	-0.0280988	6.67799	0.19258	6.68077	1.65184	1.77066e+06	6.14006e+07	6.14261e+07	-88.3482	0.0000000E+000	0.0000000E+000	0.0000000E+000	88.3482	0.0000000E+000	0.0000000E+000	0.0000000E+000	-88.3482	0.0000000E+000	0.0000000E+000	0.0000000E+000	-1.65184	0.0000000E+000	0.0000000E+000	0.0000000E+000	1.65184	34.6765	1.65184	-0.000525692
9.64507	0.151206	0.00354036	0.151247	-1.34129	24.8971	-0.000655121	-4.20966	4.66087e+06	2553.81	1	37	0.0104982	0.0694111	0	-0.0296127	6.60988	0.154765	6.61169	1.34129	2.55381e+06	1.09071e+08	1.09101e+08	-88.6587	0.0000000E+000	0.0000000E+000	0.0000000E+000	88.6587	0.0000000E+000	0.0000000E+000	0.0000000E+000	-88.6587	0.0000000E+000	0.0000000E+000	0.0000000E+000	-1.34129	0.0000000E+000	0.0000000E+000	0.0000000E+000	1.34129	42.7091	1.34129	-0.000642784
5.37311	0.152397	0.00258879	0.152419	-0.973201	26.0589	-0.000648708	-4.24853	1.14419e+07	3300.77	1	37	0.0105013	0.0688975	0	-0.0314112	6.55993	0.111435	6.56087	0.973201	3.30076e+06	1.94309e+08	1.94337e+08	-89.0268	0.0000000E+000	0.0000000E+000	0.0000000E+000	89.0268	0.0000000E+000	0.0000000E+000	0.0000000E+000	-89.0268	0.0000000E+000	0.0000000E+000	0.0000000E+000	-0.973201	0.0000000E+000	0.0000000E+000	0.0000000E+000	0.973201	58.8679	0.973201	-0.00122046
2.99674	0.152912	0.00239995	0.152931	-0.899181	28.0025	-0.000642519	-4.14975	2.21293e+07	5449.81	1	37	0.010502	0.0686715	0	-0.0323718	6.53809	0.102615	6.5389	0.899181	5.44979e+06	3.47234e+08	3.47276e+08	-89.1008	0.0000000E+000	0.0000000E+000	0.0000000E+000	89.1008	0.0000000E+000	0.0000000E+000	0.0000000E+000	-89.1008	0.0000000E+000	0.0000000E+000	0.0000000E+000	-0.899181	0.0000000E+000	0.0000000E+000	0.0000000E+000	0.899181	63.7148	0.899181	-0.000126163
1.66934	0.153264	0.00239781	0.153283	-0.896318	31.371	-0.000659692	-4.23301	3.97613e+07	9729.8	1	37	0.0105017	0.0685118	0	-0.0391836	6.5231	0.102054	6.5239	0.896318	9.72979e+06	6.21913e+08	6.21989e+08	-89.1037	0.0000000E+000	0.0000000E+000	0.0000000E+000	89.1037	0.0000000E+000	0.0000000E+000	0.0000000E+000	-89.1037	0.0000000E+000	0.0000000E+000	0.0000000E+000	-0.896318	0.0000000E+000	0.0000000E+000	0.0000000E+000	0.896318	63.9183	0.896318	-0.00376854
0.930391	0.153986	0.00293928	0.154014	-1.09353	37.3142	-0.000634235	-4.03053	5.81987e+07	21197	1	37	0.0104985	0.0681661	0	-0.0420953	6.49172	0.123914	6.4929	1.09353	2.1197e+07	1.11049e+09	1.11069e+09	-88.9065	0.0000000E+000	0.0000000E+000	0.0000000E+000	88.9065	0.0000000E+000	0.0000000E+000	0.0000000E+000	-88.9065	0.0000000E+000	0.0000000E+000	0.0000000E+000	-1.09353	0.0000000E+000	0.0000000E+000	0.0000000E+000	1.09353	52.3891	1.09353	-0.000867463
0.518689	0.15526	0.0031686	0.155292	-1.16915	47.8746	-0.000655696	-3.99177	9.68379e+07	40316.5	1	37	0.0104975	0.0675986	0	-0.0523576	6.43815	0.131392	6.43949	1.16915	4.03164e+07	1.97548e+09	1.9759e+09	-88.8308	0.0000000E+000	0.0000000E+000	0.0000000E+000	88.8308	0.0000000E+000	0.0000000E+000	0.0000000E+000	-88.8308	0.0000000E+000	0.0000000E+000	0.0000000E+000	-1.16915	0.0000000E+000	0.0000000E+000	0.0000000E+000	1.16915	48.9994	1.16915	-0.007654
0.288924	0.156504	0.002703	0.156528	-0.989462	66.7423	-0.00065188	-3.96922	2.03794e+08	60771.6	1	37	0.0104994	0.067077	0	-0.0851671	6.3877	0.110323	6.38865	0.989462	6.07717e+07	3.51869e+09	3.51922e+09	-89.0105	0.0000000E+000	0.0000000E+000	0.0000000E+000	89.0105	0.0000000E+000	0.0000000E+000	0.0000000E+000	-89.0105	0.0000000E+000	0.0000000E+000	0.0000000E+000	-0.989462	0.0000000E+000	0.0000000E+000	0.0000000E+000	0.989462	57.9002	0.989462	-0.0188984
0.161059	0.157167	0.00186051	0.157178	-0.678223	100.493	-0.000649976	-4.05354	5.31133e+08	74418.8	1	37	0.0105026	0.0668197	0	-0.124007	6.36177	0.0753092	6.36221	0.678223	7.44188e+07	6.28655e+09	6.28699e+09	-89.3218	0.0000000E+000	0.0000000E+000	0.0000000E+000	89.3218	0.0000000E+000	0.0000000E+000	0.0000000E+000	-89.3218	0.0000000E+000	0.0000000E+000	0.0000000E+000	-0.678223	0.0000000E+000	0.0000000E+000	0.0000000E+000	0.678223	84.4753	0.678223	-0.0188684
0.0897631	0.156902	0.00118203	0.156907	-0.431632	160.972	-0.000635218	-3.90093	1.50001e+09	85127	1	37	0.0105016	0.0669288	0	-0.154809	6.37302	0.0480115	6.3732	0.431632	8.51271e+07	1.12997e+10	1.13e+10	-89.5684	0.0000000E+000	0.0000000E+000	0.0000000E+000	89.5684	0.0000000E+000	0.0000000E+000	0.0000000E+000	-89.5684	0.0000000E+000	0.0000000E+000	0.0000000E+000	-0.431632	0.0000000E+000	0.0000000E+000	0.0000000E+000	0.431632	132.74	0.431632	-0.0156948
0.049976	0.156126	0.00068896	0.156127	-0.252836	269.467	-0.000644903	-3.92344	4.62237e+09	90010.6	1	37	0.0105011	0.0672596	0	-0.248456	6.40496	0.0282641	6.40502	0.252836	9.00114e+07	2.03974e+10	2.03976e+10	-89.7472	0.0000000E+000	0.0000000E+000	0.0000000E+000	89.7472	0.0000000E+000	0.0000000E+000	0.0000000E+000	-89.7472	0.0000000E+000	0.0000000E+000	0.0000000E+000	-0.252836	0.0000000E+000	0.0000000E+000	0.0000000E+000	0.252836	226.611	0.252836	-0.0641108
149300	0.121516	-0.020419	0.12322	9.5386	271.384	-0.000550172	-2.88757	-52.2065	-1.43362	2	65	0.0107405	0.0871655	0	-0.253483	8.00338	-1.34485	8.11558	-9.5386	-1433.62	8531.64	8651.25	-99.5386	0.0000000E+000	0.0000000E+000	0.0000000E+000	99.5386	0.0000000E+000	0.0000000E+000	0.0000000E+000	-99.5386	0.0000000E+000	0.0000000E+000	0.0000000E+000	9.5386	0.0000000E+000	0.0000000E+000	0.0000000E+000	-9.5386	-5.95113	-9.5386	-0.000159444
83200.3	0.122564	-0.0106463	0.123025	4.96442	272.537	-0.000555466	-2.85049	-179.679	-1.34556	2	65	0.010975	0.0892094	0	-0.254838	8.09791	-0.703409	8.12841	-4.96442	-1345.56	15490.6	15548.9	-94.9644	0.0000000E+000	0.0000000E+000	0.0000000E+000	94.9644	0.0000000E+000	0.0000000E+000	0.0000000E+000	-94.9644	0.0000000E+000	0.0000000E+000	0.0000000E+000	4.96442	0.0000000E+000	0.0000000E+000	0.0000000E+000	-4.96442	-11.5124	-4.96442	-0.00114292
46364.7	0.123245	-0.00493006	0.123344	2.29072	273.689	-0.000549576	-2.86074	-696.275	-1.11237	2	65	0.0109824	0.0890392	0	-0.255664	8.10093	-0.324053	8.10741	-2.29072	-1112.37	27807.9	27830.1	-92.2907	0.0000000E+000	0.0000000E+000	0.0000000E+000	92.2907	0.0000000E+000	0.0000000E+000	0.0000000E+000	-92.2907	0.0000000E+000	0.0000000E+000	0.0000000E+000	2.29072	0.0000000E+000	0.0000000E+000	0.0000000E+000	-2.29072	-24.9988	-2.29072	-0.000377367
25840.6	0.124105	-0.00151336	0.124114	0.698642	274.841	-0.000549501	-2.80727	-4069.81	-0.605086	2	65	0.0109017	0.087836	0	-0.257576	8.0565	-0.0982427	8.0571	-0.698642	-605.083	49620.8	49624.5	-90.6986	0.0000000E+000	0.0000000E+000	0.0000000E+000	90.6986	0.0000000E+000	0.0000000E+000	0.0000000E+000	-90.6986	0.0000000E+000	0.0000000E+000	0.0000000E+000	0.698642	0.0000000E+000	0.0000000E+000	0.0000000E+000	-0.698642	-82.0061	-0.698642	-0.00142623
14400.2	0.125294	0.000358749	0.125295	-0.164052	275.994	-0.000552801	-3.06458	30807.7	0.252567	2	65	0.0104391	0.0833169	0	-0.259914	7.98116	0.0228521	7.98119	0.164052	252.571	88209.7	88210.1	-89.8359	0.0000000E+000	0.0000000E+000	0.0000000E+000	89.8359	0.0000000E+000	0.0000000E+000	0.0000000E+000	-89.8359	0.0000000E+000	0.0000000E+000	0.0000000E+000	-0.164052	0.0000000E+000	0.0000000E+000	0.0000000E+000	0.164052	349.253	0.164052	-0.00119649
8023.44	0.126387	0.00170705	0.126399	-0.77382	277.219	-0.000654972	-3.57211	11620.2	2.11944	2	65	0.0101825	0.080559	0	-0.261506	7.91076	0.106847	7.91148	0.77382	2119.44	156920	156934	-89.2262	0.0000000E+000	0.0000000E+000	0.0000000E+000	89.2262	0.0000000E+000	0.0000000E+000	0.0000000E+000	-89.2262	0.0000000E+000	0.0000000E+000	0.0000000E+000	-0.77382	0.0000000E+000	0.0000000E+000	0.0000000E+000	0.77382	74.0383	0.77382	-0.00111068
4471.43	0.127592	0.00261043	0.127619	-1.17206	278.52	-0.000640991	-3.48566	13635.2	5.70502	2	65	0.0101945	0.0798823	0	-0.26262	7.83421	0.160282	7.83585	1.17206	5705.01	278849	278907	-88.8279	0.0000000E+000	0.0000000E+000	0.0000000E+000	88.8279	0.0000000E+000	0.0000000E+000	0.0000000E+000	-88.8279	0.0000000E+000	0.0000000E+000	0.0000000E+000	-1.17206	0.0000000E+000	0.0000000E+000	0.0000000E+000	1.17206	48.8778	1.17206	-0.000404143
2492.39	0.129031	0.00303224	0.129067	-1.34621	279.904	-0.000645018	-3.54006	21059.1	11.6235	2	65	0.010131	0.0784943	0	-0.263493	7.74577	0.182026	7.74791	1.34621	11623.5	494617	494753	-88.6538	0.0000000E+000	0.0000000E+000	0.0000000E+000	88.6538	0.0000000E+000	0.0000000E+000	0.0000000E+000	-88.6538	0.0000000E+000	0.0000000E+000	0.0000000E+000	-1.34621	0.0000000E+000	0.0000000E+000	0.0000000E+000	1.34621	42.5531	1.34621	-0.000413226
1388.67	0.130178	0.00342073	0.130223	-1.50524	281.287	-0.000644365	-3.55348	33504.5	23.1189	2	65	0.0101027	0.0775803	0	-0.264323	7.67651	0.201719	7.67916	1.50524	23119	879803	880106	-88.4948	0.0000000E+000	0.0000000E+000	0.0000000E+000	88.4948	0.0000000E+000	0.0000000E+000	0.0000000E+000	-88.4948	0.0000000E+000	0.0000000E+000	0.0000000E+000	-1.50524	0.0000000E+000	0.0000000E+000	0.0000000E+000	1.50524	38.0555	1.50524	-0.000385073
773.765	0.131475	0.00355672	0.131523	-1.54961	282.67	-0.000648541	-3.29487	57831.1	42.2918	2	65	0.0100975	0.0767735	0	-0.26617	7.60045	0.205611	7.60323	1.54961	42291.9	1.56333e+06	1.5639e+06	-88.4504	0.0000000E+000	0.0000000E+000	0.0000000E+000	88.4504	0.0000000E+000	0.0000000E+000	0.0000000E+000	-88.4504	0.0000000E+000	0.0000000E+000	0.0000000E+000	-1.54961	0.0000000E+000	0.0000000E+000	0.0000000E+000	1.54961	36.9653	1.54961	-0.000880121
431.242	0.132708	0.00376862	0.132761	-1.62664	284.053	-0.000653425	-3.30716	97930.3	78.9111	2	65	0.0100843	0.0759584	0	-0.267985	7.52928	0.213815	7.53231	1.62664	78911.1	2.77877e+06	2.77989e+06	-88.3734	0.0000000E+000	0.0000000E+000	0.0000000E+000	88.3734	0.0000000E+000	0.0000000E+000	0.0000000E+000	-88.3734	0.0000000E+000	0.0000000E+000	0.0000000E+000	-1.62664	0.0000000E+000	0.0000000E+000	0.0000000E+000	1.62664	35.2139	1.62664	-0.000872375
240.385	0.134311	0.00416797	0.134376	-1.77745	285.432	-0.00066295	-3.62912	158851	152.826	2	65	0.0100828	0.0750347	0	-0.269341	7.43825	0.230826	7.44183	1.77745	152826	4.92475e+06	4.92712e+06	-88.2226	0.0000000E+000	0.0000000E+000	0.0000000E+000	88.2226	0.0000000E+000	0.0000000E+000	0.0000000E+000	-88.2226	0.0000000E+000	0.0000000E+000	0.0000000E+000	-1.77745	0.0000000E+000	0.0000000E+000	0.0000000E+000	1.77745	32.2245	1.77745	-0.000703617
133.929	0.13579	0.00448808	0.135864	-1.89303	286.821	-0.000658942	-3.6349	264780	288.934	2	65	0.0100769	0.0741692	0	-0.270733	7.35629	0.243138	7.36031	1.89303	288935	8.74189e+06	8.74667e+06	-88.107	0.0000000E+000	0.0000000E+000	0.0000000E+000	88.107	0.0000000E+000	0.0000000E+000	0.0000000E+000	-88.107	0.0000000E+000	0.0000000E+000	0.0000000E+000	-1.89303	0.0000000E+000	0.0000000E+000	0.0000000E+000	1.89303	30.2556	1.89303	-0.00102135
74.6414	0.13751	0.00477716	0.137593	-1.98968	288.208	-0.000657395	-3.6403	446345	538.041	2	65	0.0100764	0.0732334	0	-0.271543	7.26341	0.252334	7.26779	1.98968	538041	1.54875e+07	1.54968e+07	-88.0103	0.0000000E+000	0.0000000E+000	0.0000000E+000	88.0103	0.0000000E+000	0.0000000E+000	0.0000000E+000	-88.0103	0.0000000E+000	0.0000000E+000	0.0000000E+000	-1.98968	0.0000000E+000	0.0000000E+000	0.0000000E+000	1.98968	28.785	1.98968	-0.000491438
41.6112	0.139694	0.00493086	0.139781	-2.02156	289.559	-0.000649137	-3.45585	775689	965.238	2	65	0.0100807	0.0721179	0	-0.272727	7.14958	0.252362	7.15403	2.02156	965239	2.73458e+07	2.73628e+07	-87.9784	0.0000000E+000	0.0000000E+000	0.0000000E+000	87.9784	0.0000000E+000	0.0000000E+000	0.0000000E+000	-87.9784	0.0000000E+000	0.0000000E+000	0.0000000E+000	-2.02156	0.0000000E+000	0.0000000E+000	0.0000000E+000	2.02156	28.3306	2.02156	-0.000717932
23.1963	0.141876	0.00497861	0.141964	-2.00975	290.968	-0.000648168	-3.63332	1.37814e+06	1694.94	2	65	0.0100786	0.0709943	0	-0.273347	7.03972	0.247032	7.04405	2.00975	1.69494e+06	4.83011e+07	4.83309e+07	-87.9903	0.0000000E+000	0.0000000E+000	0.0000000E+000	87.9903	0.0000000E+000	0.0000000E+000	0.0000000E+000	-87.9903	0.0000000E+000	0.0000000E+000	0.0000000E+000	-2.00975	0.0000000E+000	0.0000000E+000	0.0000000E+000	2.00975	28.4972	2.00975	-0.000283326
12.9203	0.147091	0.00398937	0.147145	-1.55358	292.664	-0.00065952	-2.19611	3.08775e+06	2269.65	2	37	0.0100791	0.0684978	0	-0.274858	6.79352	0.184252	6.79601	1.55358	2.26965e+06	8.36836e+07	8.37144e+07	-88.4464	0.0000000E+000	0.0000000E+000	0.0000000E+000	88.4464	0.0000000E+000	0.0000000E+000	0.0000000E+000	-88.4464	0.0000000E+000	0.0000000E+000	0.0000000E+000	-1.55358	0.0000000E+000	0.0000000E+000	0.0000000E+000	1.55358	36.8707	1.55358	-0.000909554
7.20046	0.148754	0.00310709	0.148787	-1.19659	293.885	-0.000650181	-3.91519	7.11386e+06	3102.31	2	37	0.0100797	0.0677459	0	-0.275848	6.71956	0.140354	6.72103	1.19659	3.10231e+06	1.48525e+08	1.48558e+08	-88.8034	0.0000000E+000	0.0000000E+000	0.0000000E+000	88.8034	0.0000000E+000	0.0000000E+000	0.0000000E+000	-88.8034	0.0000000E+000	0.0000000E+000	0.0000000E+000	-1.19659	0.0000000E+000	0.0000000E+000	0.0000000E+000	1.19659	47.8757	1.19659	-3.57758e-05
4.01052	0.149235	0.00248364	0.149256	-0.953453	295.381	-0.000647637	-3.96992	1.59783e+07	4424.29	2	37	0.0100806	0.0675391	0	-0.277036	6.69896	0.111487	6.69989	0.953453	4.42429e+06	2.65844e+08	2.65881e+08	-89.0465	0.0000000E+000	0.0000000E+000	0.0000000E+000	89.0465	0.0000000E+000	0.0000000E+000	0.0000000E+000	-89.0465	0.0000000E+000	0.0000000E+000	0.0000000E+000	-0.953453	0.0000000E+000	0.0000000E+000	0.0000000E+000	0.953453	60.0874	0.953453	0.000167273
2.23725	0.149847	0.00235891	0.149865	-0.901885	297.932	-0.00064821	-3.90728	3.01573e+07	7471.61	2	37	0.0100791	0.0672545	0	-0.281727	6.67183	0.105029	6.67265	0.901885	7.47162e+06	4.74624e+08	4.74683e+08	-89.0981	0.0000000E+000	0.0000000E+000	0.0000000E+000	89.0981	0.0000000E+000	0.0000000E+000	0.0000000E+000	-89.0981	0.0000000E+000	0.0000000E+000	0.0000000E+000	-0.901885	0.0000000E+000	0.0000000E+000	0.0000000E+000	0.901885	63.5237	0.901885	-0.00219034
1.24562	0.150394	0.00275178	0.15042	-1.04823	302.402	-0.000664822	-3.97864	4.64325e+07	15539.6	2	37	0.0100792	0.067007	0	-0.282943	6.64696	0.12162	6.64807	1.04823	1.55396e+07	8.49294e+08	8.49436e+08	-88.9518	0.0000000E+000	0.0000000E+000	0.0000000E+000	88.9518	0.0000000E+000	0.0000000E+000	0.0000000E+000	-88.9518	0.0000000E+000	0.0000000E+000	0.0000000E+000	-1.04823	0.0000000E+000	0.0000000E+000	0.0000000E+000	1.04823	54.6536	1.04823	-0.000974959
0.694753	0.151588	0.00320159	0.151622	-1.20993	310.317	-0.000658469	-3.8907	7.15524e+07	31903.1	2	37	0.0100832	0.0665026	0	-0.295462	6.5939	0.139266	6.59537	1.20993	3.19032e+07	1.51054e+09	1.51088e+09	-88.7901	0.0000000E+000	0.0000000E+000	0.0000000E+000	88.7901	0.0000000E+000	0.0000000E+000	0.0000000E+000	-88.7901	0.0000000E+000	0.0000000E+000	0.0000000E+000	-1.20993	0.0000000E+000	0.0000000E+000	0.0000000E+000	1.20993	47.3477	1.20993	-0.00817019
0.386872	0.153128	0.00306948	0.153159	-1.14835	324.431	-0.00065746	-3.71895	1.34025e+08	53830.9	2	37	0.0100794	0.06581	0	-0.314972	6.52784	0.130852	6.52915	1.14835	5.38308e+07	2.68548e+09	2.68602e+09	-88.8517	0.0000000E+000	0.0000000E+000	0.0000000E+000	88.8517	0.0000000E+000	0.0000000E+000	0.0000000E+000	-88.8517	0.0000000E+000	0.0000000E+000	0.0000000E+000	-1.14835	0.0000000E+000	0.0000000E+000	0.0000000E+000	1.14835	49.8874	1.14835	-0.00922238
0.215779	0.154338	0.00236439	0.154357	-0.877675	349.657	-0.000665232	-3.80558	3.11954e+08	73194.7	2	37	0.0100799	0.0653028	0	-0.327917	6.47775	0.0992359	6.47851	0.877675	7.31949e+07	4.77787e+09	4.77843e+09	-89.1223	0.0000000E+000	0.0000000E+000	0.0000000E+000	89.1223	0.0000000E+000	0.0000000E+000	0.0000000E+000	-89.1223	0.0000000E+000	0.0000000E+000	0.0000000E+000	-0.877675	0.0000000E+000	0.0000000E+000	0.0000000E+000	0.877675	65.2762	0.877675	-0.00603165
0.120214	0.154626	0.00144591	0.154632	-0.535761	394.838	-0.000653757	-3.68339	9.15633e+08	80058.1	2	37	0.0100797	0.065185	0	-0.359854	6.46667	0.0604702	6.46695	0.535761	8.00579e+07	8.5614e+09	8.56177e+09	-89.4642	0.0000000E+000	0.0000000E+000	0.0000000E+000	89.4642	0.0000000E+000	0.0000000E+000	0.0000000E+000	-89.4642	0.0000000E+000	0.0000000E+000	0.0000000E+000	-0.535761	0.0000000E+000	0.0000000E+000	0.0000000E+000	0.535761	106.94	0.535761	-0.0220418
0.0669968	0.154298	0.000943134	0.154301	-0.350212	475.818	-0.00064694	-3.49086	2.51879e+09	94103.1	2	37	0.0100842	0.0653541	0	-0.472595	6.48074	0.039613	6.48086	0.350212	9.41032e+07	1.53954e+10	1.53957e+10	-89.6498	0.0000000E+000	0.0000000E+000	0.0000000E+000	89.6498	0.0000000E+000	0.0000000E+000	0.0000000E+000	-89.6498	0.0000000E+000	0.0000000E+000	0.0000000E+000	-0.350212	0.0000000E+000	0.0000000E+000	0.0000000E+000	0.350212	163.601	0.350212	-0.0693666
199998	0.118351	-0.0270809	0.12141	12.8884	539.125	-0.000558374	-20.459	-29.3853	-1.462	3	65	0.00965214	0.0795003	0	-0.573081	8.02904	-1.83719	8.23655	-12.8884	-1462	6389.36	6554.5	-102.888	0.0000000E+000	0.0000000E+000	0.0000000E+000	102.888	0.0000000E+000	0.0000000E+000	0.0000000E+000	-102.888	0.0000000E+000	0.0000000E+000	0.0000000E+000	12.8884	0.0000000E+000	0.0000000E+000	0.0000000E+000	-12.8884	-4.37028	-12.8884	-0.00434543
111453	0.120364	-0.0144029	0.121222	6.82367	540.277	-0.00055528	-2.73367	-99.1461	-1.39963	3	65	0.0109332	0.090191	0	-0.573777	8.19087	-0.980133	8.2493	-6.82367	-1399.63	11696.5	11780	-96.8237	0.0000000E+000	0.0000000E+000	0.0000000E+000	96.8237	0.0000000E+000	0.0000000E+000	0.0000000E+000	-96.8237	0.0000000E+000	0.0000000E+000	0.0000000E+000	6.82367	0.0000000E+000	0.0000000E+000	0.0000000E+000	-6.82367	-8.35689	-6.82367	-0.000170295
62110.3	0.121319	-0.00715484	0.12153	3.37514	541.429	-0.000556715	-2.60213	-358.143	-1.24134	3	65	0.0109844	0.0903849	0	-0.574638	8.21417	-0.484435	8.22845	-3.37514	-1241.34	21048.5	21085	-93.3751	0.0000000E+000	0.0000000E+000	0.0000000E+000	93.3751	0.0000000E+000	0.0000000E+000	0.0000000E+000	-93.3751	0.0000000E+000	0.0000000E+000	0.0000000E+000	3.37514	0.0000000E+000	0.0000000E+000	0.0000000E+000	-3.37514	-16.9562	-3.37514	-0.000867598
34618.1	0.122004	-0.00277034	0.122036	1.30079	542.582	-0.00055994	-2.64834	-1659.52	-0.855219	3	65	0.0109284	0.0895508	0	-0.576023	8.19222	-0.18602	8.19433	-1.30079	-855.219	37663.3	37673	-91.3008	0.0000000E+000	0.0000000E+000	0.0000000E+000	91.3008	0.0000000E+000	0.0000000E+000	0.0000000E+000	-91.3008	0.0000000E+000	0.0000000E+000	0.0000000E+000	1.30079	0.0000000E+000	0.0000000E+000	0.0000000E+000	-1.30079	-44.0394	-1.30079	-0.00154347
19290	0.122861	-0.000237172	0.122861	0.110605	543.734	-0.00056365	-2.59915	-34787.5	-0.129635	3	65	0.0107324	0.0873543	0	-0.575811	8.13926	-0.0157122	8.13928	-0.110605	-129.634	67154.1	67154.3	-90.1106	0.0000000E+000	0.0000000E+000	0.0000000E+000	90.1106	0.0000000E+000	0.0000000E+000	0.0000000E+000	-90.1106	0.0000000E+000	0.0000000E+000	0.0000000E+000	0.110605	0.0000000E+000	0.0000000E+000	0.0000000E+000	-0.110605	-518.023	-0.110605	0.000288417
10753.8	0.123969	0.00140656	0.123977	-0.650054	544.886	-0.000557274	-2.67331	10522.1	1.35436	3	65	0.0101688	0.0820217	0	-0.576913	8.0655	0.0915116	8.06602	0.650054	1354.37	119369	119376	-89.3499	0.0000000E+000	0.0000000E+000	0.0000000E+000	89.3499	0.0000000E+000	0.0000000E+000	0.0000000E+000	-89.3499	0.0000000E+000	0.0000000E+000	0.0000000E+000	-0.650054	0.0000000E+000	0.0000000E+000	0.0000000E+000	0.650054	88.1363	0.650054	-0.000687878
5992.11	0.125215	0.0023541	0.125238	-1.07706	546.143	-0.000664087	-3.54174	11282.8	3.98654	3	65	0.0103528	0.0826656	0	-0.577571	7.98342	0.150091	7.98483	1.07706	3986.54	212045	212083	-88.9229	0.0000000E+000	0.0000000E+000	0.0000000E+000	88.9229	0.0000000E+000	0.0000000E+000	0.0000000E+000	-88.9229	0.0000000E+000	0.0000000E+000	0.0000000E+000	-1.07706	0.0000000E+000	0.0000000E+000	0.0000000E+000	1.07706	53.1904	1.07706	-0.000174954
3338.93	0.126379	0.00304126	0.126415	-1.37854	547.528	-0.000664814	-3.33548	15673.3	9.07124	3	65	0.0103601	0.0819527	0	-0.579152	7.90815	0.190307	7.91044	1.37854	9071.26	376953	377062	-88.6215	0.0000000E+000	0.0000000E+000	0.0000000E+000	88.6215	0.0000000E+000	0.0000000E+000	0.0000000E+000	-88.6215	0.0000000E+000	0.0000000E+000	0.0000000E+000	-1.37854	0.0000000E+000	0.0000000E+000	0.0000000E+000	1.37854	41.5547	1.37854	-0.00102003
1860.6	0.127852	0.00335775	0.127896	-1.50441	548.911	-0.000663975	-3.45752	25475.3	17.5592	3	65	0.0103313	0.0807789	0	-0.580691	7.81618	0.205275	7.81887	1.50441	17559.2	668594	668824	-88.4956	0.0000000E+000	0.0000000E+000	0.0000000E+000	88.4956	0.0000000E+000	0.0000000E+000	0.0000000E+000	-88.4956	0.0000000E+000	0.0000000E+000	0.0000000E+000	-1.50441	0.0000000E+000	0.0000000E+000	0.0000000E+000	1.50441	38.0766	1.50441	-0.000808134
1036.66	0.129138	0.00358292	0.129188	-1.58925	550.294	-0.000662466	-3.48044	42849.7	32.9592	3	65	0.0103241	0.0799151	0	-0.582009	7.73768	0.21468	7.74065	1.58925	32959.1	1.18794e+06	1.1884e+06	-88.4108	0.0000000E+000	0.0000000E+000	0.0000000E+000	88.4108	0.0000000E+000	0.0000000E+000	0.0000000E+000	-88.4108	0.0000000E+000	0.0000000E+000	0.0000000E+000	-1.58925	0.0000000E+000	0.0000000E+000	0.0000000E+000	1.58925	36.0428	1.58925	-0.000307434
577.965	0.130511	0.00378287	0.130565	-1.66026	551.68	-0.000664516	-3.59465	72794.2	61.1059	3	65	0.0103193	0.0790358	0	-0.58263	7.65578	0.221904	7.65899	1.66026	61105.9	2.10818e+06	2.10906e+06	-88.3397	0.0000000E+000	0.0000000E+000	0.0000000E+000	88.3397	0.0000000E+000	0.0000000E+000	0.0000000E+000	-88.3397	0.0000000E+000	0.0000000E+000	0.0000000E+000	-1.66026	0.0000000E+000	0.0000000E+000	0.0000000E+000	1.66026	34.5004	1.66026	-0.000298559
321.957	0.131931	0.00394498	0.13199	-1.71275	553.058	-0.000645185	-3.3325	125307	111.941	3	65	0.0103085	0.0781012	0	-0.583892	7.57297	0.226447	7.57636	1.71275	111941	3.74359e+06	3.74526e+06	-88.2873	0.0000000E+000	0.0000000E+000	0.0000000E+000	88.2873	0.0000000E+000	0.0000000E+000	0.0000000E+000	-88.2873	0.0000000E+000	0.0000000E+000	0.0000000E+000	-1.71275	0.0000000E+000	0.0000000E+000	0.0000000E+000	1.71275	33.4426	1.71275	-0.000824265
179.483	0.133346	0.00403549	0.133407	-1.73343	554.44	-0.000655401	-3.47168	219736	201.065	3	65	0.0103049	0.0772444	0	-0.585638	7.49244	0.226746	7.49587	1.73343	201065	6.64385e+06	6.64689e+06	-88.2666	0.0000000E+000	0.0000000E+000	0.0000000E+000	88.2666	0.0000000E+000	0.0000000E+000	0.0000000E+000	-88.2666	0.0000000E+000	0.0000000E+000	0.0000000E+000	-1.73343	0.0000000E+000	0.0000000E+000	0.0000000E+000	1.73343	33.0433	1.73343	-0.00094324
99.9682	0.134947	0.00462139	0.135026	-1.96138	555.829	-0.000659949	-3.41579	344498	403.548	3	65	0.0103067	0.0763313	0	-0.586939	7.40164	0.253476	7.40598	1.96138	403548	1.17838e+07	1.17907e+07	-88.0386	0.0000000E+000	0.0000000E+000	0.0000000E+000	88.0386	0.0000000E+000	0.0000000E+000	0.0000000E+000	-88.0386	0.0000000E+000	0.0000000E+000	0.0000000E+000	-1.96138	0.0000000E+000	0.0000000E+000	0.0000000E+000	1.96138	29.2005	1.96138	-0.000987125
55.7312	0.136855	0.00473094	0.136937	-1.97987	557.207	-0.000664442	-3.4469	603635	720.493	3	65	0.0103081	0.0752767	0	-0.588812	7.29829	0.252295	7.30265	1.97987	720494	2.08422e+07	2.08546e+07	-88.0201	0.0000000E+000	0.0000000E+000	0.0000000E+000	88.0201	0.0000000E+000	0.0000000E+000	0.0000000E+000	-88.0201	0.0000000E+000	0.0000000E+000	0.0000000E+000	-1.97987	0.0000000E+000	0.0000000E+000	0.0000000E+000	1.97987	28.9276	1.97987	-0.00094831
31.0636	0.139032	0.00476662	0.139113	-1.96358	558.546	-0.000658719	-3.27922	1.07487e+06	1261.95	3	65	0.010309	0.0741053	0	-0.590344	7.18417	0.246305	7.18839	1.96358	1.26195e+06	3.68082e+07	3.68298e+07	-88.0364	0.0000000E+000	0.0000000E+000	0.0000000E+000	88.0364	0.0000000E+000	0.0000000E+000	0.0000000E+000	-88.0364	0.0000000E+000	0.0000000E+000	0.0000000E+000	-1.96358	0.0000000E+000	0.0000000E+000	0.0000000E+000	1.96358	29.1678	1.96358	-0.000892159
17.3099	0.141282	0.00425089	0.141346	-1.72339	559.894	-0.000669419	-3.56074	2.16295e+06	1956.32	3	65	0.0103063	0.0729156	0	-0.592099	7.07164	0.212771	7.07484	1.72339	1.95632e+06	6.502e+07	6.50494e+07	-88.2766	0.0000000E+000	0.0000000E+000	0.0000000E+000	88.2766	0.0000000E+000	0.0000000E+000	0.0000000E+000	-88.2766	0.0000000E+000	0.0000000E+000	0.0000000E+000	-1.72339	0.0000000E+000	0.0000000E+000	0.0000000E+000	1.72339	33.2359	1.72339	-0.000634482
9.64507	0.146064	0.00344261	0.146104	-1.35017	561.693	-0.000661291	-3.56626	4.79322e+06	2661.2	3	37	0.0103099	0.0705655	0	-0.593182	6.84253	0.161273	6.84443	1.35017	2.66119e+06	1.1291e+08	1.12941e+08	-88.6498	0.0000000E+000	0.0000000E+000	0.0000000E+000	88.6498	0.0000000E+000	0.0000000E+000	0.0000000E+000	-88.6498	0.0000000E+000	0.0000000E+000	0.0000000E+000	-1.35017	0.0000000E+000	0.0000000E+000	0.0000000E+000	1.35017	42.4282	1.35017	-0.000539036
5.37311	0.147035	0.00253298	0.147057	-0.986938	562.855	-0.000662745	-3.73033	1.1694e+07	3469.4	3	37	0.0103125	0.0701259	0	-0.594154	6.79907	0.117128	6.80008	0.986938	3.4694e+06	2.01393e+08	2.01423e+08	-89.0131	0.0000000E+000	0.0000000E+000	0.0000000E+000	89.0131	0.0000000E+000	0.0000000E+000	0.0000000E+000	-89.0131	0.0000000E+000	0.0000000E+000	0.0000000E+000	-0.986938	0.0000000E+000	0.0000000E+000	0.0000000E+000	0.986938	58.0483	0.986938	0.000103924
2.99674	0.147534	0.00233762	0.147552	-0.907753	564.799	-0.000656761	-3.55412	2.27194e+07	5702.31	3	37	0.0103084	0.0698624	0	-0.596087	6.7764	0.107369	6.77725	0.907753	5.70231e+06	3.5989e+08	3.59935e+08	-89.0922	0.0000000E+000	0.0000000E+000	0.0000000E+000	89.0922	0.0000000E+000	0.0000000E+000	0.0000000E+000	-89.0922	0.0000000E+000	0.0000000E+000	0.0000000E+000	-0.907753	0.0000000E+000	0.0000000E+000	0.0000000E+000	0.907753	63.113	0.907753	0.000134304
1.66934	0.148036	0.00240489	0.148055	-0.930709	568.168	-0.000659759	-3.56362	3.96442e+07	10459.8	3	37	0.0103104	0.0696391	0	-0.600259	6.75335	0.109711	6.75424	0.930709	1.04598e+07	6.43865e+08	6.4395e+08	-89.0693	0.0000000E+000	0.0000000E+000	0.0000000E+000	89.0693	0.0000000E+000	0.0000000E+000	0.0000000E+000	-89.0693	0.0000000E+000	0.0000000E+000	0.0000000E+000	-0.930709	0.0000000E+000	0.0000000E+000	0.0000000E+000	0.930709	61.556	0.930709	-0.00360183
0.930391	0.148978	0.00299927	0.149008	-1.15334	574.111	-0.000657836	-3.51882	5.70346e+07	23107.3	3	37	0.0103103	0.0691928	0	-0.607903	6.70968	0.135081	6.71104	1.15334	2.31074e+07	1.14777e+09	1.14801e+09	-88.8467	0.0000000E+000	0.0000000E+000	0.0000000E+000	88.8467	0.0000000E+000	0.0000000E+000	0.0000000E+000	-88.8467	0.0000000E+000	0.0000000E+000	0.0000000E+000	-1.15334	0.0000000E+000	0.0000000E+000	0.0000000E+000	1.15334	49.6714	1.15334	-0.00303906
0.518689	0.150456	0.00321398	0.15049	-1.22374	584.673	-0.000649698	-3.53546	9.54707e+07	43545	3	37	0.0103081	0.0684968	0	-0.611015	6.64343	0.141914	6.64494	1.22374	4.35449e+07	2.03847e+09	2.03894e+09	-88.7763	0.0000000E+000	0.0000000E+000	0.0000000E+000	88.7763	0.0000000E+000	0.0000000E+000	0.0000000E+000	-88.7763	0.0000000E+000	0.0000000E+000	0.0000000E+000	-1.22374	0.0000000E+000	0.0000000E+000	0.0000000E+000	1.22374	46.813	1.22374	-0.00173701
0.288924	0.151872	0.00270188	0.151896	-1.01921	603.541	-0.000649329	-3.54903	2.03878e+08	64507.3	3	37	0.0103078	0.067861	0	-0.631794	6.5824	0.117104	6.58344	1.01921	6.45072e+07	3.62594e+09	3.62652e+09	-88.9808	0.0000000E+000	0.0000000E+000	0.0000000E+000	88.9808	0.0000000E+000	0.0000000E+000	0.0000000E+000	-88.9808	0.0000000E+000	0.0000000E+000	0.0000000E+000	-1.01921	0.0000000E+000	0.0000000E+000	0.0000000E+000	1.01921	56.2098	1.01921	-0.0143646
0.161059	0.152693	0.00183486	0.152704	-0.688468	637.291	-0.000647451	-3.48569	5.38558e+08	77756.1	3	37	0.0103085	0.0675066	0	-0.684573	6.54814	0.0786864	6.54861	0.688468	7.77562e+07	6.47072e+09	6.47118e+09	-89.3115	0.0000000E+000	0.0000000E+000	0.0000000E+000	89.3115	0.0000000E+000	0.0000000E+000	0.0000000E+000	-89.3115	0.0000000E+000	0.0000000E+000	0.0000000E+000	-0.688468	0.0000000E+000	0.0000000E+000	0.0000000E+000	0.688468	83.2181	0.688468	-0.0298561
0.0897631	0.152779	0.00114064	0.152783	-0.427762	697.773	-0.000663703	-3.59331	1.55443e+09	86640.9	3	37	0.0103068	0.0674605	0	-0.746325	6.54505	0.0488653	6.54523	0.427762	8.66415e+07	1.16047e+10	1.16051e+10	-89.5722	0.0000000E+000	0.0000000E+000	0.0000000E+000	89.5722	0.0000000E+000	0.0000000E+000	0.0000000E+000	-89.5722	0.0000000E+000	0.0000000E+000	0.0000000E+000	-0.427762	0.0000000E+000	0.0000000E+000	0.0000000E+000	0.427762	133.941	0.427762	-0.0289967
0.049976	0.152522	0.00066327	0.152523	-0.24916	806.268	-0.000644741	-3.39529	4.8014e+09	90798.3	3	37	0.0103084	0.0675857	0	-0.787582	6.55633	0.0285115	6.55639	0.24916	9.07985e+07	2.08794e+10	2.08796e+10	-89.7508	0.0000000E+000	0.0000000E+000	0.0000000E+000	89.7508	0.0000000E+000	0.0000000E+000	0.0000000E+000	-89.7508	0.0000000E+000	0.0000000E+000	0.0000000E+000	-0.24916	0.0000000E+000	0.0000000E+000	0.0000000E+000	0.24916	229.954	0.24916	-0.0205395
149300	0.118546	-0.0195217	0.120143	9.35129	808.019	-0.000540982	-2.62505	-54.6062	-1.44172	4	65	0.0107455	0.0894394	0	-0.793211	8.21281	-1.35245	8.32342	-9.35129	-1441.72	8754.9	8872.81	-99.3513	0.0000000E+000	0.0000000E+000	0.0000000E+000	99.3513	0.0000000E+000	0.0000000E+000	0.0000000E+000	-99.3513	0.0000000E+000	0.0000000E+000	0.0000000E+000	9.35129	0.0000000E+000	0.0000000E+000	0.0000000E+000	-9.35129	-6.07254	-9.35129	-0.000581632
83200.3	0.119692	-0.01021	0.120126	4.87568	809.171	-0.000544654	-2.67889	-187.356	-1.35346	4	65	0.0109675	0.0912994	0	-0.793854	8.29444	-0.707538	8.32457	-4.87568	-1353.46	15866.5	15924.2	-94.8757	0.0000000E+000	0.0000000E+000	0.0000000E+000	94.8757	0.0000000E+000	0.0000000E+000	0.0000000E+000	-94.8757	0.0000000E+000	0.0000000E+000	0.0000000E+000	4.87568	0.0000000E+000	0.0000000E+000	0.0000000E+000	-4.87568	-11.723	-4.87568	-0.000130823
46364.7	0.120291	-0.00468405	0.120382	2.22993	810.323	-0.00053539	-2.5999	-732.843	-1.10951	4	65	0.0109587	0.0910328	0	-0.79411	8.30058	-0.323219	8.30687	-2.22993	-1109.51	28493.2	28514.8	-92.2299	0.0000000E+000	0.0000000E+000	0.0000000E+000	92.2299	0.0000000E+000	0.0000000E+000	0.0000000E+000	-92.2299	0.0000000E+000	0.0000000E+000	0.0000000E+000	2.22993	0.0000000E+000	0.0000000E+000	0.0000000E+000	-2.22993	-25.681	-2.22993	0.000281409
25840.6	0.12119	-0.00135226	0.121197	0.639293	811.475	-0.000546313	-2.67088	-4554.65	-0.567011	4	65	0.0108686	0.0896766	0	-0.794264	8.25049	-0.0920608	8.251	-0.639293	-567.009	50815.5	50818.7	-90.6393	0.0000000E+000	0.0000000E+000	0.0000000E+000	90.6393	0.0000000E+000	0.0000000E+000	0.0000000E+000	-90.6393	0.0000000E+000	0.0000000E+000	0.0000000E+000	0.639293	0.0000000E+000	0.0000000E+000	0.0000000E+000	-0.639293	-89.6199	-0.639293	-4.45986e-05
14400.2	0.122193	0.000751831	0.122195	-0.352526	812.627	-0.000545307	-2.53487	14700.4	0.556495	4	65	0.0104335	0.0853837	0	-0.79548	8.18346	0.0503513	8.18361	0.352526	556.492	90445.6	90447.3	-89.6475	0.0000000E+000	0.0000000E+000	0.0000000E+000	89.6475	0.0000000E+000	0.0000000E+000	0.0000000E+000	-89.6475	0.0000000E+000	0.0000000E+000	0.0000000E+000	-0.352526	0.0000000E+000	0.0000000E+000	0.0000000E+000	0.352526	162.527	0.352526	-0.000512876
8023.44	0.123359	0.00198056	0.123375	-0.919817	813.852	-0.000648224	-3.2889	10015.5	2.58103	4	65	0.0101903	0.0825965	0	-0.797342	8.10433	0.130117	8.10537	0.919817	2581.02	160759	160780	-89.0802	0.0000000E+000	0.0000000E+000	0.0000000E+000	89.0802	0.0000000E+000	0.0000000E+000	0.0000000E+000	-89.0802	0.0000000E+000	0.0000000E+000	0.0000000E+000	-0.919817	0.0000000E+000	0.0000000E+000	0.0000000E+000	0.919817	62.2851	0.919817	-0.000650448
4471.43	0.124607	0.00272583	0.124637	-1.25317	815.153	-0.000666138	-3.44113	13057.9	6.24568	4	65	0.0103901	0.0833633	0	-0.798839	8.02139	0.175471	8.02331	1.25317	6245.7	285511	285580	-88.7468	0.0000000E+000	0.0000000E+000	0.0000000E+000	88.7468	0.0000000E+000	0.0000000E+000	0.0000000E+000	-88.7468	0.0000000E+000	0.0000000E+000	0.0000000E+000	-1.25317	0.0000000E+000	0.0000000E+000	0.0000000E+000	1.25317	45.7134	1.25317	-0.000977687
2492.39	0.125943	0.00311337	0.125982	-1.41608	816.537	-0.000642706	-3.4715	20510.4	12.5262	4	65	0.0103768	0.0823672	0	-0.800934	7.93522	0.196162	7.93765	1.41608	12526.2	506714	506869	-88.5839	0.0000000E+000	0.0000000E+000	0.0000000E+000	88.5839	0.0000000E+000	0.0000000E+000	0.0000000E+000	-88.5839	0.0000000E+000	0.0000000E+000	0.0000000E+000	-1.41608	0.0000000E+000	0.0000000E+000	0.0000000E+000	1.41608	40.4525	1.41608	-0.00104415
1388.67	0.127197	0.00353291	0.127246	-1.59099	817.92	-0.000646155	-3.33139	32440.6	25.0073	4	65	0.0103671	0.0814725	0	-0.802079	7.85576	0.218195	7.85879	1.59099	25007.2	900347	900694	-88.409	0.0000000E+000	0.0000000E+000	0.0000000E+000	88.409	0.0000000E+000	0.0000000E+000	0.0000000E+000	-88.409	0.0000000E+000	0.0000000E+000	0.0000000E+000	-1.59099	0.0000000E+000	0.0000000E+000	0.0000000E+000	1.59099	36.0034	1.59099	-0.000565779
773.765	0.128756	0.00369716	0.128809	-1.64476	819.303	-0.000644086	-3.37126	55634.3	45.8336	4	65	0.0103635	0.0804558	0	-0.803223	7.76021	0.222829	7.7634	1.64476	45833.5	1.59619e+06	1.59685e+06	-88.3552	0.0000000E+000	0.0000000E+000	0.0000000E+000	88.3552	0.0000000E+000	0.0000000E+000	0.0000000E+000	-88.3552	0.0000000E+000	0.0000000E+000	0.0000000E+000	-1.64476	0.0000000E+000	0.0000000E+000	0.0000000E+000	1.64476	34.8258	1.64476	-0.000650418
431.242	0.130068	0.0037402	0.130122	-1.64713	820.686	-0.000664535	-3.39306	98674.3	81.5259	4	65	0.0103563	0.0795891	0	-0.80482	7.68194	0.2209	7.68512	1.64713	81526	2.83511e+06	2.83628e+06	-88.3529	0.0000000E+000	0.0000000E+000	0.0000000E+000	88.3529	0.0000000E+000	0.0000000E+000	0.0000000E+000	-88.3529	0.0000000E+000	0.0000000E+000	0.0000000E+000	-1.64713	0.0000000E+000	0.0000000E+000	0.0000000E+000	1.64713	34.7756	1.64713	-0.000904503
240.385	0.131424	0.00401245	0.131486	-1.74873	822.065	-0.000666492	-3.40032	165007	153.662	4	65	0.0103488	0.0787066	0	-0.805514	7.60185	0.232088	7.60539	1.74873	153662	5.03307e+06	5.03541e+06	-88.2513	0.0000000E+000	0.0000000E+000	0.0000000E+000	88.2513	0.0000000E+000	0.0000000E+000	0.0000000E+000	-88.2513	0.0000000E+000	0.0000000E+000	0.0000000E+000	-1.74873	0.0000000E+000	0.0000000E+000	0.0000000E+000	1.74873	32.7541	1.74873	-0.000319336
133.929	0.132989	0.00434263	0.13306	-1.87027	823.455	-0.00065499	-3.40554	273649	291.476	4	65	0.010349	0.0777768	0	-0.806846	7.51139	0.245277	7.51539	1.87027	291476	8.92621e+06	8.93096e+06	-88.1297	0.0000000E+000	0.0000000E+000	0.0000000E+000	88.1297	0.0000000E+000	0.0000000E+000	0.0000000E+000	-88.1297	0.0000000E+000	0.0000000E+000	0.0000000E+000	-1.87027	0.0000000E+000	0.0000000E+000	0.0000000E+000	1.87027	30.6242	1.87027	-0.000414515
74.6414	0.13451	0.00460294	0.134588	-1.95991	824.842	-0.000647292	-3.26003	463239	541.827	4	65	0.0103436	0.076854	0	-0.808661	7.42572	0.254109	7.43007	1.95991	541828	1.58336e+07	1.58428e+07	-88.0401	0.0000000E+000	0.0000000E+000	0.0000000E+000	88.0401	0.0000000E+000	0.0000000E+000	0.0000000E+000	-88.0401	0.0000000E+000	0.0000000E+000	0.0000000E+000	-1.95991	0.0000000E+000	0.0000000E+000	0.0000000E+000	1.95991	29.2225	1.95991	-0.000803786
41.6112	0.136515	0.0046029	0.136593	-1.93112	826.193	-0.000655121	-3.28797	830957	943.596	4	65	0.0103498	0.0757714	0	-0.809966	7.31687	0.246704	7.32103	1.93112	943594	2.79857e+07	2.80016e+07	-88.0689	0.0000000E+000	0.0000000E+000	0.0000000E+000	88.0689	0.0000000E+000	0.0000000E+000	0.0000000E+000	-88.0689	0.0000000E+000	0.0000000E+000	0.0000000E+000	-1.93112	0.0000000E+000	0.0000000E+000	0.0000000E+000	1.93112	29.6585	1.93112	-0.000478164
23.1963	0.138814	0.00464929	0.138892	-1.91829	827.602	-0.000648326	-3.14395	1.47576e+06	1653.62	4	65	0.0103434	0.0744711	0	-0.811994	7.19582	0.241009	7.19985	1.91829	1.65362e+06	4.93722e+07	4.93998e+07	-88.0817	0.0000000E+000	0.0000000E+000	0.0000000E+000	88.0817	0.0000000E+000	0.0000000E+000	0.0000000E+000	-88.0817	0.0000000E+000	0.0000000E+000	0.0000000E+000	-1.91829	0.0000000E+000	0.0000000E+000	0.0000000E+000	1.91829	29.857	1.91829	-0.00113616
12.9203	0.144084	0.00369277	0.144131	-1.46813	829.298	-0.000644132	-1.6258	3.33575e+06	2189.69	4	37	0.0103493	0.0718049	0	-0.812954	6.93585	0.177761	6.93813	1.46813	2.18969e+06	8.54369e+07	8.5465e+07	-88.5319	0.0000000E+000	0.0000000E+000	0.0000000E+000	88.5319	0.0000000E+000	0.0000000E+000	0.0000000E+000	-88.5319	0.0000000E+000	0.0000000E+000	0.0000000E+000	-1.46813	0.0000000E+000	0.0000000E+000	0.0000000E+000	1.46813	39.0178	1.46813	-0.000403575
7.20046	0.145654	0.00271596	0.145679	-1.06825	830.519	-0.000641774	-3.61205	8.13834e+06	2828.72	4	37	0.0103489	0.0710388	0	-0.814422	6.86322	0.127976	6.86441	1.06825	2.82871e+06	1.51701e+08	1.51727e+08	-88.9317	0.0000000E+000	0.0000000E+000	0.0000000E+000	88.9317	0.0000000E+000	0.0000000E+000	0.0000000E+000	-88.9317	0.0000000E+000	0.0000000E+000	0.0000000E+000	-1.06825	0.0000000E+000	0.0000000E+000	0.0000000E+000	1.06825	53.6287	1.06825	-0.00100016
4.01052	0.145831	0.00226342	0.145848	-0.889211	832.014	-0.000650945	-3.46097	1.75329e+07	4222.63	4	37	0.0103508	0.0709698	0	-0.81639	6.85562	0.106405	6.85644	0.889211	4.22264e+06	2.72061e+08	2.72093e+08	-89.1108	0.0000000E+000	0.0000000E+000	0.0000000E+000	89.1108	0.0000000E+000	0.0000000E+000	0.0000000E+000	-89.1108	0.0000000E+000	0.0000000E+000	0.0000000E+000	-0.889211	0.0000000E+000	0.0000000E+000	0.0000000E+000	0.889211	64.4292	0.889211	-0.00190179
2.23725	0.146461	0.00235357	0.14648	-0.92064	834.565	-0.000645507	-3.41996	3.02258e+07	7803.24	4	37	0.0103483	0.0706462	0	-0.816981	6.82598	0.109691	6.82686	0.92064	7.80323e+06	4.8559e+08	4.85653e+08	-89.0794	0.0000000E+000	0.0000000E+000	0.0000000E+000	89.0794	0.0000000E+000	0.0000000E+000	0.0000000E+000	-89.0794	0.0000000E+000	0.0000000E+000	0.0000000E+000	-0.92064	0.0000000E+000	0.0000000E+000	0.0000000E+000	0.92064	62.2294	0.92064	-0.000994724
1.24562	0.147054	0.00260956	0.147077	-1.01664	839.035	-0.000648589	-3.43197	4.8963e+07	15414	4	37	0.0103495	0.0703681	0	-0.82483	6.7981	0.120637	6.79917	1.01664	1.54139e+07	8.68606e+08	8.68742e+08	-88.9834	0.0000000E+000	0.0000000E+000	0.0000000E+000	88.9834	0.0000000E+000	0.0000000E+000	0.0000000E+000	-88.9834	0.0000000E+000	0.0000000E+000	0.0000000E+000	-1.01664	0.0000000E+000	0.0000000E+000	0.0000000E+000	1.01664	56.3519	1.01664	-0.00404149
0.694753	0.148279	0.00316678	0.148313	-1.22347	846.951	-0.000645653	-3.41371	7.23388e+07	32980	4	37	0.0103479	0.0697705	0	-0.827746	6.74097	0.143966	6.74251	1.22347	3.29799e+07	1.54423e+09	1.54458e+09	-88.7765	0.0000000E+000	0.0000000E+000	0.0000000E+000	88.7765	0.0000000E+000	0.0000000E+000	0.0000000E+000	-88.7765	0.0000000E+000	0.0000000E+000	0.0000000E+000	-1.22347	0.0000000E+000	0.0000000E+000	0.0000000E+000	1.22347	46.8233	1.22347	-0.000663794
0.386872	0.149961	0.00306788	0.149993	-1.17198	861.065	-0.000654618	-3.63682	1.34096e+08	56098.5	4	37	0.0103457	0.0689745	0	-0.837956	6.6656	0.136364	6.667	1.17198	5.60985e+07	2.74216e+09	2.74273e+09	-88.828	0.0000000E+000	0.0000000E+000	0.0000000E+000	88.828	0.0000000E+000	0.0000000E+000	0.0000000E+000	-88.828	0.0000000E+000	0.0000000E+000	0.0000000E+000	-1.17198	0.0000000E+000	0.0000000E+000	0.0000000E+000	1.17198	48.8811	1.17198	-0.00799468
0.215779	0.15101	0.00233072	0.151028	-0.884244	886.291	-0.000635742	-3.43922	3.16461e+08	75367.5	4	37	0.0103471	0.068511	0	-0.877943	6.62049	0.102182	6.62128	0.884244	7.53678e+07	4.88316e+09	4.88374e+09	-89.1158	0.0000000E+000	0.0000000E+000	0.0000000E+000	89.1158	0.0000000E+000	0.0000000E+000	0.0000000E+000	-89.1158	0.0000000E+000	0.0000000E+000	0.0000000E+000	-0.884244	0.0000000E+000	0.0000000E+000	0.0000000E+000	0.884244	64.7912	0.884244	-0.0236954