File: Python/ImpedanceDataOld/dual layer tests _vanadium positive side single-tank symmetric cell_1.6 M total vanadium_ve=5cms_choose the cycle number=3/single-layer_Freudenberg H23 carbon paper.mpt
EC-Lab ASCII FILE
Nb header lines : 66

Potentio Electrochemical Impedance Spectroscopy

Run on channel : 1 (SN 5680)
User :
Electrode connection : standard
Potential control : Ewe
Ewe ctrl range : min = 0.00 V, max = 5.00 V
Ewe,I filtering : <None>
Safety Limits :
	Do not start on E overload
Channel : Floating
Acquisition started on : 06/29/2023 23:12:48.160
Loaded Setting File :  C:\Data\baili\Electrode Combination Tests\20230622\new tests\positive\ELAT_ve5_30mL_EIS_C01.mpr
Saved on :
	File : FrePaper_ve5_30mL_EIS_C01.mpr
	Directory : C:\Data\baili\Electrode Combination Tests\20230622\new tests\positive\
	Host : 192.168.0.1
Device : SP-300 (SN 0955)
Address : 192.168.0.4
EC-Lab for windows v11.46 (software)
Internet server v11.40 (firmware)
Command interpretor v11.46 (firmware)
Electrode material :
Initial state :
Electrolyte :
Comments :
Current amplifier : B-10A5V
Cable : standard
Electrode surface area : 0.001 cm2
Characteristic mass : 0.001 g
Equivalent Weight : 0.000 g/eq.
Density : 0.000 g/cm3
Volume (V) : 0.001 cm3
Cycle Definition : Charge/Discharge alternance
Mode                Single sine
E (V)               0.0000
vs.                 Eoc
tE (h:m:s)          0:00:0.0000
record              0
dI                  0.000
unit dI             mA
dt (s)              0.000
fi                  200.000
unit fi             kHz
ff                  50.000
unit ff             mHz
Nd                  8
Points              per decade
spacing             Logarithmic
Va (mV)             10.0
pw                  0.10
Na                  3
corr                0
E range min (V)     0.000
E range max (V)     5.000
I Range             Auto
Bandwidth           8
nc cycles           3
goto Ns'            0
nr cycles           0
inc. cycle          0

freq/Hz	Re(Z)/Ohm	-Im(Z)/Ohm	|Z|/Ohm	Phase(Z)/deg	time/s	<Ewe>/V	<I>/mA	Cs/uF	Cp/uF	cycle number	I Range	|Ewe|/V	|I|/A	Ns	(Q-Qo)/mA.h	Re(Y)/Ohm-1	Im(Y)/Ohm-1	|Y|/Ohm-1	Phase(Y)/deg	Re(C)/nF	Im(C)/nF	|C|/nF	Phase(C)/deg	Re(M)	Im(M)	|M|	Phase(M)/deg	Re(Permittivity)	Im(Permittivity)	|Permittivity|	Phase(Permittivity)/deg	Re(Resistivity)/Ohm.cm	Im(Resistivity)/Ohm.cm	|Resistivity|/Ohm.cm	Phase(Resistivity)/deg	Re(Conductivity)/mS/cm	Im(Conductivity)/mS/cm	|Conductivity|/mS/cm	Phase(Conductivity)/deg	Tan(Delta)	Loss Angle(Delta)/deg	dq/mA.h
199998	0.12016	-0.0239211	0.122518	11.259	1.3725	7.08192e-06	-16.5036	-33.2669	-1.26816	1	65	0.00964649	0.0787351	0	-0.00330302	8.00496	-1.5936	8.16204	-11.259	-1268.16	6370.2	6495.2	-101.259	0.0000000E+000	0.0000000E+000	0.0000000E+000	101.259	0.0000000E+000	0.0000000E+000	0.0000000E+000	-101.259	0.0000000E+000	0.0000000E+000	0.0000000E+000	11.259	0.0000000E+000	0.0000000E+000	0.0000000E+000	-11.259	-5.02319	-11.259	-0.00330302
111453	0.121487	-0.0132202	0.122204	6.21049	2.5255	4.56544e-06	1.08531	-108.016	-1.26414	1	65	0.010886	0.0890808	0	-0.00307932	8.13501	-0.885252	8.18303	-6.21049	-1264.14	11616.8	11685.3	-96.2105	0.0000000E+000	0.0000000E+000	0.0000000E+000	96.2105	0.0000000E+000	0.0000000E+000	0.0000000E+000	-96.2105	0.0000000E+000	0.0000000E+000	0.0000000E+000	6.21049	0.0000000E+000	0.0000000E+000	0.0000000E+000	-6.21049	-9.18948	-6.21049	0.000439969
62110.3	0.121805	-0.00703208	0.122007	3.30416	3.6775	6.14993e-06	1.13562	-364.395	-1.21051	1	65	0.0108571	0.0889876	0	-0.0020115	8.1826	-0.472402	8.19623	-3.30416	-1210.51	20967.6	21002.5	-93.3042	0.0000000E+000	0.0000000E+000	0.0000000E+000	93.3042	0.0000000E+000	0.0000000E+000	0.0000000E+000	-93.3042	0.0000000E+000	0.0000000E+000	0.0000000E+000	3.30416	0.0000000E+000	0.0000000E+000	0.0000000E+000	-3.30416	-17.3213	-3.30416	0.000158372
34618.1	0.122015	-0.00339011	0.122062	1.59152	4.82949	4.52815e-06	1.06109	-1356.13	-1.0461	1	65	0.010689	0.0875702	0	-0.00133389	8.18941	-0.227538	8.19257	-1.59152	-1046.1	37650.4	37664.9	-91.5915	0.0000000E+000	0.0000000E+000	0.0000000E+000	91.5915	0.0000000E+000	0.0000000E+000	0.0000000E+000	-91.5915	0.0000000E+000	0.0000000E+000	0.0000000E+000	1.59152	0.0000000E+000	0.0000000E+000	0.0000000E+000	-1.59152	-35.9913	-1.59152	-4.57016e-05
19290	0.122245	-0.00117736	0.122251	0.551806	5.98148	2.20693e-05	1.13227	-7007.74	-0.649969	1	65	0.0105101	0.0859718	0	-0.00121649	8.17952	-0.078778	8.1799	-0.551806	-649.966	67486.3	67489.4	-90.5518	0.0000000E+000	0.0000000E+000	0.0000000E+000	90.5518	0.0000000E+000	0.0000000E+000	0.0000000E+000	-90.5518	0.0000000E+000	0.0000000E+000	0.0000000E+000	0.551806	0.0000000E+000	0.0000000E+000	0.0000000E+000	-0.551806	-103.83	-0.551806	0.000824325
10753.8	0.122742	0.000232636	0.122742	-0.108594	7.1335	2.08949e-05	1.21369	63618.3	0.228533	1	65	0.01031	0.0839971	0	-0.000741461	8.14715	0.0154415	8.14717	0.108594	228.539	120577	120577	-89.8914	0.0000000E+000	0.0000000E+000	0.0000000E+000	89.8914	0.0000000E+000	0.0000000E+000	0.0000000E+000	-89.8914	0.0000000E+000	0.0000000E+000	0.0000000E+000	-0.108594	0.0000000E+000	0.0000000E+000	0.0000000E+000	0.108594	527.614	0.108594	0.00038183
5992.11	0.123313	0.00106306	0.123317	-0.493924	8.59615	-7.27575e-05	0.691061	24985.2	1.85672	1	65	0.0102017	0.082727	0	-0.000243786	8.10885	0.0699049	8.10915	0.493924	1856.74	215377	215385	-89.5061	0.0000000E+000	0.0000000E+000	0.0000000E+000	89.5061	0.0000000E+000	0.0000000E+000	0.0000000E+000	-89.5061	0.0000000E+000	0.0000000E+000	0.0000000E+000	-0.493924	0.0000000E+000	0.0000000E+000	0.0000000E+000	0.493924	115.998	0.493924	-1.22671e-05
3338.93	0.12404	0.00165862	0.124051	-0.766092	10.2138	-8.05121e-05	0.607777	28738.6	5.13756	1	65	0.010814	0.087174	0	5.57305e-05	8.06046	0.107781	8.06119	0.766092	5137.55	384213	384248	-89.2339	0.0000000E+000	0.0000000E+000	0.0000000E+000	89.2339	0.0000000E+000	0.0000000E+000	0.0000000E+000	-89.2339	0.0000000E+000	0.0000000E+000	0.0000000E+000	-0.766092	0.0000000E+000	0.0000000E+000	0.0000000E+000	0.766092	74.7852	0.766092	-0.000256352
1860.6	0.12473	0.00214228	0.124748	-0.983979	11.8297	-8.91988e-05	0.55598	39929.4	11.7754	1	65	0.0103349	0.0828464	0	0.000596621	8.01498	0.13766	8.01616	0.983979	11775.4	685599	685700	-89.016	0.0000000E+000	0.0000000E+000	0.0000000E+000	89.016	0.0000000E+000	0.0000000E+000	0.0000000E+000	-89.016	0.0000000E+000	0.0000000E+000	0.0000000E+000	-0.983979	0.0000000E+000	0.0000000E+000	0.0000000E+000	0.983979	58.2229	0.983979	0.000436402
1036.66	0.12572	0.0028006	0.125752	-1.27613	13.2135	-8.99817e-05	0.608149	54819.3	27.1899	1	65	0.0105451	0.0838566	0	0.00103524	7.95021	0.177102	7.95218	1.27613	27189.9	1.22057e+06	1.22087e+06	-88.7239	0.0000000E+000	0.0000000E+000	0.0000000E+000	88.7239	0.0000000E+000	0.0000000E+000	0.0000000E+000	-88.7239	0.0000000E+000	0.0000000E+000	0.0000000E+000	-1.27613	0.0000000E+000	0.0000000E+000	0.0000000E+000	1.27613	44.8906	1.27613	-3.52999e-05
577.965	0.126706	0.00334819	0.12675	-1.51369	14.5994	-0.000101092	0.480893	82244.8	57.3897	1	65	0.0106033	0.0836553	0	0.000681722	7.88681	0.208408	7.88956	1.51369	57389.7	2.1718e+06	2.17256e+06	-88.4863	0.0000000E+000	0.0000000E+000	0.0000000E+000	88.4863	0.0000000E+000	0.0000000E+000	0.0000000E+000	-88.4863	0.0000000E+000	0.0000000E+000	0.0000000E+000	-1.51369	0.0000000E+000	0.0000000E+000	0.0000000E+000	1.51369	37.843	1.51369	-0.00020359
321.957	0.128074	0.00369495	0.128127	-1.65253	15.9766	-8.21898e-05	0.605168	133787	111.262	1	65	0.0106185	0.0828751	0	0.000862811	7.8015	0.225074	7.80475	1.65253	111262	3.85656e+06	3.85816e+06	-88.3475	0.0000000E+000	0.0000000E+000	0.0000000E+000	88.3475	0.0000000E+000	0.0000000E+000	0.0000000E+000	-88.3475	0.0000000E+000	0.0000000E+000	0.0000000E+000	-1.65253	0.0000000E+000	0.0000000E+000	0.0000000E+000	1.65253	34.6619	1.65253	0.000464046
179.483	0.129533	0.00451635	0.129612	-1.99688	17.3603	-8.44267e-05	0.490768	196340	238.393	1	65	0.0106147	0.0818956	0	0.00139278	7.71064	0.268841	7.71533	1.99688	238392	6.83734e+06	6.8415e+06	-88.0031	0.0000000E+000	0.0000000E+000	0.0000000E+000	88.0031	0.0000000E+000	0.0000000E+000	0.0000000E+000	-88.0031	0.0000000E+000	0.0000000E+000	0.0000000E+000	-1.99688	0.0000000E+000	0.0000000E+000	0.0000000E+000	1.99688	28.681	1.99688	3.12904e-05
99.9682	0.131275	0.00515475	0.131376	-2.24867	18.7478	-8.77821e-05	0.410092	308852	475.482	1	65	0.0106195	0.0808328	0	0.00188692	7.60588	0.298659	7.61174	2.24867	475483	1.2109e+07	1.21183e+07	-87.7513	0.0000000E+000	0.0000000E+000	0.0000000E+000	87.7513	0.0000000E+000	0.0000000E+000	0.0000000E+000	-87.7513	0.0000000E+000	0.0000000E+000	0.0000000E+000	-2.24867	0.0000000E+000	0.0000000E+000	0.0000000E+000	2.24867	25.4668	2.24867	0.000210604
55.7312	0.133439	0.00570544	0.133561	-2.44831	20.1261	-8.24135e-05	0.422202	500533	913.386	1	65	0.0106155	0.0794805	0	0.00146457	7.4804	0.31984	7.48723	2.44831	913385	2.13622e+07	2.13818e+07	-87.5517	0.0000000E+000	0.0000000E+000	0.0000000E+000	87.5517	0.0000000E+000	0.0000000E+000	0.0000000E+000	-87.5517	0.0000000E+000	0.0000000E+000	0.0000000E+000	-2.44831	0.0000000E+000	0.0000000E+000	0.0000000E+000	2.44831	23.388	2.44831	-0.000188291
31.0636	0.13606	0.00599845	0.136192	-2.52436	21.4639	-9.03918e-05	0.562128	854140	1656.93	1	65	0.0106139	0.0779333	0	0.00126198	7.33546	0.323398	7.34259	2.52436	1.65693e+06	3.75833e+07	3.76198e+07	-87.4756	0.0000000E+000	0.0000000E+000	0.0000000E+000	87.4756	0.0000000E+000	0.0000000E+000	0.0000000E+000	-87.4756	0.0000000E+000	0.0000000E+000	0.0000000E+000	-2.52436	0.0000000E+000	0.0000000E+000	0.0000000E+000	2.52436	22.6825	2.52436	6.40638e-05
17.3099	0.138505	0.00550129	0.138614	-2.27454	22.8121	-9.52571e-05	0.650071	1.67133e+06	2632.55	1	65	0.0106139	0.0765715	0	0.00172622	7.20859	0.286318	7.21427	2.27454	2.63255e+06	6.62791e+07	6.63314e+07	-87.7255	0.0000000E+000	0.0000000E+000	0.0000000E+000	87.7255	0.0000000E+000	0.0000000E+000	0.0000000E+000	-87.7255	0.0000000E+000	0.0000000E+000	0.0000000E+000	-2.27454	0.0000000E+000	0.0000000E+000	0.0000000E+000	2.27454	25.1768	2.27454	2.20354e-05
9.64507	0.143635	0.00461856	0.14371	-1.8417	24.6111	-8.16865e-05	0.378297	3.57279e+06	3690.2	1	37	0.0106202	0.0739	0	0.00190281	6.95488	0.223632	6.95847	1.8417	3.6902e+06	1.14764e+08	1.14823e+08	-88.1583	0.0000000E+000	0.0000000E+000	0.0000000E+000	88.1583	0.0000000E+000	0.0000000E+000	0.0000000E+000	-88.1583	0.0000000E+000	0.0000000E+000	0.0000000E+000	-1.8417	0.0000000E+000	0.0000000E+000	0.0000000E+000	1.8417	31.0996	1.8417	-0.000122123
5.37311	0.144753	0.00395043	0.144807	-1.56326	25.7729	-8.57689e-05	0.377235	7.49809e+06	5580.35	1	37	0.010616	0.0733112	0	0.0024683	6.90318	0.188394	6.90575	1.56326	5.58035e+06	2.04477e+08	2.04553e+08	-88.4367	0.0000000E+000	0.0000000E+000	0.0000000E+000	88.4367	0.0000000E+000	0.0000000E+000	0.0000000E+000	-88.4367	0.0000000E+000	0.0000000E+000	0.0000000E+000	-1.56326	0.0000000E+000	0.0000000E+000	0.0000000E+000	1.56326	36.6423	1.56326	0.000523947
2.99674	0.145411	0.00393336	0.145465	-1.54947	27.7165	-9.08452e-05	0.33363	1.35023e+07	9872.33	1	37	0.0106146	0.0729702	0	0.00129752	6.87201	0.185887	6.87452	1.54947	9.87235e+06	3.64968e+08	3.65101e+08	-88.4505	0.0000000E+000	0.0000000E+000	0.0000000E+000	88.4505	0.0000000E+000	0.0000000E+000	0.0000000E+000	-88.4505	0.0000000E+000	0.0000000E+000	0.0000000E+000	-1.54947	0.0000000E+000	0.0000000E+000	0.0000000E+000	1.54947	36.9688	1.54947	-0.00113685
1.66934	0.146061	0.00483922	0.146141	-1.89761	31.0851	-9.21588e-05	0.347014	1.97015e+07	21602.7	1	37	0.010616	0.072642	0	0.00466471	6.83897	0.226586	6.84272	1.89761	2.16027e+07	6.52028e+08	6.52385e+08	-88.1024	0.0000000E+000	0.0000000E+000	0.0000000E+000	88.1024	0.0000000E+000	0.0000000E+000	0.0000000E+000	-88.1024	0.0000000E+000	0.0000000E+000	0.0000000E+000	-1.89761	0.0000000E+000	0.0000000E+000	0.0000000E+000	1.89761	30.1826	1.89761	0.00184168
0.930391	0.147185	0.00756509	0.14738	-2.94232	37.0291	-7.80099e-05	0.292036	2.26121e+07	59579.1	1	37	0.0106181	0.0720462	0	0.00130242	6.77625	0.348289	6.7852	2.94232	5.9579e+07	1.15916e+09	1.16069e+09	-87.0577	0.0000000E+000	0.0000000E+000	0.0000000E+000	87.0577	0.0000000E+000	0.0000000E+000	0.0000000E+000	-87.0577	0.0000000E+000	0.0000000E+000	0.0000000E+000	-2.94232	0.0000000E+000	0.0000000E+000	0.0000000E+000	2.94232	19.4559	2.94232	-0.00272911
0.518689	0.152003	0.0106973	0.152379	-4.02561	47.5907	-7.41411e-05	0.32074	2.86838e+07	141364	1	37	0.0106143	0.0696572	0	0.00102115	6.54641	0.46071	6.5626	4.02561	1.41365e+08	2.0087e+09	2.01367e+09	-85.9744	0.0000000E+000	0.0000000E+000	0.0000000E+000	85.9744	0.0000000E+000	0.0000000E+000	0.0000000E+000	-85.9744	0.0000000E+000	0.0000000E+000	0.0000000E+000	-4.02561	0.0000000E+000	0.0000000E+000	0.0000000E+000	4.02561	14.2094	4.02561	0.00175445
0.288924	0.157697	0.00994103	0.15801	-3.60709	66.4595	-8.07952e-05	0.430347	5.54122e+07	219331	1	37	0.0106161	0.0671864	0	0.0155249	6.31618	0.398165	6.32872	3.60709	2.19331e+08	3.4793e+09	3.4862e+09	-86.3929	0.0000000E+000	0.0000000E+000	0.0000000E+000	86.3929	0.0000000E+000	0.0000000E+000	0.0000000E+000	-86.3929	0.0000000E+000	0.0000000E+000	0.0000000E+000	-3.60709	0.0000000E+000	0.0000000E+000	0.0000000E+000	3.60709	15.8632	3.60709	0.00828916
0.161059	0.160934	0.00738636	0.161104	-2.62785	100.21	-7.57186e-05	0.681004	1.33784e+08	281225	1	37	0.0106171	0.0659024	0	0.0227749	6.20065	0.28459	6.20718	2.62785	2.81225e+08	6.12734e+09	6.13379e+09	-87.3722	0.0000000E+000	0.0000000E+000	0.0000000E+000	87.3722	0.0000000E+000	0.0000000E+000	0.0000000E+000	-87.3722	0.0000000E+000	0.0000000E+000	0.0000000E+000	-2.62785	0.0000000E+000	0.0000000E+000	0.0000000E+000	2.62785	21.788	2.62785	0.000464517
0.0897631	0.162761	0.00514078	0.162842	-1.80908	160.69	-5.77084e-05	0.846114	3.449e+08	343731	1	37	0.0106144	0.0651824	0	0.00257209	6.13786	0.193864	6.14093	1.80908	3.43732e+08	1.08828e+10	1.08882e+10	-88.1909	0.0000000E+000	0.0000000E+000	0.0000000E+000	88.1909	0.0000000E+000	0.0000000E+000	0.0000000E+000	-88.1909	0.0000000E+000	0.0000000E+000	0.0000000E+000	-1.80908	0.0000000E+000	0.0000000E+000	0.0000000E+000	1.80908	31.6607	1.80908	-0.0128533
0.049976	0.163577	0.00345582	0.163614	-1.21028	269.185	-6.53378e-05	0.672356	9.21525e+08	411121	1	37	0.0106184	0.0648989	0	6.06299e-05	6.11059	0.129096	6.11195	1.21028	4.11121e+08	1.94599e+10	1.94643e+10	-88.7897	0.0000000E+000	0.0000000E+000	0.0000000E+000	88.7897	0.0000000E+000	0.0000000E+000	0.0000000E+000	-88.7897	0.0000000E+000	0.0000000E+000	0.0000000E+000	-1.21028	0.0000000E+000	0.0000000E+000	0.0000000E+000	1.21028	47.3339	1.21028	0.0081877
149300	0.118377	-0.0173886	0.119647	8.35654	270.934	2.82395e-05	1.79444	-61.3048	-1.29485	2	65	0.0107477	0.089828	0	-0.00409373	8.26918	-1.21468	8.35791	-8.35654	-1294.85	8814.98	8909.58	-98.3565	0.0000000E+000	0.0000000E+000	0.0000000E+000	98.3565	0.0000000E+000	0.0000000E+000	0.0000000E+000	-98.3565	0.0000000E+000	0.0000000E+000	0.0000000E+000	8.35654	0.0000000E+000	0.0000000E+000	0.0000000E+000	-8.35654	-6.80772	-8.35654	-0.000483594
83200.3	0.119012	-0.00952493	0.119392	4.57583	272.087	4.32642e-05	1.71433	-200.832	-1.27821	2	65	0.010972	0.0918983	0	-0.00464433	8.34905	-0.668204	8.37575	-4.57583	-1278.21	15971	16022.1	-94.5758	0.0000000E+000	0.0000000E+000	0.0000000E+000	94.5758	0.0000000E+000	0.0000000E+000	0.0000000E+000	-94.5758	0.0000000E+000	0.0000000E+000	0.0000000E+000	4.57583	0.0000000E+000	0.0000000E+000	0.0000000E+000	-4.57583	-12.4948	-4.57583	-0.000762436
46364.7	0.119136	-0.004883	0.119236	2.34706	273.239	3.07561e-05	1.71917	-702.985	-1.17898	2	65	0.0109657	0.0919669	0	-0.00451642	8.37971	-0.343458	8.38675	-2.34706	-1178.98	28764.8	28789	-92.3471	0.0000000E+000	0.0000000E+000	0.0000000E+000	92.3471	0.0000000E+000	0.0000000E+000	0.0000000E+000	-92.3471	0.0000000E+000	0.0000000E+000	0.0000000E+000	2.34706	0.0000000E+000	0.0000000E+000	0.0000000E+000	-2.34706	-24.3981	-2.34706	0.00059988
25840.6	0.119526	-0.00212695	0.119545	1.01946	274.391	3.77464e-05	1.64446	-2895.74	-0.916661	2	65	0.0108816	0.0910247	0	-0.0023864	8.3637	-0.14883	8.36503	-1.01946	-916.664	51512.9	51521	-91.0195	0.0000000E+000	0.0000000E+000	0.0000000E+000	91.0195	0.0000000E+000	0.0000000E+000	0.0000000E+000	-91.0195	0.0000000E+000	0.0000000E+000	0.0000000E+000	1.01946	0.0000000E+000	0.0000000E+000	0.0000000E+000	-1.01946	-56.1962	-1.01946	0.00120453
14400.2	0.119904	-0.000344806	0.119904	0.164764	275.545	2.86123e-05	1.81531	-32053.5	-0.265067	2	65	0.01046	0.0872365	0	-0.000786451	8.33995	-0.0239831	8.33998	-0.164764	-265.067	92175.1	92175.5	-90.1648	0.0000000E+000	0.0000000E+000	0.0000000E+000	90.1648	0.0000000E+000	0.0000000E+000	0.0000000E+000	-90.1648	0.0000000E+000	0.0000000E+000	0.0000000E+000	0.164764	0.0000000E+000	0.0000000E+000	0.0000000E+000	-0.164764	-347.743	-0.164764	0.000519549
8023.44	0.120544	0.000739601	0.120546	-0.351537	276.77	-6.33065e-05	1.25934	26820.2	1.00961	2	65	0.0101693	0.0843605	0	-0.000318921	8.29544	0.0508971	8.2956	0.351537	1009.62	164550	164554	-89.6485	0.0000000E+000	0.0000000E+000	0.0000000E+000	89.6485	0.0000000E+000	0.0000000E+000	0.0000000E+000	-89.6485	0.0000000E+000	0.0000000E+000	0.0000000E+000	-0.351537	0.0000000E+000	0.0000000E+000	0.0000000E+000	0.351537	162.985	0.351537	0.00086396
4471.43	0.121182	0.00139981	0.12119	-0.661811	278.071	-5.18236e-05	1.33014	25427.6	3.39241	2	65	0.0103279	0.0852205	0	0.000421769	8.25095	0.0953091	8.2515	0.661811	3392.41	293682	293702	-89.3382	0.0000000E+000	0.0000000E+000	0.0000000E+000	89.3382	0.0000000E+000	0.0000000E+000	0.0000000E+000	-89.3382	0.0000000E+000	0.0000000E+000	0.0000000E+000	-0.661811	0.0000000E+000	0.0000000E+000	0.0000000E+000	0.661811	86.5704	0.661811	0.000144619
2492.39	0.121839	0.00204032	0.121856	-0.959385	279.455	-5.82734e-05	1.25188	31297.2	8.77416	2	65	0.0102981	0.0845102	0	0.00097198	8.20523	0.137405	8.20638	0.959385	8774.13	523956	524030	-89.0406	0.0000000E+000	0.0000000E+000	0.0000000E+000	89.0406	0.0000000E+000	0.0000000E+000	0.0000000E+000	-89.0406	0.0000000E+000	0.0000000E+000	0.0000000E+000	-0.959385	0.0000000E+000	0.0000000E+000	0.0000000E+000	0.959385	59.7158	0.959385	1.36263e-05
1388.67	0.122832	0.00247026	0.122857	-1.15211	280.839	-6.63077e-05	1.11624	46395.7	18.7571	2	65	0.0102875	0.0837357	0	0.0011793	8.1379	0.16366	8.13955	1.15211	18757.1	932682	932871	-88.8479	0.0000000E+000	0.0000000E+000	0.0000000E+000	88.8479	0.0000000E+000	0.0000000E+000	0.0000000E+000	-88.8479	0.0000000E+000	0.0000000E+000	0.0000000E+000	-1.15211	0.0000000E+000	0.0000000E+000	0.0000000E+000	1.15211	49.7243	1.15211	-7.66217e-05
773.765	0.12381	0.00299795	0.123846	-1.3871	282.222	-5.60738e-05	1.05941	68609.9	40.2043	2	65	0.0102875	0.0830672	0	0.00165209	8.07219	0.195462	8.07455	1.3871	40204.3	1.66036e+06	1.66085e+06	-88.6129	0.0000000E+000	0.0000000E+000	0.0000000E+000	88.6129	0.0000000E+000	0.0000000E+000	0.0000000E+000	-88.6129	0.0000000E+000	0.0000000E+000	0.0000000E+000	-1.3871	0.0000000E+000	0.0000000E+000	0.0000000E+000	1.3871	41.2981	1.3871	0.000323426
431.242	0.125041	0.00359113	0.125092	-1.64507	283.605	-5.26252e-05	1.04786	102770	84.6976	2	65	0.0102796	0.0821766	0	0.00232504	7.99082	0.229494	7.99411	1.64507	84697.4	2.94911e+06	2.95032e+06	-88.3549	0.0000000E+000	0.0000000E+000	0.0000000E+000	88.3549	0.0000000E+000	0.0000000E+000	0.0000000E+000	-88.3549	0.0000000E+000	0.0000000E+000	0.0000000E+000	-1.64507	0.0000000E+000	0.0000000E+000	0.0000000E+000	1.64507	34.8193	1.64507	0.00035142
240.385	0.126382	0.0041661	0.12645	-1.88804	284.984	-5.70804e-05	0.95433	158922	172.505	2	65	0.0102723	0.081236	0	0.00200438	7.90395	0.260549	7.90824	1.88804	172505	5.23308e+06	5.23592e+06	-88.112	0.0000000E+000	0.0000000E+000	0.0000000E+000	88.112	0.0000000E+000	0.0000000E+000	0.0000000E+000	-88.112	0.0000000E+000	0.0000000E+000	0.0000000E+000	-1.88804	0.0000000E+000	0.0000000E+000	0.0000000E+000	1.88804	30.3357	1.88804	-0.00016905
133.929	0.127908	0.00480032	0.127998	-2.14927	286.374	-4.45163e-05	1.11661	247558	348.183	2	65	0.010272	0.0802507	0	0.00231418	7.8071	0.292996	7.8126	2.14927	348184	9.27762e+06	9.28415e+06	-87.8507	0.0000000E+000	0.0000000E+000	0.0000000E+000	87.8507	0.0000000E+000	0.0000000E+000	0.0000000E+000	-87.8507	0.0000000E+000	0.0000000E+000	0.0000000E+000	-2.14927	0.0000000E+000	0.0000000E+000	0.0000000E+000	2.14927	26.6458	2.14927	-0.000149909
74.6414	0.129941	0.00551585	0.130058	-2.43067	287.761	-5.58314e-05	0.992339	386570	695.305	2	65	0.0102691	0.0789573	0	0.00339653	7.68193	0.326088	7.68885	2.43067	695304	1.63799e+07	1.63946e+07	-87.5693	0.0000000E+000	0.0000000E+000	0.0000000E+000	87.5693	0.0000000E+000	0.0000000E+000	0.0000000E+000	-87.5693	0.0000000E+000	0.0000000E+000	0.0000000E+000	-2.43067	0.0000000E+000	0.0000000E+000	0.0000000E+000	2.43067	23.5578	2.43067	0.000496757
41.6112	0.132413	0.00587402	0.132543	-2.54005	289.112	-6.01748e-05	1.11289	651141	1278.88	2	65	0.0102696	0.0774811	0	0.00410906	7.53729	0.334364	7.5447	2.54005	1.27888e+06	2.88287e+07	2.88571e+07	-87.4599	0.0000000E+000	0.0000000E+000	0.0000000E+000	87.4599	0.0000000E+000	0.0000000E+000	0.0000000E+000	-87.4599	0.0000000E+000	0.0000000E+000	0.0000000E+000	-2.54005	0.0000000E+000	0.0000000E+000	0.0000000E+000	2.54005	22.5422	2.54005	0.000193245
23.1963	0.135134	0.00587708	0.135261	-2.49027	290.521	-5.71177e-05	1.03473	1.16746e+06	2204.02	2	65	0.010268	0.0759122	0	0.00530853	7.38612	0.321229	7.3931	2.49027	2.20402e+06	5.06779e+07	5.07258e+07	-87.5097	0.0000000E+000	0.0000000E+000	0.0000000E+000	87.5097	0.0000000E+000	0.0000000E+000	0.0000000E+000	-87.5097	0.0000000E+000	0.0000000E+000	0.0000000E+000	-2.49027	0.0000000E+000	0.0000000E+000	0.0000000E+000	2.49027	22.9933	2.49027	0.000627308
12.9203	0.140431	0.00505066	0.140522	-2.05978	292.217	-5.02391e-05	2.47002	2.43892e+06	3150.69	2	37	0.0102731	0.0731068	0	0.00599022	7.11173	0.255776	7.11633	2.05978	3.15069e+06	8.76034e+07	8.76601e+07	-87.9402	0.0000000E+000	0.0000000E+000	0.0000000E+000	87.9402	0.0000000E+000	0.0000000E+000	0.0000000E+000	-87.9402	0.0000000E+000	0.0000000E+000	0.0000000E+000	-2.05978	0.0000000E+000	0.0000000E+000	0.0000000E+000	2.05978	27.8045	2.05978	0.000455254
7.20046	0.142036	0.00422884	0.142099	-1.70536	293.438	-4.6716e-05	0.683094	5.22683e+06	4629.12	2	37	0.0102732	0.0722963	0	0.00665314	7.03423	0.20943	7.03734	1.70536	4.62911e+06	1.5548e+08	1.55549e+08	-88.2946	0.0000000E+000	0.0000000E+000	0.0000000E+000	88.2946	0.0000000E+000	0.0000000E+000	0.0000000E+000	-88.2946	0.0000000E+000	0.0000000E+000	0.0000000E+000	-1.70536	0.0000000E+000	0.0000000E+000	0.0000000E+000	1.70536	33.5875	1.70536	0.000682582
4.01052	0.142962	0.00381246	0.143013	-1.52759	294.934	-5.28675e-05	0.721929	1.04091e+07	7397.36	2	37	0.0102754	0.0718496	0	0.00739766	6.98991	0.186405	6.99239	1.52759	7.39737e+06	2.7739e+08	2.77489e+08	-88.4724	0.0000000E+000	0.0000000E+000	0.0000000E+000	88.4724	0.0000000E+000	0.0000000E+000	0.0000000E+000	-88.4724	0.0000000E+000	0.0000000E+000	0.0000000E+000	-1.52759	0.0000000E+000	0.0000000E+000	0.0000000E+000	1.52759	37.4985	1.52759	0.00144088
2.23725	0.143628	0.00422329	0.14369	-1.68426	297.485	-4.95214e-05	0.722367	1.68444e+07	14551.4	2	37	0.01027	0.0714734	0	0.00577205	6.95644	0.20455	6.95944	1.68426	1.45514e+07	4.94871e+08	4.95085e+08	-88.3157	0.0000000E+000	0.0000000E+000	0.0000000E+000	88.3157	0.0000000E+000	0.0000000E+000	0.0000000E+000	-88.3157	0.0000000E+000	0.0000000E+000	0.0000000E+000	-1.68426	0.0000000E+000	0.0000000E+000	0.0000000E+000	1.68426	34.0085	1.68426	-0.000687789
1.24562	0.144397	0.0057658	0.144512	-2.28661	301.955	-5.3613e-05	0.675606	2.21603e+07	35276.4	2	37	0.0102733	0.0710893	0	0.0105587	6.91431	0.276089	6.91982	2.28661	3.52765e+07	8.83455e+08	8.84159e+08	-87.7134	0.0000000E+000	0.0000000E+000	0.0000000E+000	87.7134	0.0000000E+000	0.0000000E+000	0.0000000E+000	-87.7134	0.0000000E+000	0.0000000E+000	0.0000000E+000	-2.28661	0.0000000E+000	0.0000000E+000	0.0000000E+000	2.28661	25.0438	2.28661	0.00272005
0.694753	0.146944	0.00954555	0.147254	-3.71674	309.87	-5.55301e-05	0.824966	2.39987e+07	100846	2	37	0.010273	0.0697642	0	0.00902641	6.77671	0.440218	6.79099	3.71674	1.00846e+08	1.55242e+09	1.55569e+09	-86.2833	0.0000000E+000	0.0000000E+000	0.0000000E+000	86.2833	0.0000000E+000	0.0000000E+000	0.0000000E+000	-86.2833	0.0000000E+000	0.0000000E+000	0.0000000E+000	-3.71674	0.0000000E+000	0.0000000E+000	0.0000000E+000	3.71674	15.394	3.71674	-0.00213015
0.386872	0.153498	0.0108214	0.153879	-4.03259	323.984	-6.02103e-05	0.884208	3.80163e+07	188008	2	37	0.0102743	0.0667685	0	0.00590904	6.48252	0.457008	6.49861	4.03259	1.88008e+08	2.66684e+09	2.67346e+09	-85.9674	0.0000000E+000	0.0000000E+000	0.0000000E+000	85.9674	0.0000000E+000	0.0000000E+000	0.0000000E+000	-85.9674	0.0000000E+000	0.0000000E+000	0.0000000E+000	-4.03259	0.0000000E+000	0.0000000E+000	0.0000000E+000	4.03259	14.1847	4.03259	-2.55485e-05
0.215779	0.1584	0.00883696	0.158646	-3.19316	349.21	-6.15601e-05	0.55796	8.34656e+07	258973	2	37	0.0102733	0.0647563	0	0.0229712	6.29355	0.35111	6.30333	3.19316	2.58973e+08	4.64201e+09	4.64923e+09	-86.8068	0.0000000E+000	0.0000000E+000	0.0000000E+000	86.8068	0.0000000E+000	0.0000000E+000	0.0000000E+000	-86.8068	0.0000000E+000	0.0000000E+000	0.0000000E+000	-3.19316	0.0000000E+000	0.0000000E+000	0.0000000E+000	3.19316	17.9247	3.19316	0.011273
0.120214	0.161323	0.00635382	0.161448	-2.25547	394.39	-7.4618e-05	0.381296	2.08367e+08	322726	2	37	0.0102739	0.0636364	0	0.0472572	6.18916	0.243765	6.19395	2.25547	3.22726e+08	8.19398e+09	8.20034e+09	-87.7445	0.0000000E+000	0.0000000E+000	0.0000000E+000	87.7445	0.0000000E+000	0.0000000E+000	0.0000000E+000	-87.7445	0.0000000E+000	0.0000000E+000	0.0000000E+000	-2.25547	0.0000000E+000	0.0000000E+000	0.0000000E+000	2.25547	25.3899	2.25547	0.0104561
0.0669968	0.162458	0.0043065	0.162515	-1.51846	475.371	-5.71513e-05	0.646677	5.51622e+08	387350	2	37	0.0102737	0.0632168	0	0.0340436	6.15111	0.163056	6.15327	1.51846	3.8735e+08	1.46123e+10	1.46175e+10	-88.4815	0.0000000E+000	0.0000000E+000	0.0000000E+000	88.4815	0.0000000E+000	0.0000000E+000	0.0000000E+000	-88.4815	0.0000000E+000	0.0000000E+000	0.0000000E+000	-1.51846	0.0000000E+000	0.0000000E+000	0.0000000E+000	1.51846	37.7239	1.51846	-0.012725
199998	0.116711	-0.023428	0.119039	11.3504	538.522	3.64229e-05	-15.2802	-33.9671	-1.31568	3	65	0.00965854	0.0811374	0	0.00838013	8.23629	-1.65331	8.40059	-11.3504	-1315.68	6554.29	6685.04	-101.35	0.0000000E+000	0.0000000E+000	0.0000000E+000	101.35	0.0000000E+000	0.0000000E+000	0.0000000E+000	-101.35	0.0000000E+000	0.0000000E+000	0.0000000E+000	11.3504	0.0000000E+000	0.0000000E+000	0.0000000E+000	-11.3504	-4.98169	-11.3504	-0.0026679
111453	0.118106	-0.0129515	0.118814	6.25805	539.675	2.80158e-05	1.74824	-110.257	-1.31012	3	65	0.0109317	0.0920062	0	0.01054	8.36633	-0.917452	8.41649	-6.25805	-1310.12	11947.1	12018.7	-96.258	0.0000000E+000	0.0000000E+000	0.0000000E+000	96.258	0.0000000E+000	0.0000000E+000	0.0000000E+000	-96.258	0.0000000E+000	0.0000000E+000	0.0000000E+000	6.25805	0.0000000E+000	0.0000000E+000	0.0000000E+000	-6.25805	-9.1191	-6.25805	0.000989075
62110.3	0.118285	-0.00694494	0.118489	3.36018	540.827	3.18745e-05	1.63682	-368.967	-1.26756	3	65	0.0109632	0.0925255	0	0.0106024	8.42511	-0.494668	8.43962	-3.36018	-1267.57	21589	21626.1	-93.3602	0.0000000E+000	0.0000000E+000	0.0000000E+000	93.3602	0.0000000E+000	0.0000000E+000	0.0000000E+000	-93.3602	0.0000000E+000	0.0000000E+000	0.0000000E+000	3.36018	0.0000000E+000	0.0000000E+000	0.0000000E+000	-3.36018	-17.0318	-3.36018	0.000608866
34618.1	0.118513	-0.00330889	0.118559	1.59928	541.98	3.74482e-05	1.55465	-1389.43	-1.08225	3	65	0.0109084	0.0920082	0	0.0113043	8.43132	-0.235403	8.43461	-1.59928	-1082.25	38762.6	38777.7	-91.5993	0.0000000E+000	0.0000000E+000	0.0000000E+000	91.5993	0.0000000E+000	0.0000000E+000	0.0000000E+000	-91.5993	0.0000000E+000	0.0000000E+000	0.0000000E+000	1.59928	0.0000000E+000	0.0000000E+000	0.0000000E+000	-1.59928	-35.8166	-1.59928	0.000417618
19290	0.11897	-0.00109569	0.118976	0.527668	543.133	2.9358e-05	1.49019	-7530.06	-0.638648	3	65	0.010706	0.0899851	0	0.0114476	8.40473	-0.0774059	8.40509	-0.527668	-638.644	69344.4	69347.4	-90.5277	0.0000000E+000	0.0000000E+000	0.0000000E+000	90.5277	0.0000000E+000	0.0000000E+000	0.0000000E+000	-90.5277	0.0000000E+000	0.0000000E+000	0.0000000E+000	0.527668	0.0000000E+000	0.0000000E+000	0.0000000E+000	-0.527668	-108.58	-0.527668	0.000218467
10753.8	0.119367	0.000298493	0.119367	-0.143275	544.285	2.88919e-05	1.42963	49582.1	0.310043	3	65	0.0102002	0.0854521	0	0.011953	8.37748	0.020949	8.3775	0.143275	310.036	123986	123986	-89.8567	0.0000000E+000	0.0000000E+000	0.0000000E+000	89.8567	0.0000000E+000	0.0000000E+000	0.0000000E+000	-89.8567	0.0000000E+000	0.0000000E+000	0.0000000E+000	-0.143275	0.0000000E+000	0.0000000E+000	0.0000000E+000	0.143275	399.899	0.143275	-0.000174858
5992.11	0.120043	0.00106256	0.120048	-0.507139	545.542	-6.25981e-05	0.825398	24996.9	1.95832	3	65	0.0104951	0.0874244	0	0.0121233	8.32967	0.0737299	8.33	0.507139	1958.33	221242	221251	-89.4929	0.0000000E+000	0.0000000E+000	0.0000000E+000	89.4929	0.0000000E+000	0.0000000E+000	0.0000000E+000	-89.4929	0.0000000E+000	0.0000000E+000	0.0000000E+000	-0.507139	0.0000000E+000	0.0000000E+000	0.0000000E+000	0.507139	112.975	0.507139	0.000528628
3338.93	0.120783	0.00175001	0.120796	-0.830093	546.927	-5.13762e-05	1.07302	27237.8	5.71676	3	65	0.010612	0.0878511	0	0.0117101	8.27757	0.119933	8.27844	0.830093	5716.76	394562	394604	-89.1699	0.0000000E+000	0.0000000E+000	0.0000000E+000	89.1699	0.0000000E+000	0.0000000E+000	0.0000000E+000	-89.1699	0.0000000E+000	0.0000000E+000	0.0000000E+000	-0.830093	0.0000000E+000	0.0000000E+000	0.0000000E+000	0.830093	69.0185	0.830093	-0.000202324
1860.6	0.121532	0.00223925	0.121553	-1.05557	548.31	-5.47689e-05	0.939612	38200.1	12.9641	3	65	0.010619	0.0873611	0	0.0118658	8.22549	0.151557	8.22689	1.05557	12964.1	703607	703726	-88.9444	0.0000000E+000	0.0000000E+000	0.0000000E+000	88.9444	0.0000000E+000	0.0000000E+000	0.0000000E+000	-88.9444	0.0000000E+000	0.0000000E+000	0.0000000E+000	-1.05557	0.0000000E+000	0.0000000E+000	0.0000000E+000	1.05557	54.2734	1.05557	0.000136941
1036.66	0.122457	0.00275808	0.122488	-1.29025	549.693	-4.5001e-05	0.999606	55664.4	28.2232	3	65	0.0106289	0.0867752	0	0.0129696	8.16201	0.183832	8.16408	1.29025	28223.2	1.25309e+06	1.25341e+06	-88.7097	0.0000000E+000	0.0000000E+000	0.0000000E+000	88.7097	0.0000000E+000	0.0000000E+000	0.0000000E+000	-88.7097	0.0000000E+000	0.0000000E+000	0.0000000E+000	-1.29025	0.0000000E+000	0.0000000E+000	0.0000000E+000	1.29025	44.3992	1.29025	0.00057848
577.965	0.123614	0.00331385	0.123659	-1.53562	551.078	-4.2354e-05	0.969982	83096.9	59.6764	3	65	0.0106305	0.0859669	0	0.0138724	8.08387	0.216713	8.08678	1.53562	59676.5	2.22607e+06	2.22686e+06	-88.4644	0.0000000E+000	0.0000000E+000	0.0000000E+000	88.4644	0.0000000E+000	0.0000000E+000	0.0000000E+000	-88.4644	0.0000000E+000	0.0000000E+000	0.0000000E+000	-1.53562	0.0000000E+000	0.0000000E+000	0.0000000E+000	1.53562	37.3023	1.53562	0.000471974
321.957	0.124843	0.00386021	0.124903	-1.77105	552.456	-6.23744e-05	0.869183	128059	122.318	3	65	0.0106178	0.0850087	0	0.0141778	8.0024	0.247438	8.00623	1.77105	122317	3.95587e+06	3.95776e+06	-88.229	0.0000000E+000	0.0000000E+000	0.0000000E+000	88.229	0.0000000E+000	0.0000000E+000	0.0000000E+000	-88.229	0.0000000E+000	0.0000000E+000	0.0000000E+000	-1.77105	0.0000000E+000	0.0000000E+000	0.0000000E+000	1.77105	32.341	1.77105	-3.5269e-05
179.483	0.126327	0.00447619	0.126406	-2.02934	553.838	-6.16101e-05	0.904024	198102	248.411	3	65	0.0106165	0.0839871	0	0.0146648	7.90606	0.280139	7.91102	2.02934	248411	7.01063e+06	7.01503e+06	-87.9707	0.0000000E+000	0.0000000E+000	0.0000000E+000	87.9707	0.0000000E+000	0.0000000E+000	0.0000000E+000	-87.9707	0.0000000E+000	0.0000000E+000	0.0000000E+000	-2.02934	0.0000000E+000	0.0000000E+000	0.0000000E+000	2.02934	28.2219	2.02934	0.000569517
99.9682	0.12803	0.00515221	0.128134	-2.30446	555.225	-5.03696e-05	0.866388	309004	499.603	3	65	0.0106141	0.0828357	0	0.0144422	7.79803	0.31381	7.80434	2.30446	499603	1.24149e+07	1.2425e+07	-87.6955	0.0000000E+000	0.0000000E+000	0.0000000E+000	87.6955	0.0000000E+000	0.0000000E+000	0.0000000E+000	-87.6955	0.0000000E+000	0.0000000E+000	0.0000000E+000	-2.30446	0.0000000E+000	0.0000000E+000	0.0000000E+000	2.30446	24.8496	2.30446	-0.000220299
55.7312	0.130335	0.00567406	0.130458	-2.49277	556.603	-4.58212e-05	0.861916	503301	952.077	3	65	0.0106201	0.0814063	0	0.01467	7.65803	0.333388	7.66528	2.49277	952077	2.18695e+07	2.18902e+07	-87.5072	0.0000000E+000	0.0000000E+000	0.0000000E+000	87.5072	0.0000000E+000	0.0000000E+000	0.0000000E+000	-87.5072	0.0000000E+000	0.0000000E+000	0.0000000E+000	-2.49277	0.0000000E+000	0.0000000E+000	0.0000000E+000	2.49277	22.9703	2.49277	8.9537e-05
31.0636	0.132901	0.00587722	0.133031	-2.53211	557.943	-5.79938e-05	0.789997	871758	1701.5	3	65	0.010615	0.0797931	0	0.0151293	7.50969	0.332097	7.51703	2.53211	1.7015e+06	3.8476e+07	3.85136e+07	-87.4679	0.0000000E+000	0.0000000E+000	0.0000000E+000	87.4679	0.0000000E+000	0.0000000E+000	0.0000000E+000	-87.4679	0.0000000E+000	0.0000000E+000	0.0000000E+000	-2.53211	0.0000000E+000	0.0000000E+000	0.0000000E+000	2.53211	22.613	2.53211	4.40887e-05
17.3099	0.135476	0.00548146	0.135587	-2.31697	559.292	-6.28218e-05	0.8131	1.67738e+06	2741.5	3	65	0.0106141	0.0782827	0	0.0149628	7.36932	0.298168	7.37535	2.31697	2.7415e+06	6.7757e+07	6.78124e+07	-87.683	0.0000000E+000	0.0000000E+000	0.0000000E+000	87.683	0.0000000E+000	0.0000000E+000	0.0000000E+000	-87.683	0.0000000E+000	0.0000000E+000	0.0000000E+000	-2.31697	0.0000000E+000	0.0000000E+000	0.0000000E+000	2.31697	24.7153	2.31697	0.000159944
9.64507	0.140414	0.00460899	0.14049	-1.88002	561.091	-6.46113e-05	0.667049	3.58021e+06	3853.3	3	37	0.0106165	0.0755676	0	0.0161352	7.11414	0.233517	7.11797	1.88002	3.8533e+06	1.17391e+08	1.17455e+08	-88.12	0.0000000E+000	0.0000000E+000	0.0000000E+000	88.12	0.0000000E+000	0.0000000E+000	0.0000000E+000	-88.12	0.0000000E+000	0.0000000E+000	0.0000000E+000	-1.88002	0.0000000E+000	0.0000000E+000	0.0000000E+000	1.88002	30.4652	1.88002	0.000375242
5.37311	0.141631	0.00386122	0.141684	-1.56164	562.253	-7.49757e-05	0.626237	7.67133e+06	5697.41	3	37	0.0106181	0.0749423	0	0.0159933	7.05534	0.192346	7.05796	1.56164	5.69742e+06	2.08984e+08	2.09061e+08	-88.4384	0.0000000E+000	0.0000000E+000	0.0000000E+000	88.4384	0.0000000E+000	0.0000000E+000	0.0000000E+000	-88.4384	0.0000000E+000	0.0000000E+000	0.0000000E+000	-1.56164	0.0000000E+000	0.0000000E+000	0.0000000E+000	1.56164	36.6805	1.56164	-5.45267e-05
2.99674	0.142398	0.00389656	0.142451	-1.56744	564.197	-6.6003e-05	0.63078	1.36298e+07	10198.1	3	37	0.0106179	0.074537	0	0.0175574	7.01731	0.192021	7.01994	1.56744	1.01981e+07	3.72685e+08	3.72824e+08	-88.4326	0.0000000E+000	0.0000000E+000	0.0000000E+000	88.4326	0.0000000E+000	0.0000000E+000	0.0000000E+000	-88.4326	0.0000000E+000	0.0000000E+000	0.0000000E+000	-1.56744	0.0000000E+000	0.0000000E+000	0.0000000E+000	1.56744	36.5445	1.56744	0.00170883
1.66934	0.142999	0.00480715	0.14308	-1.92537	567.566	-6.63932e-05	0.615908	1.9833e+07	22387.5	3	37	0.0106137	0.0741806	0	0.0151019	6.98516	0.234818	6.98911	1.92537	2.23876e+07	6.65966e+08	6.66342e+08	-88.0746	0.0000000E+000	0.0000000E+000	0.0000000E+000	88.0746	0.0000000E+000	0.0000000E+000	0.0000000E+000	-88.0746	0.0000000E+000	0.0000000E+000	0.0000000E+000	-1.92537	0.0000000E+000	0.0000000E+000	0.0000000E+000	1.92537	29.7472	1.92537	-0.00173615
0.930391	0.144178	0.0075725	0.144377	-3.00651	573.509	-5.72148e-05	0.724527	2.25899e+07	62143.7	3	37	0.0106174	0.0735392	0	0.0192195	6.91677	0.363281	6.92631	3.00651	6.21438e+07	1.1832e+09	1.18483e+09	-86.9935	0.0000000E+000	0.0000000E+000	0.0000000E+000	86.9935	0.0000000E+000	0.0000000E+000	0.0000000E+000	-86.9935	0.0000000E+000	0.0000000E+000	0.0000000E+000	-3.00651	0.0000000E+000	0.0000000E+000	0.0000000E+000	3.00651	19.0397	3.00651	0.00351596
0.518689	0.149192	0.0107392	0.149578	-4.1172	584.07	-4.87049e-05	0.909166	2.85719e+07	147283	3	37	0.0106189	0.0709924	0	0.0248464	6.66823	0.479997	6.68548	4.1172	1.47283e+08	2.04608e+09	2.05138e+09	-85.8828	0.0000000E+000	0.0000000E+000	0.0000000E+000	85.8828	0.0000000E+000	0.0000000E+000	0.0000000E+000	-85.8828	0.0000000E+000	0.0000000E+000	0.0000000E+000	-4.1172	0.0000000E+000	0.0000000E+000	0.0000000E+000	4.1172	13.8922	4.1172	0.00151573
0.288924	0.15523	0.0100818	0.155557	-3.71601	602.938	-6.20593e-05	0.542255	5.46383e+07	229508	3	37	0.0106176	0.0682552	0	0.0161271	6.415	0.41664	6.42852	3.71601	2.29508e+08	3.53373e+09	3.54118e+09	-86.284	0.0000000E+000	0.0000000E+000	0.0000000E+000	86.284	0.0000000E+000	0.0000000E+000	0.0000000E+000	-86.284	0.0000000E+000	0.0000000E+000	0.0000000E+000	-3.71601	0.0000000E+000	0.0000000E+000	0.0000000E+000	3.71601	15.397	3.71601	-0.00584029
0.161059	0.159507	0.00750885	0.159683	-2.69523	636.689	-3.09115e-05	0.686054	1.31602e+08	290997	3	37	0.010614	0.0664689	0	0.0153764	6.25546	0.294479	6.26239	2.69523	2.90997e+08	6.1815e+09	6.18835e+09	-87.3048	0.0000000E+000	0.0000000E+000	0.0000000E+000	87.3048	0.0000000E+000	0.0000000E+000	0.0000000E+000	-87.3048	0.0000000E+000	0.0000000E+000	0.0000000E+000	-2.69523	0.0000000E+000	0.0000000E+000	0.0000000E+000	2.69523	21.2425	2.69523	0.00295259
0.0897631	0.161226	0.0053446	0.161314	-1.89865	697.168	-4.01784e-05	0.803343	3.31747e+08	364160	3	37	0.0106191	0.0658284	0	0.0584965	6.19567	0.205385	6.19908	1.89865	3.6416e+08	1.09853e+10	1.09913e+10	-88.1013	0.0000000E+000	0.0000000E+000	0.0000000E+000	88.1013	0.0000000E+000	0.0000000E+000	0.0000000E+000	-88.1013	0.0000000E+000	0.0000000E+000	0.0000000E+000	-1.89865	0.0000000E+000	0.0000000E+000	0.0000000E+000	1.89865	30.1661	1.89865	0.0283084
0.049976	0.162201	0.00361115	0.162241	-1.27539	805.663	-4.70969e-05	0.785143	8.81888e+08	436897	3	37	0.0106148	0.0654259	0	0.123911	6.16212	0.13719	6.16365	1.27539	4.36896e+08	1.96241e+10	1.96289e+10	-88.7246	0.0000000E+000	0.0000000E+000	0.0000000E+000	88.7246	0.0000000E+000	0.0000000E+000	0.0000000E+000	-88.7246	0.0000000E+000	0.0000000E+000	0.0000000E+000	-1.27539	0.0000000E+000	0.0000000E+000	0.0000000E+000	1.27539	44.9169	1.27539	0.029167
149300	0.1169	-0.0173106	0.118175	8.42319	807.413	5.19136e-05	1.37448	-61.5809	-1.32136	4	65	0.0107296	0.0907944	0	0.119882	8.37076	-1.23955	8.46204	-8.42319	-1321.36	8923.27	9020.57	-98.4232	0.0000000E+000	0.0000000E+000	0.0000000E+000	98.4232	0.0000000E+000	0.0000000E+000	0.0000000E+000	-98.4232	0.0000000E+000	0.0000000E+000	0.0000000E+000	8.42319	0.0000000E+000	0.0000000E+000	0.0000000E+000	-8.42319	-6.75308	-8.42319	-0.000194225
83200.3	0.117676	-0.00947097	0.118057	4.60144	808.565	4.63213e-05	1.51757	-201.976	-1.2999	4	65	0.0109644	0.0928741	0	0.118802	8.44321	-0.679538	8.47051	-4.60144	-1299.9	16151.1	16203.3	-94.6014	0.0000000E+000	0.0000000E+000	0.0000000E+000	94.6014	0.0000000E+000	0.0000000E+000	0.0000000E+000	-94.6014	0.0000000E+000	0.0000000E+000	0.0000000E+000	4.60144	0.0000000E+000	0.0000000E+000	0.0000000E+000	-4.60144	-12.4249	-4.60144	-0.000869229
46364.7	0.117816	-0.00496424	0.11792	2.41277	809.717	5.51758e-05	1.47975	-691.48	-1.22549	4	65	0.010951	0.0928682	0	0.119464	8.47279	-0.357007	8.48031	-2.41277	-1225.49	29084.4	29110.2	-92.4128	0.0000000E+000	0.0000000E+000	0.0000000E+000	92.4128	0.0000000E+000	0.0000000E+000	0.0000000E+000	-92.4128	0.0000000E+000	0.0000000E+000	0.0000000E+000	2.41277	0.0000000E+000	0.0000000E+000	0.0000000E+000	-2.41277	-23.7328	-2.41277	0.00139269
25840.6	0.118207	-0.0021512	0.118227	1.04258	810.869	4.49418e-05	1.4723	-2863.1	-0.947908	4	65	0.0108328	0.0916276	0	0.120283	8.45693	-0.153904	8.45833	-1.04258	-947.91	52087	52095.6	-91.0426	0.0000000E+000	0.0000000E+000	0.0000000E+000	91.0426	0.0000000E+000	0.0000000E+000	0.0000000E+000	-91.0426	0.0000000E+000	0.0000000E+000	0.0000000E+000	1.04258	0.0000000E+000	0.0000000E+000	0.0000000E+000	-1.04258	-54.9495	-1.04258	0.000322219
14400.2	0.118475	-0.000390642	0.118476	0.188917	812.021	5.13357e-05	1.42218	-28292.5	-0.307587	4	65	0.0104469	0.0881777	0	0.119829	8.44049	-0.0278303	8.44053	-0.188917	-307.59	93286.3	93286.8	-90.1889	0.0000000E+000	0.0000000E+000	0.0000000E+000	90.1889	0.0000000E+000	0.0000000E+000	0.0000000E+000	-90.1889	0.0000000E+000	0.0000000E+000	0.0000000E+000	0.188917	0.0000000E+000	0.0000000E+000	0.0000000E+000	-0.188917	-303.284	-0.188917	-0.000484834
8023.44	0.119169	0.000626619	0.11917	-0.301272	813.246	-3.65753e-05	0.970541	31656	0.875236	4	65	0.0102168	0.0857329	0	0.121371	8.39122	0.0441231	8.39134	0.301272	875.228	166450	166453	-89.6987	0.0000000E+000	0.0000000E+000	0.0000000E+000	89.6987	0.0000000E+000	0.0000000E+000	0.0000000E+000	-89.6987	0.0000000E+000	0.0000000E+000	0.0000000E+000	-0.301272	0.0000000E+000	0.0000000E+000	0.0000000E+000	0.301272	190.178	0.301272	0.000644123
4471.43	0.119811	0.00146539	0.11982	-0.700738	814.547	-3.53263e-05	1.03016	24289.7	3.63301	4	65	0.0106536	0.0889129	0	0.12119	8.34521	0.102069	8.34584	0.700738	3633	297038	297060	-89.2993	0.0000000E+000	0.0000000E+000	0.0000000E+000	89.2993	0.0000000E+000	0.0000000E+000	0.0000000E+000	-89.2993	0.0000000E+000	0.0000000E+000	0.0000000E+000	-0.700738	0.0000000E+000	0.0000000E+000	0.0000000E+000	0.700738	81.7608	0.700738	3.28042e-05
2492.39	0.120508	0.00198009	0.120525	-0.94135	815.931	-3.68735e-05	1.10618	32249.3	8.70437	4	65	0.0107183	0.0889301	0	0.121643	8.29595	0.136312	8.29707	0.94135	8704.4	529749	529820	-89.0586	0.0000000E+000	0.0000000E+000	0.0000000E+000	89.0586	0.0000000E+000	0.0000000E+000	0.0000000E+000	-89.0586	0.0000000E+000	0.0000000E+000	0.0000000E+000	-0.94135	0.0000000E+000	0.0000000E+000	0.0000000E+000	0.94135	60.8601	0.94135	-0.000146636
1388.67	0.121362	0.00244393	0.121387	-1.15363	817.315	-3.54941e-05	1.05308	46895.7	19.0092	4	65	0.0107371	0.0884534	0	0.121833	8.23644	0.16586	8.23811	1.15363	19009.2	943976	944167	-88.8464	0.0000000E+000	0.0000000E+000	0.0000000E+000	88.8464	0.0000000E+000	0.0000000E+000	0.0000000E+000	-88.8464	0.0000000E+000	0.0000000E+000	0.0000000E+000	-1.15363	0.0000000E+000	0.0000000E+000	0.0000000E+000	1.15363	49.6588	1.15363	0.000378178
773.765	0.122472	0.00295777	0.122508	-1.38346	818.698	-3.5345e-05	1.04786	69541.9	40.5368	4	65	0.0107461	0.0877181	0	0.121577	8.16037	0.197078	8.16275	1.38346	40536.8	1.6785e+06	1.67899e+06	-88.6165	0.0000000E+000	0.0000000E+000	0.0000000E+000	88.6165	0.0000000E+000	0.0000000E+000	0.0000000E+000	-88.6165	0.0000000E+000	0.0000000E+000	0.0000000E+000	-1.38346	0.0000000E+000	0.0000000E+000	0.0000000E+000	1.38346	41.4068	1.38346	-0.000166082
431.242	0.123552	0.00341917	0.123599	-1.5852	820.081	-4.20557e-05	0.931041	107939	82.6016	4	65	0.0107341	0.086846	0	0.12121	8.08757	0.223815	8.09067	1.5852	82601.7	2.98482e+06	2.98596e+06	-88.4148	0.0000000E+000	0.0000000E+000	0.0000000E+000	88.4148	0.0000000E+000	0.0000000E+000	0.0000000E+000	-88.4148	0.0000000E+000	0.0000000E+000	0.0000000E+000	-1.5852	0.0000000E+000	0.0000000E+000	0.0000000E+000	1.5852	36.1351	1.5852	-0.000200476
240.385	0.124845	0.00407136	0.124911	-1.86783	821.46	-3.70972e-05	0.967001	162620	172.763	4	65	0.0107312	0.0859104	0	0.12235	8.00144	0.260938	8.00569	1.86783	172763	5.29763e+06	5.30044e+06	-88.1322	0.0000000E+000	0.0000000E+000	0.0000000E+000	88.1322	0.0000000E+000	0.0000000E+000	0.0000000E+000	-88.1322	0.0000000E+000	0.0000000E+000	0.0000000E+000	-1.86783	0.0000000E+000	0.0000000E+000	0.0000000E+000	1.86783	30.6641	1.86783	0.000556665
133.929	0.126513	0.00463094	0.126598	-2.09634	822.849	-4.59144e-05	0.998861	256612	343.37	4	65	0.0107266	0.0847293	0	0.122934	7.89373	0.288946	7.89902	2.09634	343370	9.38057e+06	9.38685e+06	-87.9037	0.0000000E+000	0.0000000E+000	0.0000000E+000	87.9037	0.0000000E+000	0.0000000E+000	0.0000000E+000	-87.9037	0.0000000E+000	0.0000000E+000	0.0000000E+000	-2.09634	0.0000000E+000	0.0000000E+000	0.0000000E+000	2.09634	27.3191	2.09634	0.000360872
74.6414	0.128467	0.00534198	0.128578	-2.38113	824.236	-4.6455e-05	1.05904	399152	688.981	4	65	0.0107264	0.0834234	0	0.123364	7.77064	0.323122	7.77736	2.38113	688981	1.6569e+07	1.65834e+07	-87.6189	0.0000000E+000	0.0000000E+000	0.0000000E+000	87.6189	0.0000000E+000	0.0000000E+000	0.0000000E+000	-87.6189	0.0000000E+000	0.0000000E+000	0.0000000E+000	-2.38113	0.0000000E+000	0.0000000E+000	0.0000000E+000	2.38113	24.0486	2.38113	-3.37875e-06
41.6112	0.130947	0.0058496	0.131078	-2.55779	825.588	-4.9568e-05	1.0106	653859	1302.2	4	65	0.0107261	0.0818304	0	0.123188	7.62147	0.340463	7.62907	2.55779	1.3022e+06	2.91507e+07	2.91798e+07	-87.4422	0.0000000E+000	0.0000000E+000	0.0000000E+000	87.4422	0.0000000E+000	0.0000000E+000	0.0000000E+000	-87.4422	0.0000000E+000	0.0000000E+000	0.0000000E+000	-2.55779	0.0000000E+000	0.0000000E+000	0.0000000E+000	2.55779	22.3856	2.55779	-0.000207484
23.1963	0.13371	0.00571825	0.133833	-2.44882	826.997	-4.1133e-05	0.95107	1.19988e+06	2190.49	4	65	0.0107303	0.0801773	0	0.123685	7.4652	0.319257	7.47202	2.44882	2.1905e+06	5.12205e+07	5.12673e+07	-87.5512	0.0000000E+000	0.0000000E+000	0.0000000E+000	87.5512	0.0000000E+000	0.0000000E+000	0.0000000E+000	-87.5512	0.0000000E+000	0.0000000E+000	0.0000000E+000	-2.44882	0.0000000E+000	0.0000000E+000	0.0000000E+000	2.44882	23.3831	2.44882	0.000448651
12.9203	0.138842	0.00499526	0.138931	-2.06051	828.694	-3.77124e-05	2.55125	2.46597e+06	3187.89	4	37	0.0107327	0.0772515	0	0.124208	7.19314	0.258796	7.1978	2.06051	3.18789e+06	8.86063e+07	8.86636e+07	-87.9395	0.0000000E+000	0.0000000E+000	0.0000000E+000	87.9395	0.0000000E+000	0.0000000E+000	0.0000000E+000	-87.9395	0.0000000E+000	0.0000000E+000	0.0000000E+000	-2.06051	0.0000000E+000	0.0000000E+000	0.0000000E+000	2.06051	27.7947	2.06051	0.00044503
7.20046	0.140388	0.00420664	0.140451	-1.71633	829.915	-4.77039e-05	0.719507	5.25441e+06	4713.55	4	37	0.0107326	0.0764153	0	0.124115	7.11674	0.21325	7.11994	1.71633	4.71354e+06	1.57304e+08	1.57375e+08	-88.2837	0.0000000E+000	0.0000000E+000	0.0000000E+000	88.2837	0.0000000E+000	0.0000000E+000	0.0000000E+000	-88.2837	0.0000000E+000	0.0000000E+000	0.0000000E+000	-1.71633	0.0000000E+000	0.0000000E+000	0.0000000E+000	1.71633	33.3728	1.71633	-9.47152e-05
4.01052	0.14129	0.00380696	0.141341	-1.54342	831.411	-4.31182e-05	0.77653	1.04241e+07	7562.38	4	37	0.0107288	0.0759068	0	0.124629	7.0725	0.190563	7.07506	1.54342	7.56238e+06	2.80667e+08	2.80769e+08	-88.4566	0.0000000E+000	0.0000000E+000	0.0000000E+000	88.4566	0.0000000E+000	0.0000000E+000	0.0000000E+000	-88.4566	0.0000000E+000	0.0000000E+000	0.0000000E+000	-1.54342	0.0000000E+000	0.0000000E+000	0.0000000E+000	1.54342	37.1136	1.54342	-0.000361042
2.23725	0.141953	0.00426947	0.142017	-1.72274	833.962	-3.56665e-05	0.803747	1.66622e+07	15059	4	37	0.0107338	0.0755808	0	0.126067	7.0382	0.211685	7.04139	1.72274	1.5059e+07	5.00688e+08	5.00914e+08	-88.2773	0.0000000E+000	0.0000000E+000	0.0000000E+000	88.2773	0.0000000E+000	0.0000000E+000	0.0000000E+000	-88.2773	0.0000000E+000	0.0000000E+000	0.0000000E+000	-1.72274	0.0000000E+000	0.0000000E+000	0.0000000E+000	1.72274	33.2485	1.72274	0.00211155
1.24562	0.142723	0.00589684	0.142845	-2.36592	838.432	-3.60371e-05	0.849459	2.16678e+07	36925.4	4	37	0.0107306	0.0751205	0	0.126564	6.99463	0.288995	7.0006	2.36592	3.69254e+07	8.93718e+08	8.9448e+08	-87.6341	0.0000000E+000	0.0000000E+000	0.0000000E+000	87.6341	0.0000000E+000	0.0000000E+000	0.0000000E+000	-87.6341	0.0000000E+000	0.0000000E+000	0.0000000E+000	-2.36592	0.0000000E+000	0.0000000E+000	0.0000000E+000	2.36592	24.2033	2.36592	-0.0011179
0.694753	0.145451	0.00952437	0.145762	-3.74648	846.348	-4.44559e-05	0.737812	2.40521e+07	102692	4	37	0.0107275	0.0735955	0	0.123224	6.84582	0.448276	6.86048	3.74648	1.02692e+08	1.56825e+09	1.57161e+09	-86.2535	0.0000000E+000	0.0000000E+000	0.0000000E+000	86.2535	0.0000000E+000	0.0000000E+000	0.0000000E+000	-86.2535	0.0000000E+000	0.0000000E+000	0.0000000E+000	-3.74648	0.0000000E+000	0.0000000E+000	0.0000000E+000	3.74648	15.2714	3.74648	-0.00084995
0.386872	0.151724	0.0110262	0.152124	-4.15653	860.46	-3.81231e-05	0.793558	3.73103e+07	196012	4	37	0.0107303	0.0705363	0	0.134696	6.55631	0.476464	6.5736	4.15653	1.96012e+08	2.69719e+09	2.70431e+09	-85.8435	0.0000000E+000	0.0000000E+000	0.0000000E+000	85.8435	0.0000000E+000	0.0000000E+000	0.0000000E+000	-85.8435	0.0000000E+000	0.0000000E+000	0.0000000E+000	-4.15653	0.0000000E+000	0.0000000E+000	0.0000000E+000	4.15653	13.7603	4.15653	0.0077271
0.215779	0.156849	0.00895317	0.157104	-3.26699	885.686	-3.21524e-05	0.70278	8.23823e+07	267555	4	37	0.0107309	0.0683045	0	0.148299	6.35487	0.362746	6.36521	3.26699	2.67555e+08	4.68724e+09	4.69487e+09	-86.733	0.0000000E+000	0.0000000E+000	0.0000000E+000	86.733	0.0000000E+000	0.0000000E+000	0.0000000E+000	-86.733	0.0000000E+000	0.0000000E+000	0.0000000E+000	-3.26699	0.0000000E+000	0.0000000E+000	0.0000000E+000	3.26699	17.5188	3.26699	0.00477858
0.120214	0.159808	0.00640313	0.159937	-2.29448	930.866	-2.52154e-05	0.929258	2.06762e+08	331406	4	37	0.0107301	0.0670899	0	0.136029	6.24747	0.250321	6.25248	2.29448	3.31406e+08	8.27119e+09	8.27782e+09	-87.7055	0.0000000E+000	0.0000000E+000	0.0000000E+000	87.7055	0.0000000E+000	0.0000000E+000	0.0000000E+000	-87.7055	0.0000000E+000	0.0000000E+000	0.0000000E+000	-2.29448	0.0000000E+000	0.0000000E+000	0.0000000E+000	2.29448	24.9578	2.29448	-0.00926685
0.0669968	0.16113	0.00435913	0.161189	-1.54967	1011.85	-4.84633e-05	0.975308	5.44962e+08	398561	4	37	0.0107312	0.0665754	0	0.123135	6.20162	0.167775	6.20389	1.54967	3.98561e+08	1.47323e+10	1.47377e+10	-88.4503	0.0000000E+000	0.0000000E+000	0.0000000E+000	88.4503	0.0000000E+000	0.0000000E+000	0.0000000E+000	-88.4503	0.0000000E+000	0.0000000E+000	0.0000000E+000	-1.54967	0.0000000E+000	0.0000000E+000	0.0000000E+000	1.54967	36.9638	1.54967	-0.00194038
0.049976	0.161424	0.00361785	0.161465	-1.2839	1073.98	-4.57581e-05	0.883653	8.80252e+08	441931	4	37	0.0107314	0.0664629	0	0.146164	6.19175	0.13877	6.19331	1.2839	4.41931e+08	1.97184e+10	1.97234e+10	-88.7161	0.0000000E+000	0.0000000E+000	0.0000000E+000	88.7161	0.0000000E+000	0.0000000E+000	0.0000000E+000	-88.7161	0.0000000E+000	0.0000000E+000	0.0000000E+000	-1.2839	0.0000000E+000	0.0000000E+000	0.0000000E+000	1.2839	44.6187	1.2839	0.0230292