File: Python/ImpedanceDataOld/dual layer tests _vanadium positive side single-tank symmetric cell_1.6 M total vanadium_ve=5cms_choose the cycle number=3/single-layer_AvCarb 1186 carbon cloth.mpt
EC-Lab ASCII FILE
Nb header lines : 66

Potentio Electrochemical Impedance Spectroscopy

Run on channel : 1 (SN 5680)
User :
Electrode connection : standard
Potential control : Ewe
Ewe ctrl range : min = 0.00 V, max = 5.00 V
Ewe,I filtering : <None>
Safety Limits :
	Do not start on E overload
Channel : Floating
Acquisition started on : 06/29/2023 21:00:50.888
Loaded Setting File :  C:\Data\baili\Electrode Combination Tests\20230622\old\AF DL\AFDL_ve2_20mL_EIS_2_C01.mpr
Saved on :
	File : AvCarb_ve5_30mL_EIS_C01.mpr
	Directory : C:\Data\baili\Electrode Combination Tests\20230622\new tests\positive\
	Host : 192.168.0.1
Device : SP-300 (SN 0955)
Address : 192.168.0.4
EC-Lab for windows v11.46 (software)
Internet server v11.40 (firmware)
Command interpretor v11.46 (firmware)
Electrode material :
Initial state :
Electrolyte :
Comments :
Current amplifier : B-10A5V
Cable : standard
Electrode surface area : 0.001 cm2
Characteristic mass : 0.001 g
Equivalent Weight : 0.000 g/eq.
Density : 0.000 g/cm3
Volume (V) : 0.001 cm3
Cycle Definition : Charge/Discharge alternance
Mode                Single sine
E (V)               0.0000
vs.                 Eoc
tE (h:m:s)          0:00:0.0000
record              0
dI                  0.000
unit dI             mA
dt (s)              0.000
fi                  200.000
unit fi             kHz
ff                  50.000
unit ff             mHz
Nd                  8
Points              per decade
spacing             Logarithmic
Va (mV)             10.0
pw                  0.10
Na                  3
corr                0
E range min (V)     0.000
E range max (V)     5.000
I Range             Auto
Bandwidth           8
nc cycles           3
goto Ns'            0
nr cycles           0
inc. cycle          0

freq/Hz	Re(Z)/Ohm	-Im(Z)/Ohm	|Z|/Ohm	Phase(Z)/deg	time/s	<Ewe>/V	<I>/mA	Cs/uF	Cp/uF	cycle number	I Range	|Ewe|/V	|I|/A	Ns	(Q-Qo)/mA.h	Re(Y)/Ohm-1	Im(Y)/Ohm-1	|Y|/Ohm-1	Phase(Y)/deg	Re(C)/nF	Im(C)/nF	|C|/nF	Phase(C)/deg	Re(M)	Im(M)	|M|	Phase(M)/deg	Re(Permittivity)	Im(Permittivity)	|Permittivity|	Phase(Permittivity)/deg	Re(Resistivity)/Ohm.cm	Im(Resistivity)/Ohm.cm	|Resistivity|/Ohm.cm	Phase(Resistivity)/deg	Re(Conductivity)/mS/cm	Im(Conductivity)/mS/cm	|Conductivity|/mS/cm	Phase(Conductivity)/deg	Tan(Delta)	Loss Angle(Delta)/deg	dq/mA.h
199998	0.0979303	-0.0218907	0.100347	12.6004	2.11449	0.000286529	-13.7442	-36.3526	-1.72999	1	65	0.0096585	0.0962509	0	-0.00270766	9.72539	-2.17395	9.96541	-12.6004	-1729.99	7739.29	7930.29	-102.6	0.0000000E+000	0.0000000E+000	0.0000000E+000	102.6	0.0000000E+000	0.0000000E+000	0.0000000E+000	-102.6	0.0000000E+000	0.0000000E+000	0.0000000E+000	12.6004	0.0000000E+000	0.0000000E+000	0.0000000E+000	-12.6004	-4.47361	-12.6004	-0.00270766
111453	0.100054	-0.0102578	0.100579	5.85365	3.26749	0.000291916	3.84917	-139.211	-1.448	1	65	0.0109034	0.108407	0	-0.00196984	9.89062	-1.01401	9.94247	-5.85365	-1448	14123.8	14197.8	-95.8537	0.0000000E+000	0.0000000E+000	0.0000000E+000	95.8537	0.0000000E+000	0.0000000E+000	0.0000000E+000	-95.8537	0.0000000E+000	0.0000000E+000	0.0000000E+000	5.85365	0.0000000E+000	0.0000000E+000	0.0000000E+000	-5.85365	-9.75396	-5.85365	0.000244591
62110.3	0.101368	-0.00297304	0.101411	1.67996	4.41948	0.000293482	3.77316	-861.899	-0.740771	1	65	0.0108806	0.107292	0	-0.000932659	9.8566	-0.289086	9.86084	-1.67996	-740.773	25257.1	25268	-91.68	0.0000000E+000	0.0000000E+000	0.0000000E+000	91.68	0.0000000E+000	0.0000000E+000	0.0000000E+000	-91.68	0.0000000E+000	0.0000000E+000	0.0000000E+000	1.67996	0.0000000E+000	0.0000000E+000	0.0000000E+000	-1.67996	-34.0957	-1.67996	0.000741917
34618.1	0.10306	0.00232603	0.103086	-1.29293	5.5715	0.000303381	3.70888	1976.53	1.00631	1	65	0.0107167	0.103959	0	0.000597277	9.69815	0.218884	9.70062	1.29293	1006.3	44586.8	44598.1	-88.7071	0.0000000E+000	0.0000000E+000	0.0000000E+000	88.7071	0.0000000E+000	0.0000000E+000	0.0000000E+000	-88.7071	0.0000000E+000	0.0000000E+000	0.0000000E+000	-1.29293	0.0000000E+000	0.0000000E+000	0.0000000E+000	1.29293	44.3073	1.29293	0.000227978
19290	0.105676	0.00642011	0.105871	-3.47661	6.7235	0.000300025	3.67385	1285.12	4.72583	1	65	0.0105614	0.0997575	0	0.00214531	9.42809	0.572783	9.44548	3.47661	4725.83	77787.8	77931.2	-86.5234	0.0000000E+000	0.0000000E+000	0.0000000E+000	86.5234	0.0000000E+000	0.0000000E+000	0.0000000E+000	-86.5234	0.0000000E+000	0.0000000E+000	0.0000000E+000	-3.47661	0.0000000E+000	0.0000000E+000	0.0000000E+000	3.47661	16.4601	3.47661	0.0012039
10753.8	0.10925	0.010198	0.109725	-5.33283	7.87548	0.000305077	3.69732	1451.26	12.536	1	65	0.0103974	0.0947582	0	0.00252504	9.07423	0.847035	9.11368	5.33283	12536	134298	134881	-84.6672	0.0000000E+000	0.0000000E+000	0.0000000E+000	84.6672	0.0000000E+000	0.0000000E+000	0.0000000E+000	-84.6672	0.0000000E+000	0.0000000E+000	0.0000000E+000	-5.33283	0.0000000E+000	0.0000000E+000	0.0000000E+000	5.33283	10.7129	5.33283	0.000861107
5992.11	0.114242	0.0135614	0.115044	-6.76975	9.33814	0.000210884	3.05489	1958.56	27.2154	1	65	0.0102814	0.0893696	0	0.00366521	8.63172	1.02465	8.69232	6.76975	27215.4	229265	230874	-83.2302	0.0000000E+000	0.0000000E+000	0.0000000E+000	83.2302	0.0000000E+000	0.0000000E+000	0.0000000E+000	-83.2302	0.0000000E+000	0.0000000E+000	0.0000000E+000	-6.76975	0.0000000E+000	0.0000000E+000	0.0000000E+000	6.76975	8.42408	6.76975	0.000372142
3338.93	0.120913	0.0163512	0.122013	-7.70147	10.9558	0.000202272	3.09421	2915.17	52.3538	1	65	0.0108881	0.0892372	0	0.00500026	8.12191	1.09834	8.19584	7.70147	52353.8	387142	390666	-82.2985	0.0000000E+000	0.0000000E+000	0.0000000E+000	82.2985	0.0000000E+000	0.0000000E+000	0.0000000E+000	-82.2985	0.0000000E+000	0.0000000E+000	0.0000000E+000	-7.70147	0.0000000E+000	0.0000000E+000	0.0000000E+000	7.70147	7.39473	7.70147	0.000886782
1860.6	0.128906	0.0174363	0.13008	-7.70326	12.5727	0.000215134	3.16445	4905.84	88.1453	1	65	0.010297	0.0791588	0	0.0069388	7.61818	1.03046	7.68756	7.70326	88145.3	651657	657592	-82.2967	0.0000000E+000	0.0000000E+000	0.0000000E+000	82.2967	0.0000000E+000	0.0000000E+000	0.0000000E+000	-82.2967	0.0000000E+000	0.0000000E+000	0.0000000E+000	-7.70326	0.0000000E+000	0.0000000E+000	0.0000000E+000	7.70326	7.39299	7.70326	0.000957935
1036.66	0.137141	0.016093	0.138082	-6.69285	13.9564	0.000215824	3.07259	9539.97	129.583	1	65	0.0103636	0.0750538	0	0.00787335	7.19272	0.844039	7.24207	6.69285	129583	1.10427e+06	1.11185e+06	-83.3072	0.0000000E+000	0.0000000E+000	0.0000000E+000	83.3072	0.0000000E+000	0.0000000E+000	0.0000000E+000	-83.3072	0.0000000E+000	0.0000000E+000	0.0000000E+000	-6.69285	0.0000000E+000	0.0000000E+000	0.0000000E+000	6.69285	8.52178	6.69285	0.000340898
577.965	0.143733	0.0129663	0.144317	-5.15473	15.3425	0.000208274	2.95447	21237.5	171.435	1	65	0.0103427	0.0716663	0	0.00884571	6.90117	0.622558	6.92919	5.15473	171434	1.90038e+06	1.9081e+06	-84.8453	0.0000000E+000	0.0000000E+000	0.0000000E+000	84.8453	0.0000000E+000	0.0000000E+000	0.0000000E+000	-84.8453	0.0000000E+000	0.0000000E+000	0.0000000E+000	-5.15473	0.0000000E+000	0.0000000E+000	0.0000000E+000	5.15473	11.0852	5.15473	0.000520981
321.957	0.147905	0.0091868	0.14819	-3.55424	16.7195	0.000212767	2.86708	53809.3	206.799	1	65	0.010324	0.0696672	0	0.00984536	6.73512	0.418338	6.7481	3.55424	206799	3.32941e+06	3.33582e+06	-86.4458	0.0000000E+000	0.0000000E+000	0.0000000E+000	86.4458	0.0000000E+000	0.0000000E+000	0.0000000E+000	-86.4458	0.0000000E+000	0.0000000E+000	0.0000000E+000	-3.55424	0.0000000E+000	0.0000000E+000	0.0000000E+000	3.55424	16.0997	3.55424	0.000357295
179.483	0.150168	0.00616685	0.150295	-2.3516	18.1033	0.000209523	2.89429	143792	242.087	1	65	0.0103187	0.0686563	0	0.0110075	6.64798	0.273007	6.65358	2.3516	242087	5.89503e+06	5.9e+06	-87.6484	0.0000000E+000	0.0000000E+000	0.0000000E+000	87.6484	0.0000000E+000	0.0000000E+000	0.0000000E+000	-87.6484	0.0000000E+000	0.0000000E+000	0.0000000E+000	-2.3516	0.0000000E+000	0.0000000E+000	0.0000000E+000	2.3516	24.3509	2.3516	0.000850866
99.9682	0.151188	0.00383311	0.151236	-1.45233	19.4918	0.00020559	2.83448	415343	266.808	1	65	0.0103064	0.0681477	0	0.012121	6.61005	0.167587	6.61217	1.45233	266807	1.05236e+07	1.0527e+07	-88.5477	0.0000000E+000	0.0000000E+000	0.0000000E+000	88.5477	0.0000000E+000	0.0000000E+000	0.0000000E+000	-88.5477	0.0000000E+000	0.0000000E+000	0.0000000E+000	-1.45233	0.0000000E+000	0.0000000E+000	0.0000000E+000	1.45233	39.4426	1.45233	0.000892855
55.7312	0.151947	0.00270684	0.151971	-1.02058	20.8702	0.000220726	3.02024	1.05502e+06	334.707	1	65	0.010313	0.0678615	0	0.0135616	6.57917	0.117204	6.58022	1.02058	334708	1.87886e+07	1.87915e+07	-88.9794	0.0000000E+000	0.0000000E+000	0.0000000E+000	88.9794	0.0000000E+000	0.0000000E+000	0.0000000E+000	-88.9794	0.0000000E+000	0.0000000E+000	0.0000000E+000	-1.02058	0.0000000E+000	0.0000000E+000	0.0000000E+000	1.02058	56.1344	1.02058	0.000722634
31.0636	0.152551	0.00181499	0.152562	-0.681649	22.2089	0.000223541	2.91031	2.82289e+06	399.53	1	65	0.0103067	0.0675577	0	0.0148209	6.55425	0.0779797	6.55471	0.681649	399530	3.35808e+07	3.35832e+07	-89.3184	0.0000000E+000	0.0000000E+000	0.0000000E+000	89.3184	0.0000000E+000	0.0000000E+000	0.0000000E+000	-89.3184	0.0000000E+000	0.0000000E+000	0.0000000E+000	-0.681649	0.0000000E+000	0.0000000E+000	0.0000000E+000	0.681649	84.0507	0.681649	0.000831377
17.3099	0.155471	0.00127952	0.155477	-0.471528	23.797	0.000206298	4.29023	7.1859e+06	486.678	1	37	0.0103078	0.066298	0	0.0169435	6.43161	0.0529316	6.43183	0.471528	486676	5.91353e+07	5.91373e+07	-89.5285	0.0000000E+000	0.0000000E+000	0.0000000E+000	89.5285	0.0000000E+000	0.0000000E+000	0.0000000E+000	-89.5285	0.0000000E+000	0.0000000E+000	0.0000000E+000	-0.471528	0.0000000E+000	0.0000000E+000	0.0000000E+000	0.471528	121.508	0.471528	0.00111009
9.64507	0.155906	0.00109014	0.15591	-0.400621	25.3001	0.000202663	2.50306	1.51368e+07	740.03	1	37	0.0103165	0.0661696	0	0.018234	6.41381	0.0448471	6.41397	0.400621	740026	1.05835e+08	1.05838e+08	-89.5994	0.0000000E+000	0.0000000E+000	0.0000000E+000	89.5994	0.0000000E+000	0.0000000E+000	0.0000000E+000	-89.5994	0.0000000E+000	0.0000000E+000	0.0000000E+000	-0.400621	0.0000000E+000	0.0000000E+000	0.0000000E+000	0.400621	143.015	0.400621	0.000498649
5.37311	0.156103	0.00117743	0.156107	-0.432156	26.4618	0.000210977	2.52004	2.5157e+07	1431.15	1	37	0.0103106	0.066048	0	0.0195074	6.40568	0.0483161	6.40586	0.432156	1.43116e+06	1.8974e+08	1.89746e+08	-89.5678	0.0000000E+000	0.0000000E+000	0.0000000E+000	89.5678	0.0000000E+000	0.0000000E+000	0.0000000E+000	-89.5678	0.0000000E+000	0.0000000E+000	0.0000000E+000	-0.432156	0.0000000E+000	0.0000000E+000	0.0000000E+000	0.432156	132.579	0.432156	0.00138935
2.99674	0.156525	0.0011555	0.156529	-0.42296	28.4055	0.000210281	2.51859	4.59624e+07	2504.66	1	37	0.0103115	0.065876	0	0.0199814	6.38841	0.0471604	6.38858	0.42296	2.50464e+06	3.39284e+08	3.39293e+08	-89.577	0.0000000E+000	0.0000000E+000	0.0000000E+000	89.577	0.0000000E+000	0.0000000E+000	0.0000000E+000	-89.577	0.0000000E+000	0.0000000E+000	0.0000000E+000	-0.42296	0.0000000E+000	0.0000000E+000	0.0000000E+000	0.42296	135.461	0.42296	0.00098063
1.66934	0.157043	0.00140402	0.157049	-0.51223	31.775	0.000224473	2.60418	6.79053e+07	5427.21	1	37	0.0103115	0.0656579	0	0.0235861	6.36718	0.0569248	6.36744	0.51223	5.42721e+06	6.07047e+08	6.07072e+08	-89.4878	0.0000000E+000	0.0000000E+000	0.0000000E+000	89.4878	0.0000000E+000	0.0000000E+000	0.0000000E+000	-89.4878	0.0000000E+000	0.0000000E+000	0.0000000E+000	-0.51223	0.0000000E+000	0.0000000E+000	0.0000000E+000	0.51223	111.853	0.51223	0.000989746
0.930391	0.157918	0.00158384	0.157926	-0.574629	37.7181	0.000220093	2.56431	1.08005e+08	10863.2	1	37	0.0103116	0.0652937	0	0.0237433	6.33177	0.0635045	6.33209	0.574629	1.08633e+07	1.08313e+09	1.08318e+09	-89.4254	0.0000000E+000	0.0000000E+000	0.0000000E+000	89.4254	0.0000000E+000	0.0000000E+000	0.0000000E+000	-89.4254	0.0000000E+000	0.0000000E+000	0.0000000E+000	-0.574629	0.0000000E+000	0.0000000E+000	0.0000000E+000	0.574629	99.7058	0.574629	0.000674549
0.518689	0.158901	0.00133386	0.158907	-0.480945	48.2797	0.000217778	2.52852	2.3004e+08	16208.3	1	37	0.0103101	0.0648815	0	0.0362623	6.29278	0.0528233	6.293	0.480945	1.62082e+07	1.93088e+09	1.93095e+09	-89.5191	0.0000000E+000	0.0000000E+000	0.0000000E+000	89.5191	0.0000000E+000	0.0000000E+000	0.0000000E+000	-89.5191	0.0000000E+000	0.0000000E+000	0.0000000E+000	-0.480945	0.0000000E+000	0.0000000E+000	0.0000000E+000	0.480945	119.129	0.480945	0.00832025
0.288924	0.159787	0.000999274	0.15979	-0.358312	67.1482	0.000216003	2.48907	5.51254e+08	21558.7	1	37	0.0103099	0.0645218	0	0.0560513	6.2581	0.0391369	6.25822	0.358312	2.15589e+07	3.4473e+09	3.44737e+09	-89.6417	0.0000000E+000	0.0000000E+000	0.0000000E+000	89.6417	0.0000000E+000	0.0000000E+000	0.0000000E+000	-89.6417	0.0000000E+000	0.0000000E+000	0.0000000E+000	-0.358312	0.0000000E+000	0.0000000E+000	0.0000000E+000	0.358312	159.903	0.358312	0.00923256
0.161059	0.160551	0.000678183	0.160553	-0.242021	100.899	0.000225151	2.47482	1.4571e+09	25998.4	1	37	0.010314	0.0642409	0	0.0637855	6.22843	0.0263095	6.22849	0.242021	2.59982e+07	6.15479e+09	6.15485e+09	-89.758	0.0000000E+000	0.0000000E+000	0.0000000E+000	89.758	0.0000000E+000	0.0000000E+000	0.0000000E+000	-89.758	0.0000000E+000	0.0000000E+000	0.0000000E+000	-0.242021	0.0000000E+000	0.0000000E+000	0.0000000E+000	0.242021	236.737	0.242021	0.00211126
0.0897631	0.161747	0.000302158	0.161747	-0.107034	161.378	0.00022806	2.39945	5.86797e+09	20477.9	1	37	0.0103129	0.0637595	0	0.0801789	6.18249	0.0115495	6.1825	0.107034	2.04777e+07	1.09619e+10	1.09619e+10	-89.893	0.0000000E+000	0.0000000E+000	0.0000000E+000	89.893	0.0000000E+000	0.0000000E+000	0.0000000E+000	-89.893	0.0000000E+000	0.0000000E+000	0.0000000E+000	-0.107034	0.0000000E+000	0.0000000E+000	0.0000000E+000	0.107034	535.304	0.107034	0.0135317
0.049976	0.16288	0.000252834	0.16288	-0.0889386	269.873	0.000238827	2.21799	1.25957e+10	30349.9	1	37	0.0103106	0.0633018	0	0.182009	6.13947	0.00953014	6.13948	0.0889386	3.0349e+07	1.95519e+10	1.95519e+10	-89.9111	0.0000000E+000	0.0000000E+000	0.0000000E+000	89.9111	0.0000000E+000	0.0000000E+000	0.0000000E+000	-89.9111	0.0000000E+000	0.0000000E+000	0.0000000E+000	-0.0889386	0.0000000E+000	0.0000000E+000	0.0000000E+000	0.0889386	644.217	0.0889386	0.0665451
149300	0.104264	-0.0154958	0.10541	8.45344	271.466	0.000337456	3.01875	-68.7931	-1.48666	2	65	0.0107462	0.101947	0	0.180694	9.38373	-1.39461	9.4868	-8.45344	-1486.66	10003.1	10113	-98.4534	0.0000000E+000	0.0000000E+000	0.0000000E+000	98.4534	0.0000000E+000	0.0000000E+000	0.0000000E+000	-98.4534	0.0000000E+000	0.0000000E+000	0.0000000E+000	8.45344	0.0000000E+000	0.0000000E+000	0.0000000E+000	-8.45344	-6.72856	-8.45344	0.00133614
83200.3	0.105729	-0.0063772	0.105921	3.4517	272.617	0.000327409	2.95242	-299.961	-1.08733	2	65	0.010978	0.103643	0	0.181228	9.42387	-0.568416	9.441	-3.4517	-1087.33	18027	18059.8	-93.4517	0.0000000E+000	0.0000000E+000	0.0000000E+000	93.4517	0.0000000E+000	0.0000000E+000	0.0000000E+000	-93.4517	0.0000000E+000	0.0000000E+000	0.0000000E+000	3.4517	0.0000000E+000	0.0000000E+000	0.0000000E+000	-3.4517	-16.5792	-3.4517	0.00126551
46364.7	0.107131	-0.000323081	0.107132	0.172789	273.769	0.00033796	2.89075	-10624.8	-0.0966292	2	65	0.0109798	0.102489	0	0.182698	9.33426	-0.0281498	9.3343	-0.172789	-96.6298	32041.5	32041.6	-90.1728	0.0000000E+000	0.0000000E+000	0.0000000E+000	90.1728	0.0000000E+000	0.0000000E+000	0.0000000E+000	-90.1728	0.0000000E+000	0.0000000E+000	0.0000000E+000	0.172789	0.0000000E+000	0.0000000E+000	0.0000000E+000	-0.172789	-331.592	-0.172789	0.00143574
25840.6	0.109267	0.00437882	0.109355	-2.29486	274.922	0.000328322	2.85646	1406.57	2.25526	2	65	0.0109062	0.0997317	0	0.185972	9.13719	0.366167	9.14453	2.29486	2255.26	56276.8	56322	-87.7051	0.0000000E+000	0.0000000E+000	0.0000000E+000	87.7051	0.0000000E+000	0.0000000E+000	0.0000000E+000	-87.7051	0.0000000E+000	0.0000000E+000	0.0000000E+000	-2.29486	0.0000000E+000	0.0000000E+000	0.0000000E+000	2.29486	24.9536	2.29486	0.00161275
14400.2	0.112275	0.00824311	0.112578	-4.19904	276.074	0.000328192	2.77933	1340.79	7.18848	2	65	0.0105496	0.0937097	0	0.187219	8.85891	0.650409	8.88276	4.19904	7188.48	97910.9	98174.4	-85.801	0.0000000E+000	0.0000000E+000	0.0000000E+000	85.801	0.0000000E+000	0.0000000E+000	0.0000000E+000	-85.801	0.0000000E+000	0.0000000E+000	0.0000000E+000	-4.19904	0.0000000E+000	0.0000000E+000	0.0000000E+000	4.19904	13.6205	4.19904	0.000395918
8023.44	0.116539	0.01186	0.117141	-5.81089	277.299	0.000232079	2.11305	1672.53	17.1445	2	65	0.0102544	0.0875389	0	0.188857	8.49283	0.864301	8.53669	5.81089	17144.5	168466	169336	-84.1891	0.0000000E+000	0.0000000E+000	0.0000000E+000	84.1891	0.0000000E+000	0.0000000E+000	0.0000000E+000	-84.1891	0.0000000E+000	0.0000000E+000	0.0000000E+000	-5.81089	0.0000000E+000	0.0000000E+000	0.0000000E+000	5.81089	9.82624	5.81089	0.00103655
4471.43	0.122306	0.0150019	0.123223	-6.99287	278.6	0.000237764	2.16485	2372.62	35.1671	2	65	0.0105475	0.0855973	0	0.188936	8.05501	0.988014	8.11538	6.99287	35167.1	286708	288857	-83.0071	0.0000000E+000	0.0000000E+000	0.0000000E+000	83.0071	0.0000000E+000	0.0000000E+000	0.0000000E+000	-83.0071	0.0000000E+000	0.0000000E+000	0.0000000E+000	-6.99287	0.0000000E+000	0.0000000E+000	0.0000000E+000	6.99287	8.15273	6.99287	4.99963e-05
2492.39	0.129611	0.0170892	0.130733	-7.5111	279.984	0.000229525	2.39775	3736.66	63.8493	2	65	0.0104606	0.0800153	0	0.189779	7.58356	0.999889	7.64919	7.5111	63849.3	484258	488450	-82.4889	0.0000000E+000	0.0000000E+000	0.0000000E+000	82.4889	0.0000000E+000	0.0000000E+000	0.0000000E+000	-82.4889	0.0000000E+000	0.0000000E+000	0.0000000E+000	-7.5111	0.0000000E+000	0.0000000E+000	0.0000000E+000	7.5111	7.5844	7.5111	0.00032923
1388.67	0.137871	0.0171208	0.13893	-7.07872	281.368	0.000226412	2.32993	6694.2	101.66	2	65	0.0103888	0.0747772	0	0.190787	7.143	0.887013	7.19786	7.07872	101660	818657	824945	-82.9213	0.0000000E+000	0.0000000E+000	0.0000000E+000	82.9213	0.0000000E+000	0.0000000E+000	0.0000000E+000	-82.9213	0.0000000E+000	0.0000000E+000	0.0000000E+000	-7.07872	0.0000000E+000	0.0000000E+000	0.0000000E+000	7.07872	8.05287	7.07872	0.00078051
773.765	0.145377	0.0147572	0.146125	-5.79621	282.75	0.000223411	2.19317	13938.2	142.157	2	65	0.0103478	0.0708147	0	0.191219	6.80849	0.691127	6.84348	5.79621	142157	1.40043e+06	1.40763e+06	-84.2038	0.0000000E+000	0.0000000E+000	0.0000000E+000	84.2038	0.0000000E+000	0.0000000E+000	0.0000000E+000	-84.2038	0.0000000E+000	0.0000000E+000	0.0000000E+000	-5.79621	0.0000000E+000	0.0000000E+000	0.0000000E+000	5.79621	9.85129	5.79621	0.000146759
431.242	0.150696	0.0111459	0.151107	-4.23008	284.133	0.000223485	2.28223	33111.8	180.155	2	65	0.0103242	0.0683235	0	0.191476	6.59979	0.488142	6.61782	4.23008	180155	2.43573e+06	2.44239e+06	-85.7699	0.0000000E+000	0.0000000E+000	0.0000000E+000	85.7699	0.0000000E+000	0.0000000E+000	0.0000000E+000	-85.7699	0.0000000E+000	0.0000000E+000	0.0000000E+000	-4.23008	0.0000000E+000	0.0000000E+000	0.0000000E+000	4.23008	13.5202	4.23008	0.000124674
240.385	0.153717	0.00744409	0.153897	-2.77251	285.512	0.000219366	2.1954	88940.9	208.096	2	65	0.0103112	0.0670009	0	0.192876	6.49024	0.314304	6.49785	2.77251	208096	4.29708e+06	4.30212e+06	-87.2275	0.0000000E+000	0.0000000E+000	0.0000000E+000	87.2275	0.0000000E+000	0.0000000E+000	0.0000000E+000	-87.2275	0.0000000E+000	0.0000000E+000	0.0000000E+000	-2.77251	0.0000000E+000	0.0000000E+000	0.0000000E+000	2.77251	20.6495	2.77251	0.000688356
133.929	0.155432	0.00494204	0.155511	-1.82113	286.9	0.000225368	2.26881	240459	242.846	2	65	0.010309	0.0662909	0	0.193558	6.42717	0.204355	6.43042	1.82113	242846	7.63777e+06	7.64163e+06	-88.1789	0.0000000E+000	0.0000000E+000	0.0000000E+000	88.1789	0.0000000E+000	0.0000000E+000	0.0000000E+000	-88.1789	0.0000000E+000	0.0000000E+000	0.0000000E+000	-1.82113	0.0000000E+000	0.0000000E+000	0.0000000E+000	1.82113	31.451	1.82113	0.000134094
74.6414	0.156256	0.00323273	0.15629	-1.1852	288.287	0.000221323	2.3139	659585	282.195	2	65	0.0103082	0.0659554	0	0.194973	6.397	0.132345	6.39837	1.1852	282195	1.36401e+07	1.3643e+07	-88.8148	0.0000000E+000	0.0000000E+000	0.0000000E+000	88.8148	0.0000000E+000	0.0000000E+000	0.0000000E+000	-88.8148	0.0000000E+000	0.0000000E+000	0.0000000E+000	-1.1852	0.0000000E+000	0.0000000E+000	0.0000000E+000	1.1852	48.3357	1.1852	0.000676857
41.6112	0.156936	0.00223077	0.156951	-0.814378	289.638	0.000218471	2.28577	1.71457e+06	346.365	2	65	0.010316	0.0657272	0	0.196059	6.37075	0.0905573	6.3714	0.814378	346364	2.43669e+07	2.43694e+07	-89.1856	0.0000000E+000	0.0000000E+000	0.0000000E+000	89.1856	0.0000000E+000	0.0000000E+000	0.0000000E+000	-89.1856	0.0000000E+000	0.0000000E+000	0.0000000E+000	-0.814378	0.0000000E+000	0.0000000E+000	0.0000000E+000	0.814378	70.3505	0.814378	0.000416462
23.1963	0.15987	0.00154043	0.159878	-0.552058	291.327	0.000229422	3.86954	4.45409e+06	413.495	2	37	0.0103103	0.0644886	0	0.198253	6.25449	0.0602654	6.25478	0.552058	413492	4.29135e+07	4.29155e+07	-89.4479	0.0000000E+000	0.0000000E+000	0.0000000E+000	89.4479	0.0000000E+000	0.0000000E+000	0.0000000E+000	-89.4479	0.0000000E+000	0.0000000E+000	0.0000000E+000	-0.552058	0.0000000E+000	0.0000000E+000	0.0000000E+000	0.552058	103.783	0.552058	0.00145882
12.9203	0.160185	0.00121002	0.16019	-0.432799	292.728	0.000237075	2.1596	1.01801e+07	580.859	2	37	0.0103124	0.0643764	0	0.199168	6.24242	0.0471547	6.2426	0.432799	580860	7.68951e+07	7.68973e+07	-89.5672	0.0000000E+000	0.0000000E+000	0.0000000E+000	89.5672	0.0000000E+000	0.0000000E+000	0.0000000E+000	-89.5672	0.0000000E+000	0.0000000E+000	0.0000000E+000	-0.432799	0.0000000E+000	0.0000000E+000	0.0000000E+000	0.432799	132.382	0.432799	0.000580463
7.20046	0.160439	0.00107837	0.160443	-0.385099	293.949	0.000229283	2.12074	2.04971e+07	925.946	2	37	0.0103109	0.0642652	0	0.19998	6.23261	0.0418915	6.23275	0.385099	925952	1.37762e+08	1.37765e+08	-89.6149	0.0000000E+000	0.0000000E+000	0.0000000E+000	89.6149	0.0000000E+000	0.0000000E+000	0.0000000E+000	-89.6149	0.0000000E+000	0.0000000E+000	0.0000000E+000	-0.385099	0.0000000E+000	0.0000000E+000	0.0000000E+000	0.385099	148.78	0.385099	0.000188737
4.01052	0.160748	0.00114	0.160752	-0.406325	295.445	0.00023165	2.16149	3.48109e+07	1750.7	2	37	0.0103117	0.0641465	0	0.200504	6.22061	0.0441155	6.22077	0.406325	1.7507e+06	2.46861e+08	2.46867e+08	-89.5937	0.0000000E+000	0.0000000E+000	0.0000000E+000	89.5937	0.0000000E+000	0.0000000E+000	0.0000000E+000	-89.5937	0.0000000E+000	0.0000000E+000	0.0000000E+000	-0.406325	0.0000000E+000	0.0000000E+000	0.0000000E+000	0.406325	141.007	0.406325	0.000361092
2.23725	0.161179	0.00130913	0.161185	-0.465357	297.996	0.000233999	2.15493	5.43403e+07	3584.6	2	37	0.0103127	0.0639803	0	0.2023	6.20386	0.050389	6.20406	0.465357	3.58458e+06	4.41333e+08	4.41348e+08	-89.5346	0.0000000E+000	0.0000000E+000	0.0000000E+000	89.5346	0.0000000E+000	0.0000000E+000	0.0000000E+000	-89.5346	0.0000000E+000	0.0000000E+000	0.0000000E+000	-0.465357	0.0000000E+000	0.0000000E+000	0.0000000E+000	0.465357	123.119	0.465357	-0.000121823
1.24562	0.161826	0.00151276	0.161833	-0.535588	302.466	0.000245642	2.20129	8.44628e+07	7380.23	2	37	0.0103117	0.0637179	0	0.203666	6.17893	0.057761	6.1792	0.535588	7.38027e+06	7.89494e+08	7.89528e+08	-89.4644	0.0000000E+000	0.0000000E+000	0.0000000E+000	89.4644	0.0000000E+000	0.0000000E+000	0.0000000E+000	-89.4644	0.0000000E+000	0.0000000E+000	0.0000000E+000	-0.535588	0.0000000E+000	0.0000000E+000	0.0000000E+000	0.535588	106.974	0.535588	0.00190235
0.694753	0.162695	0.00149149	0.162701	-0.525238	310.382	0.000241689	2.14322	1.53593e+08	12907	2	37	0.0103137	0.06339	0	0.213788	6.14597	0.0563425	6.14623	0.525238	1.2907e+07	1.40793e+09	1.40798e+09	-89.4748	0.0000000E+000	0.0000000E+000	0.0000000E+000	89.4748	0.0000000E+000	0.0000000E+000	0.0000000E+000	-89.4748	0.0000000E+000	0.0000000E+000	0.0000000E+000	-0.525238	0.0000000E+000	0.0000000E+000	0.0000000E+000	0.525238	109.082	0.525238	0.00548315
0.386872	0.163422	0.00115646	0.163426	-0.405449	324.495	0.0002383	2.10628	3.5573e+08	17813.1	2	37	0.0103117	0.0630967	0	0.218214	6.11881	0.0433	6.11897	0.405449	1.78131e+07	2.51721e+09	2.51727e+09	-89.5946	0.0000000E+000	0.0000000E+000	0.0000000E+000	89.5946	0.0000000E+000	0.0000000E+000	0.0000000E+000	-89.5946	0.0000000E+000	0.0000000E+000	0.0000000E+000	-0.405449	0.0000000E+000	0.0000000E+000	0.0000000E+000	0.405449	141.312	0.405449	0.000733763
0.215779	0.164034	0.000803022	0.164036	-0.280486	349.721	0.000239941	2.0814	9.18508e+08	22011.9	2	37	0.0103153	0.0628841	0	0.220233	6.09614	0.0298433	6.09621	0.280486	2.2012e+07	4.4964e+09	4.49646e+09	-89.7195	0.0000000E+000	0.0000000E+000	0.0000000E+000	89.7195	0.0000000E+000	0.0000000E+000	0.0000000E+000	-89.7195	0.0000000E+000	0.0000000E+000	0.0000000E+000	-0.280486	0.0000000E+000	0.0000000E+000	0.0000000E+000	0.280486	204.271	0.280486	0.00235272
0.120214	0.164598	0.000673622	0.164599	-0.234483	394.902	0.000240537	1.99522	1.96538e+09	32917.3	2	37	0.0103115	0.0626463	0	0.25533	6.07531	0.0248634	6.07536	0.234483	3.29171e+07	8.04326e+09	8.04333e+09	-89.7655	0.0000000E+000	0.0000000E+000	0.0000000E+000	89.7655	0.0000000E+000	0.0000000E+000	0.0000000E+000	-89.7655	0.0000000E+000	0.0000000E+000	0.0000000E+000	-0.234483	0.0000000E+000	0.0000000E+000	0.0000000E+000	0.234483	244.348	0.234483	0.0241394
0.0669968	0.165078	0.000168811	0.165078	-0.0585913	475.88	0.0002483	2.10021	1.40723e+10	14715.9	2	37	0.0103136	0.0624774	0	0.343978	6.05773	0.0061947	6.05774	0.0585913	1.47165e+07	1.43905e+10	1.43905e+10	-89.9414	0.0000000E+000	0.0000000E+000	0.0000000E+000	89.9414	0.0000000E+000	0.0000000E+000	0.0000000E+000	-89.9414	0.0000000E+000	0.0000000E+000	0.0000000E+000	-0.0585913	0.0000000E+000	0.0000000E+000	0.0000000E+000	0.0585913	977.889	0.0585913	0.0494052
199998	0.105378	-0.0223083	0.107714	11.9528	539.031	0.000322264	-14.4925	-35.6721	-1.53009	3	65	0.00970784	0.0901262	0	0.386669	9.08257	-1.92275	9.28385	-11.9528	-1530.09	7227.74	7387.93	-101.953	0.0000000E+000	0.0000000E+000	0.0000000E+000	101.953	0.0000000E+000	0.0000000E+000	0.0000000E+000	-101.953	0.0000000E+000	0.0000000E+000	0.0000000E+000	11.9528	0.0000000E+000	0.0000000E+000	0.0000000E+000	-11.9528	-4.72374	-11.9528	-0.00365882
111453	0.107535	-0.0105162	0.108048	5.5854	540.184	0.000325284	3.12532	-135.79	-1.28633	3	65	0.0109401	0.101253	0	0.387049	9.2112	-0.900797	9.25515	-5.5854	-1286.33	13153.6	13216.3	-95.5854	0.0000000E+000	0.0000000E+000	0.0000000E+000	95.5854	0.0000000E+000	0.0000000E+000	0.0000000E+000	-95.5854	0.0000000E+000	0.0000000E+000	0.0000000E+000	5.5854	0.0000000E+000	0.0000000E+000	0.0000000E+000	-5.5854	-10.2256	-5.5854	0.000979499
62110.3	0.108853	-0.00324787	0.108901	1.70904	541.336	0.00032191	2.98968	-788.964	-0.701759	3	65	0.0109763	0.100791	0	0.387827	9.17853	-0.273862	9.18261	-1.70904	-701.758	23519.6	23530	-91.709	0.0000000E+000	0.0000000E+000	0.0000000E+000	91.709	0.0000000E+000	0.0000000E+000	0.0000000E+000	-91.709	0.0000000E+000	0.0000000E+000	0.0000000E+000	1.70904	0.0000000E+000	0.0000000E+000	0.0000000E+000	-1.70904	-33.5152	-1.70904	-0.000555017
34618.1	0.110509	0.00208442	0.110528	-1.08059	542.488	0.000319524	2.92	2205.62	0.784431	3	65	0.010902	0.098635	0	0.389503	9.04584	0.170623	9.04744	1.08059	784.432	41587.8	41595.2	-88.9194	0.0000000E+000	0.0000000E+000	0.0000000E+000	88.9194	0.0000000E+000	0.0000000E+000	0.0000000E+000	-88.9194	0.0000000E+000	0.0000000E+000	0.0000000E+000	-1.08059	0.0000000E+000	0.0000000E+000	0.0000000E+000	1.08059	53.0165	1.08059	4.35326e-06
19290	0.113001	0.00633784	0.113178	-3.21017	543.64	0.000322395	3.00123	1301.81	4.08227	3	65	0.0107143	0.0946673	0	0.391425	8.82174	0.494783	8.83561	3.21017	4082.27	72785.1	72899.4	-86.7898	0.0000000E+000	0.0000000E+000	0.0000000E+000	86.7898	0.0000000E+000	0.0000000E+000	0.0000000E+000	-86.7898	0.0000000E+000	0.0000000E+000	0.0000000E+000	-3.21017	0.0000000E+000	0.0000000E+000	0.0000000E+000	3.21017	17.8295	3.21017	0.000481087
10753.8	0.116471	0.0100402	0.116903	-4.92688	544.793	0.000327241	3.00328	1474.07	10.8729	3	65	0.010258	0.0877477	0	0.393052	8.52249	0.734663	8.55409	4.92688	10872.9	126132	126600	-85.0731	0.0000000E+000	0.0000000E+000	0.0000000E+000	85.0731	0.0000000E+000	0.0000000E+000	0.0000000E+000	-85.0731	0.0000000E+000	0.0000000E+000	0.0000000E+000	-4.92688	0.0000000E+000	0.0000000E+000	0.0000000E+000	4.92688	11.6005	4.92688	0.00126985
5992.11	0.121605	0.0134512	0.122346	-6.31204	546.05	0.000246321	2.4419	1974.61	23.8681	3	65	0.0107584	0.0879343	0	0.394684	8.12397	0.898623	8.17352	6.31204	23868.1	215779	217095	-83.688	0.0000000E+000	0.0000000E+000	0.0000000E+000	83.688	0.0000000E+000	0.0000000E+000	0.0000000E+000	-83.688	0.0000000E+000	0.0000000E+000	0.0000000E+000	-6.31204	0.0000000E+000	0.0000000E+000	0.0000000E+000	6.31204	9.04046	6.31204	0.000784502
3338.93	0.128017	0.0161675	0.129033	-7.19792	547.435	0.000247476	2.49351	2948.28	46.2862	3	65	0.0109558	0.0849064	0	0.39567	7.68885	0.971044	7.74993	7.19792	46286.2	366500	369411	-82.8021	0.0000000E+000	0.0000000E+000	0.0000000E+000	82.8021	0.0000000E+000	0.0000000E+000	0.0000000E+000	-82.8021	0.0000000E+000	0.0000000E+000	0.0000000E+000	-7.19792	0.0000000E+000	0.0000000E+000	0.0000000E+000	7.19792	7.91813	7.19792	0.000591768
1860.6	0.135885	0.0172982	0.136982	-7.25472	548.819	0.000237429	2.56096	4945.02	78.8574	3	65	0.0109086	0.0796356	0	0.39695	7.2418	0.92188	7.30024	7.25472	78857.4	619462	624461	-82.7453	0.0000000E+000	0.0000000E+000	0.0000000E+000	82.7453	0.0000000E+000	0.0000000E+000	0.0000000E+000	-82.7453	0.0000000E+000	0.0000000E+000	0.0000000E+000	-7.25472	0.0000000E+000	0.0000000E+000	0.0000000E+000	7.25472	7.85547	7.25472	0.000797737
1036.66	0.144152	0.0161554	0.145055	-6.39455	550.202	0.000233775	2.27328	9503.14	117.879	3	65	0.010867	0.0749168	0	0.397785	6.85106	0.76781	6.89395	6.39455	117880	1.05182e+06	1.05841e+06	-83.6054	0.0000000E+000	0.0000000E+000	0.0000000E+000	83.6054	0.0000000E+000	0.0000000E+000	0.0000000E+000	-83.6054	0.0000000E+000	0.0000000E+000	0.0000000E+000	-6.39455	0.0000000E+000	0.0000000E+000	0.0000000E+000	6.39455	8.92286	6.39455	0.000734234
577.965	0.15061	0.012972	0.151167	-4.92272	551.589	0.00023303	2.44116	21228.1	156.318	3	65	0.0108341	0.0716699	0	0.399396	6.59079	0.567663	6.61519	4.92272	156318	1.81491e+06	1.82163e+06	-85.0773	0.0000000E+000	0.0000000E+000	0.0000000E+000	85.0773	0.0000000E+000	0.0000000E+000	0.0000000E+000	-85.0773	0.0000000E+000	0.0000000E+000	0.0000000E+000	-4.92272	0.0000000E+000	0.0000000E+000	0.0000000E+000	4.92272	11.6104	4.92272	0.000812878
321.957	0.15453	0.00926716	0.154808	-3.43192	552.966	0.000235993	2.49202	53342.7	191.154	3	65	0.0108124	0.0698438	0	0.400334	6.44805	0.386689	6.45963	3.43192	191154	3.1875e+06	3.19322e+06	-86.5681	0.0000000E+000	0.0000000E+000	0.0000000E+000	86.5681	0.0000000E+000	0.0000000E+000	0.0000000E+000	-86.5681	0.0000000E+000	0.0000000E+000	0.0000000E+000	-3.43192	0.0000000E+000	0.0000000E+000	0.0000000E+000	3.43192	16.675	3.43192	0.000174709
179.483	0.156862	0.00613347	0.156982	-2.23919	554.348	0.000227642	2.44637	144574	220.702	3	65	0.0108079	0.0688481	0	0.400757	6.36531	0.248891	6.37017	2.23919	220702	5.64438e+06	5.64869e+06	-87.7608	0.0000000E+000	0.0000000E+000	0.0000000E+000	87.7608	0.0000000E+000	0.0000000E+000	0.0000000E+000	-87.7608	0.0000000E+000	0.0000000E+000	0.0000000E+000	-2.23919	0.0000000E+000	0.0000000E+000	0.0000000E+000	2.23919	25.5747	2.23919	0.000169344
99.9682	0.158029	0.00407627	0.158082	-1.47758	555.736	0.00022589	2.40184	390567	259.692	3	65	0.0108065	0.0683605	0	0.401761	6.32374	0.163117	6.32584	1.47758	259692	1.00677e+07	1.00711e+07	-88.5224	0.0000000E+000	0.0000000E+000	0.0000000E+000	88.5224	0.0000000E+000	0.0000000E+000	0.0000000E+000	-88.5224	0.0000000E+000	0.0000000E+000	0.0000000E+000	-1.47758	0.0000000E+000	0.0000000E+000	0.0000000E+000	1.47758	38.7681	1.47758	0.000207308
55.7312	0.158642	0.0025999	0.158663	-0.938905	557.114	0.000242779	2.44228	1.09841e+06	294.934	3	65	0.0108055	0.0681032	0	0.402074	6.30181	0.103277	6.30265	0.938905	294934	1.79965e+07	1.79989e+07	-89.0611	0.0000000E+000	0.0000000E+000	0.0000000E+000	89.0611	0.0000000E+000	0.0000000E+000	0.0000000E+000	-89.0611	0.0000000E+000	0.0000000E+000	0.0000000E+000	-0.938905	0.0000000E+000	0.0000000E+000	0.0000000E+000	0.938905	61.0186	0.938905	0.000158188
31.0636	0.159142	0.00176915	0.159152	-0.636918	558.454	0.000226263	2.4011	2.89604e+06	357.856	3	65	0.0108041	0.0678852	0	0.402513	6.28292	0.0698458	6.28331	0.636918	357855	3.21906e+07	3.21926e+07	-89.3631	0.0000000E+000	0.0000000E+000	0.0000000E+000	89.3631	0.0000000E+000	0.0000000E+000	0.0000000E+000	-89.3631	0.0000000E+000	0.0000000E+000	0.0000000E+000	-0.636918	0.0000000E+000	0.0000000E+000	0.0000000E+000	0.636918	89.9542	0.636918	0.000106286
17.3099	0.162184	0.00129186	0.162189	-0.456376	560.083	0.000233962	2.12851	7.11721e+06	451.545	3	37	0.0108105	0.0666538	0	0.403352	6.16545	0.0491105	6.16565	0.456376	451544	5.66881e+07	5.66899e+07	-89.5436	0.0000000E+000	0.0000000E+000	0.0000000E+000	89.5436	0.0000000E+000	0.0000000E+000	0.0000000E+000	-89.5436	0.0000000E+000	0.0000000E+000	0.0000000E+000	-0.456376	0.0000000E+000	0.0000000E+000	0.0000000E+000	0.456376	125.543	0.456376	0.000408761
9.64507	0.162359	0.00113123	0.162362	-0.399201	561.586	0.000229357	2.11802	1.45869e+07	708.1	3	37	0.0108054	0.0665509	0	0.403876	6.15891	0.0429121	6.15906	0.399201	708099	1.01629e+08	1.01632e+08	-89.6008	0.0000000E+000	0.0000000E+000	0.0000000E+000	89.6008	0.0000000E+000	0.0000000E+000	0.0000000E+000	-89.6008	0.0000000E+000	0.0000000E+000	0.0000000E+000	-0.399201	0.0000000E+000	0.0000000E+000	0.0000000E+000	0.399201	143.524	0.399201	0.000198103
5.37311	0.162711	0.00107568	0.162714	-0.378778	562.748	0.000225219	2.10622	2.75366e+07	1203.45	3	37	0.0108112	0.0664431	0	0.404851	6.14561	0.0406288	6.14575	0.378778	1.20345e+06	1.82037e+08	1.82041e+08	-89.6212	0.0000000E+000	0.0000000E+000	0.0000000E+000	89.6212	0.0000000E+000	0.0000000E+000	0.0000000E+000	-89.6212	0.0000000E+000	0.0000000E+000	0.0000000E+000	-0.378778	0.0000000E+000	0.0000000E+000	0.0000000E+000	0.378778	151.263	0.378778	0.000508293
2.99674	0.163037	0.00117613	0.163042	-0.413318	564.692	0.000232377	2.15455	4.51559e+07	2349.8	3	37	0.0108095	0.0662988	0	0.404899	6.13325	0.0442446	6.13341	0.413318	2.34978e+06	3.25732e+08	3.25741e+08	-89.5867	0.0000000E+000	0.0000000E+000	0.0000000E+000	89.5867	0.0000000E+000	0.0000000E+000	0.0000000E+000	-89.5867	0.0000000E+000	0.0000000E+000	0.0000000E+000	-0.413318	0.0000000E+000	0.0000000E+000	0.0000000E+000	0.413318	138.622	0.413318	-0.000717839
1.66934	0.163461	0.00143131	0.163467	-0.501685	568.061	0.000220592	2.05025	6.66104e+07	5106.8	3	37	0.0108054	0.0661017	0	0.409606	6.11721	0.0535641	6.11745	0.501685	5.10681e+06	5.83215e+08	5.83238e+08	-89.4983	0.0000000E+000	0.0000000E+000	0.0000000E+000	89.4983	0.0000000E+000	0.0000000E+000	0.0000000E+000	-89.4983	0.0000000E+000	0.0000000E+000	0.0000000E+000	-0.501685	0.0000000E+000	0.0000000E+000	0.0000000E+000	0.501685	114.204	0.501685	0.00296531
0.930391	0.16422	0.00154043	0.164228	-0.537433	574.004	0.00022188	2.0852	1.11049e+08	9770.21	3	37	0.0108072	0.0658061	0	0.410295	6.08884	0.0571149	6.08911	0.537433	9.77015e+06	1.04157e+09	1.04162e+09	-89.4626	0.0000000E+000	0.0000000E+000	0.0000000E+000	89.4626	0.0000000E+000	0.0000000E+000	0.0000000E+000	-89.4626	0.0000000E+000	0.0000000E+000	0.0000000E+000	-0.537433	0.0000000E+000	0.0000000E+000	0.0000000E+000	0.537433	106.607	0.537433	-0.000640126
0.518689	0.16506	0.00135059	0.165066	-0.468809	584.565	0.000230238	2.11602	2.27189e+08	15209.8	3	37	0.0108045	0.065456	0	0.412812	6.058	0.0495692	6.0582	0.468809	1.52099e+07	1.85884e+09	1.8589e+09	-89.5312	0.0000000E+000	0.0000000E+000	0.0000000E+000	89.5312	0.0000000E+000	0.0000000E+000	0.0000000E+000	-89.5312	0.0000000E+000	0.0000000E+000	0.0000000E+000	-0.468809	0.0000000E+000	0.0000000E+000	0.0000000E+000	0.468809	122.213	0.468809	0.00293086
0.288924	0.165605	0.000978741	0.165608	-0.338619	603.433	0.000226057	2.07386	5.62819e+08	19658.1	3	37	0.0108095	0.0652717	0	0.434588	6.03825	0.0356866	6.03836	0.338619	1.96583e+07	3.3262e+09	3.32626e+09	-89.6614	0.0000000E+000	0.0000000E+000	0.0000000E+000	89.6614	0.0000000E+000	0.0000000E+000	0.0000000E+000	-89.6614	0.0000000E+000	0.0000000E+000	0.0000000E+000	-0.338619	0.0000000E+000	0.0000000E+000	0.0000000E+000	0.338619	169.202	0.338619	0.0133969
0.161059	0.165905	0.000641314	0.165906	-0.221479	637.185	0.000222047	2.14071	1.54086e+09	23024.1	3	37	0.0108092	0.0651527	0	0.462397	6.02747	0.0232996	6.02752	0.221479	2.30243e+07	5.95621e+09	5.95625e+09	-89.7785	0.0000000E+000	0.0000000E+000	0.0000000E+000	89.7785	0.0000000E+000	0.0000000E+000	0.0000000E+000	-89.7785	0.0000000E+000	0.0000000E+000	0.0000000E+000	-0.221479	0.0000000E+000	0.0000000E+000	0.0000000E+000	0.221479	258.695	0.221479	0.012702
0.0897631	0.16639	0.000321968	0.16639	-0.110869	697.663	0.000226584	2.21596	5.50692e+09	20619.7	3	37	0.0108051	0.0649384	0	0.470049	6.00997	0.0116295	6.00998	0.110869	2.062e+07	1.0656e+10	1.0656e+10	-89.8891	0.0000000E+000	0.0000000E+000	0.0000000E+000	89.8891	0.0000000E+000	0.0000000E+000	0.0000000E+000	-89.8891	0.0000000E+000	0.0000000E+000	0.0000000E+000	-0.110869	0.0000000E+000	0.0000000E+000	0.0000000E+000	0.110869	516.788	0.110869	0.00118396
0.049976	0.166427	0.000260464	0.166427	-0.0896696	806.159	0.000220694	2.17685	1.22267e+10	29947.2	3	37	0.0108071	0.0649357	0	0.493967	6.00862	0.00940367	6.00862	0.0896696	2.99467e+07	1.91352e+10	1.91352e+10	-89.9103	0.0000000E+000	0.0000000E+000	0.0000000E+000	89.9103	0.0000000E+000	0.0000000E+000	0.0000000E+000	-89.9103	0.0000000E+000	0.0000000E+000	0.0000000E+000	-0.0896696	0.0000000E+000	0.0000000E+000	0.0000000E+000	0.0896696	638.965	0.0896696	0.0217109
149300	0.107795	-0.0156961	0.108931	8.2847	808.078	0.000329441	3.34425	-67.9151	-1.41009	4	65	0.0107534	0.098717	0	0.490973	9.08429	-1.32278	9.18009	-8.2847	-1410.09	9683.9	9786.02	-98.2847	0.0000000E+000	0.0000000E+000	0.0000000E+000	98.2847	0.0000000E+000	0.0000000E+000	0.0000000E+000	-98.2847	0.0000000E+000	0.0000000E+000	0.0000000E+000	8.2847	0.0000000E+000	0.0000000E+000	0.0000000E+000	-8.2847	-6.86759	-8.2847	-0.00071084
83200.3	0.109335	-0.00654851	0.109531	3.42757	809.23	0.000318778	3.21643	-292.114	-1.04415	4	65	0.0109657	0.100115	0	0.491424	9.1135	-0.545843	9.12984	-3.42757	-1044.15	17433.3	17464.6	-93.4276	0.0000000E+000	0.0000000E+000	0.0000000E+000	93.4276	0.0000000E+000	0.0000000E+000	0.0000000E+000	-93.4276	0.0000000E+000	0.0000000E+000	0.0000000E+000	3.42757	0.0000000E+000	0.0000000E+000	0.0000000E+000	-3.42757	-16.6962	-3.42757	-5.43285e-05
46364.7	0.11069	-0.000387758	0.110691	0.200711	810.382	0.000315386	3.2809	-8852.63	-0.108635	4	65	0.0109371	0.0988078	0	0.49448	9.03411	-0.0316473	9.03417	-0.200711	-108.636	31011.2	31011.4	-90.2007	0.0000000E+000	0.0000000E+000	0.0000000E+000	90.2007	0.0000000E+000	0.0000000E+000	0.0000000E+000	-90.2007	0.0000000E+000	0.0000000E+000	0.0000000E+000	0.200711	0.0000000E+000	0.0000000E+000	0.0000000E+000	-0.200711	-285.462	-0.200711	0.00139422
25840.6	0.112776	0.00426591	0.112857	-2.16625	811.534	0.000330373	3.30065	1443.79	2.06286	4	65	0.0108293	0.0959562	0	0.495925	8.85443	0.33493	8.86076	2.16625	2062.87	54535.3	54574.3	-87.8337	0.0000000E+000	0.0000000E+000	0.0000000E+000	87.8337	0.0000000E+000	0.0000000E+000	0.0000000E+000	-87.8337	0.0000000E+000	0.0000000E+000	0.0000000E+000	-2.16625	0.0000000E+000	0.0000000E+000	0.0000000E+000	2.16625	26.4367	2.16625	0.00164113
14400.2	0.115714	0.00824073	0.116007	-4.07352	812.687	0.000317231	3.22407	1341.17	6.7678	4	65	0.0105023	0.0905317	0	0.497162	8.59839	0.612346	8.62017	4.07352	6767.79	95031.5	95272.2	-85.9265	0.0000000E+000	0.0000000E+000	0.0000000E+000	85.9265	0.0000000E+000	0.0000000E+000	0.0000000E+000	-85.9265	0.0000000E+000	0.0000000E+000	0.0000000E+000	-4.07352	0.0000000E+000	0.0000000E+000	0.0000000E+000	4.07352	14.0417	4.07352	0.00051823
8023.44	0.119878	0.0116799	0.120446	-5.56484	813.912	0.000227549	2.65747	1698.33	15.9704	4	65	0.0103025	0.0855367	0	0.497987	8.26337	0.805111	8.3025	5.56484	15970.4	163914	164690	-84.4352	0.0000000E+000	0.0000000E+000	0.0000000E+000	84.4352	0.0000000E+000	0.0000000E+000	0.0000000E+000	-84.4352	0.0000000E+000	0.0000000E+000	0.0000000E+000	-5.56484	0.0000000E+000	0.0000000E+000	0.0000000E+000	5.56484	10.2636	5.56484	0.00104779
4471.43	0.125586	0.014859	0.126462	-6.7477	815.446	0.000227307	2.51997	2395.43	33.0706	4	65	0.0100943	0.0798205	0	0.498592	7.85273	0.929112	7.9075	6.7477	33070.6	279508	281458	-83.2523	0.0000000E+000	0.0000000E+000	0.0000000E+000	83.2523	0.0000000E+000	0.0000000E+000	0.0000000E+000	-83.2523	0.0000000E+000	0.0000000E+000	0.0000000E+000	-6.7477	0.0000000E+000	0.0000000E+000	0.0000000E+000	6.7477	8.45186	6.7477	0.000550986
2492.39	0.132965	0.0169931	0.134046	-7.28301	816.829	0.000228164	2.60158	3757.78	60.3904	4	65	0.0101583	0.075782	0	0.499564	7.39993	0.945723	7.46012	7.28301	60390.4	472532	476376	-82.717	0.0000000E+000	0.0000000E+000	0.0000000E+000	82.717	0.0000000E+000	0.0000000E+000	0.0000000E+000	-82.717	0.0000000E+000	0.0000000E+000	0.0000000E+000	-7.28301	0.0000000E+000	0.0000000E+000	0.0000000E+000	7.28301	7.82463	7.28301	0.000222229
1388.67	0.141137	0.0169263	0.142148	-6.83872	818.212	0.000238305	2.84491	6771.11	96.0065	4	65	0.0101177	0.0711768	0	0.500266	6.98486	0.837682	7.03491	6.83872	96006.4	800533	806269	-83.1613	0.0000000E+000	0.0000000E+000	0.0000000E+000	83.1613	0.0000000E+000	0.0000000E+000	0.0000000E+000	-83.1613	0.0000000E+000	0.0000000E+000	0.0000000E+000	-6.83872	0.0000000E+000	0.0000000E+000	0.0000000E+000	6.83872	8.33832	6.83872	0.00041489
773.765	0.148559	0.0143965	0.149255	-5.53511	819.595	0.000236031	2.89429	14287.5	132.926	4	65	0.0100848	0.0675676	0	0.501647	6.66871	0.646248	6.69995	5.53511	132926	1.37168e+06	1.37811e+06	-84.4649	0.0000000E+000	0.0000000E+000	0.0000000E+000	84.4649	0.0000000E+000	0.0000000E+000	0.0000000E+000	-84.4649	0.0000000E+000	0.0000000E+000	0.0000000E+000	-5.53511	0.0000000E+000	0.0000000E+000	0.0000000E+000	5.53511	10.3191	5.53511	0.0007464
431.242	0.153839	0.0108103	0.154218	-4.0196	820.978	0.000236609	2.76144	34139.8	167.752	4	65	0.0100551	0.0652009	0	0.50313	6.46838	0.454536	6.48433	4.0196	167752	2.38723e+06	2.39312e+06	-85.9804	0.0000000E+000	0.0000000E+000	0.0000000E+000	85.9804	0.0000000E+000	0.0000000E+000	0.0000000E+000	-85.9804	0.0000000E+000	0.0000000E+000	0.0000000E+000	-4.0196	0.0000000E+000	0.0000000E+000	0.0000000E+000	4.0196	14.2307	4.0196	0.000786192
240.385	0.15665	0.00742642	0.156826	-2.71423	822.356	0.00023357	2.63791	89152.5	199.921	4	65	0.0100433	0.0640409	0	0.503502	6.36935	0.301956	6.3765	2.71423	199921	4.21704e+06	4.22178e+06	-87.2858	0.0000000E+000	0.0000000E+000	0.0000000E+000	87.2858	0.0000000E+000	0.0000000E+000	0.0000000E+000	-87.2858	0.0000000E+000	0.0000000E+000	0.0000000E+000	-2.71423	0.0000000E+000	0.0000000E+000	0.0000000E+000	2.71423	21.0936	2.71423	0.000187723
133.929	0.158369	0.00475461	0.15844	-1.71964	823.746	0.000232004	2.58705	249937	225.077	4	65	0.0100403	0.0633698	0	0.504456	6.30869	0.189402	6.31153	1.71964	225077	7.49697e+06	7.50034e+06	-88.2804	0.0000000E+000	0.0000000E+000	0.0000000E+000	88.2804	0.0000000E+000	0.0000000E+000	0.0000000E+000	-88.2804	0.0000000E+000	0.0000000E+000	0.0000000E+000	-1.71964	0.0000000E+000	0.0000000E+000	0.0000000E+000	1.71964	33.3085	1.71964	0.000731645
74.6414	0.159156	0.00311179	0.159186	-1.1201	825.133	0.000241381	2.93621	685220	261.842	4	65	0.0100392	0.0630656	0	0.505334	6.28075	0.1228	6.28195	1.1201	261842	1.33922e+07	1.33948e+07	-88.8799	0.0000000E+000	0.0000000E+000	0.0000000E+000	88.8799	0.0000000E+000	0.0000000E+000	0.0000000E+000	-88.8799	0.0000000E+000	0.0000000E+000	0.0000000E+000	-1.1201	0.0000000E+000	0.0000000E+000	0.0000000E+000	1.1201	51.1461	1.1201	0.000602851
41.6112	0.159754	0.00216833	0.159769	-0.777625	826.484	0.000227903	2.84528	1.76394e+06	324.903	4	65	0.0100444	0.0628682	0	0.506673	6.25848	0.084946	6.25905	0.777625	324903	2.39375e+07	2.39397e+07	-89.2224	0.0000000E+000	0.0000000E+000	0.0000000E+000	89.2224	0.0000000E+000	0.0000000E+000	0.0000000E+000	-89.2224	0.0000000E+000	0.0000000E+000	0.0000000E+000	-0.777625	0.0000000E+000	0.0000000E+000	0.0000000E+000	0.777625	73.6759	0.777625	0.000771689
23.1963	0.162789	0.0014444	0.162796	-0.508362	828.173	0.000233738	4.08737	4.75022e+06	373.941	4	37	0.0100441	0.0616973	0	0.507851	6.14242	0.0545006	6.14266	0.508362	373941	4.21446e+07	4.21462e+07	-89.4916	0.0000000E+000	0.0000000E+000	0.0000000E+000	89.4916	0.0000000E+000	0.0000000E+000	0.0000000E+000	-89.4916	0.0000000E+000	0.0000000E+000	0.0000000E+000	-0.508362	0.0000000E+000	0.0000000E+000	0.0000000E+000	0.508362	112.704	0.508362	0.000771629
12.9203	0.163041	0.00123172	0.163046	-0.432841	829.574	0.000234791	2.32544	1.00008e+07	570.738	4	37	0.0100418	0.0615887	0	0.5089	6.13306	0.046333	6.13323	0.432841	570735	7.5548e+07	7.55502e+07	-89.5672	0.0000000E+000	0.0000000E+000	0.0000000E+000	89.5672	0.0000000E+000	0.0000000E+000	0.0000000E+000	-89.5672	0.0000000E+000	0.0000000E+000	0.0000000E+000	-0.432841	0.0000000E+000	0.0000000E+000	0.0000000E+000	0.432841	132.369	0.432841	0.000666702
7.20046	0.163299	0.00114075	0.163303	-0.400241	830.795	0.000238454	2.36624	1.93762e+07	945.499	4	37	0.0100409	0.0614862	0	0.509293	6.12343	0.0427761	6.12358	0.400241	945491	1.35349e+08	1.35352e+08	-89.5998	0.0000000E+000	0.0000000E+000	0.0000000E+000	89.5998	0.0000000E+000	0.0000000E+000	0.0000000E+000	-89.5998	0.0000000E+000	0.0000000E+000	0.0000000E+000	-0.400241	0.0000000E+000	0.0000000E+000	0.0000000E+000	0.400241	143.151	0.400241	-2.36412e-05
4.01052	0.163642	0.00111964	0.163646	-0.392012	832.291	0.000246339	2.36826	3.54439e+07	1659.16	4	37	0.0100436	0.0613744	0	0.510223	6.11063	0.041809	6.11077	0.392012	1.65917e+06	2.42496e+08	2.42502e+08	-89.608	0.0000000E+000	0.0000000E+000	0.0000000E+000	89.608	0.0000000E+000	0.0000000E+000	0.0000000E+000	-89.608	0.0000000E+000	0.0000000E+000	0.0000000E+000	-0.392012	0.0000000E+000	0.0000000E+000	0.0000000E+000	0.392012	146.156	0.392012	-0.000321401
2.23725	0.163952	0.00134298	0.163957	-0.469317	834.842	0.000238049	2.33046	5.29708e+07	3553.97	4	37	0.0100417	0.0612458	0	0.513314	6.09895	0.0499584	6.09916	0.469317	3.55395e+06	4.33871e+08	4.33885e+08	-89.5307	0.0000000E+000	0.0000000E+000	0.0000000E+000	89.5307	0.0000000E+000	0.0000000E+000	0.0000000E+000	-89.5307	0.0000000E+000	0.0000000E+000	0.0000000E+000	-0.469317	0.0000000E+000	0.0000000E+000	0.0000000E+000	0.469317	122.081	0.469317	0.0025117
1.24562	0.164561	0.00147146	0.164567	-0.512309	839.313	0.000226809	2.33231	8.68337e+07	6942.18	4	37	0.0100437	0.0610312	0	0.514319	6.0763	0.0543326	6.07655	0.512309	6.94214e+06	7.76381e+08	7.76412e+08	-89.4877	0.0000000E+000	0.0000000E+000	0.0000000E+000	89.4877	0.0000000E+000	0.0000000E+000	0.0000000E+000	-89.4877	0.0000000E+000	0.0000000E+000	0.0000000E+000	-0.512309	0.0000000E+000	0.0000000E+000	0.0000000E+000	0.512309	111.835	0.512309	-0.00036925
0.694753	0.165409	0.001513	0.165416	-0.524069	847.229	0.000227706	2.28893	1.51409e+08	12666.9	4	37	0.0100442	0.0607205	0	0.517452	6.04511	0.0552945	6.04536	0.524069	1.2667e+07	1.38482e+09	1.38488e+09	-89.4759	0.0000000E+000	0.0000000E+000	0.0000000E+000	89.4759	0.0000000E+000	0.0000000E+000	0.0000000E+000	-89.4759	0.0000000E+000	0.0000000E+000	0.0000000E+000	-0.524069	0.0000000E+000	0.0000000E+000	0.0000000E+000	0.524069	109.326	0.524069	0.00305019
0.386872	0.166042	0.00118317	0.166047	-0.408267	861.342	0.00023606	2.30377	3.477e+08	17653.9	4	37	0.0100413	0.0604729	0	0.534755	6.02225	0.0429129	6.02241	0.408267	1.76538e+07	2.47749e+09	2.47755e+09	-89.5917	0.0000000E+000	0.0000000E+000	0.0000000E+000	89.5917	0.0000000E+000	0.0000000E+000	0.0000000E+000	-89.5917	0.0000000E+000	0.0000000E+000	0.0000000E+000	-0.408267	0.0000000E+000	0.0000000E+000	0.0000000E+000	0.408267	140.337	0.408267	0.0101114
0.288924	0.166241	0.000993797	0.166244	-0.342512	872.136	0.000231467	2.26521	5.54293e+08	19808	4	37	0.0100436	0.0604148	0	0.544632	6.01513	0.0359587	6.01524	0.342512	1.98081e+07	3.31346e+09	3.31352e+09	-89.6575	0.0000000E+000	0.0000000E+000	0.0000000E+000	89.6575	0.0000000E+000	0.0000000E+000	0.0000000E+000	-89.6575	0.0000000E+000	0.0000000E+000	0.0000000E+000	-0.342512	0.0000000E+000	0.0000000E+000	0.0000000E+000	0.342512	167.279	0.342512	0.0098764