File: Python/ImpedanceDataOld/dual layer tests _vanadium positive side single-tank symmetric cell_1.6 M total vanadium_ve=5cms_choose the cycle number=3/single-layer_ELAT-H carbon cloth.mpt
EC-Lab ASCII FILE
Nb header lines : 66

Potentio Electrochemical Impedance Spectroscopy

Run on channel : 1 (SN 5680)
User :
Electrode connection : standard
Potential control : Ewe
Ewe ctrl range : min = 0.00 V, max = 5.00 V
Ewe,I filtering : <None>
Safety Limits :
	Do not start on E overload
Channel : Floating
Acquisition started on : 06/29/2023 22:04:26.336
Loaded Setting File :  C:\Data\baili\Electrode Combination Tests\20230622\new tests\positive\AvCarbvers_ve5_30mL_EIS_C01.mpr
Saved on :
	File : ELAT_ve5_30mL_EIS_C01.mpr
	Directory : C:\Data\baili\Electrode Combination Tests\20230622\new tests\positive\
	Host : 192.168.0.1
Device : SP-300 (SN 0955)
Address : 192.168.0.4
EC-Lab for windows v11.46 (software)
Internet server v11.40 (firmware)
Command interpretor v11.46 (firmware)
Electrode material :
Initial state :
Electrolyte :
Comments :
Current amplifier : B-10A5V
Cable : standard
Electrode surface area : 0.001 cm2
Characteristic mass : 0.001 g
Equivalent Weight : 0.000 g/eq.
Density : 0.000 g/cm3
Volume (V) : 0.001 cm3
Cycle Definition : Charge/Discharge alternance
Mode                Single sine
E (V)               0.0000
vs.                 Eoc
tE (h:m:s)          0:00:0.0000
record              0
dI                  0.000
unit dI             mA
dt (s)              0.000
fi                  200.000
unit fi             kHz
ff                  50.000
unit ff             mHz
Nd                  8
Points              per decade
spacing             Logarithmic
Va (mV)             10.0
pw                  0.10
Na                  3
corr                0
E range min (V)     0.000
E range max (V)     5.000
I Range             Auto
Bandwidth           8
nc cycles           3
goto Ns'            0
nr cycles           0
inc. cycle          0

freq/Hz	Re(Z)/Ohm	-Im(Z)/Ohm	|Z|/Ohm	Phase(Z)/deg	time/s	<Ewe>/V	<I>/mA	Cs/uF	Cp/uF	cycle number	I Range	|Ewe|/V	|I|/A	Ns	(Q-Qo)/mA.h	Re(Y)/Ohm-1	Im(Y)/Ohm-1	|Y|/Ohm-1	Phase(Y)/deg	Re(C)/nF	Im(C)/nF	|C|/nF	Phase(C)/deg	Re(M)	Im(M)	|M|	Phase(M)/deg	Re(Permittivity)	Im(Permittivity)	|Permittivity|	Phase(Permittivity)/deg	Re(Resistivity)/Ohm.cm	Im(Resistivity)/Ohm.cm	|Resistivity|/Ohm.cm	Phase(Resistivity)/deg	Re(Conductivity)/mS/cm	Im(Conductivity)/mS/cm	|Conductivity|/mS/cm	Phase(Conductivity)/deg	Tan(Delta)	Loss Angle(Delta)/deg	dq/mA.h
199998	0.100346	-0.0189598	0.102121	10.6996	1.7885	-0.000614484	-20.3228	-41.972	-1.44675	1	65	0.0097529	0.0955029	0	-0.0042382	9.62201	-1.81803	9.79226	-10.6996	-1446.75	7657.02	7792.5	-100.7	0.0000000E+000	0.0000000E+000	0.0000000E+000	100.7	0.0000000E+000	0.0000000E+000	0.0000000E+000	-100.7	0.0000000E+000	0.0000000E+000	0.0000000E+000	10.6996	0.0000000E+000	0.0000000E+000	0.0000000E+000	-10.6996	-5.29256	-10.6996	-0.0042382
111453	0.10252	-0.00884978	0.102902	4.93367	2.94048	-0.000605089	-2.59505	-161.359	-1.19348	1	65	0.0109138	0.106061	0	-0.0043802	9.68202	-0.835773	9.71802	-4.93367	-1193.48	13825.9	13877.3	-94.9337	0.0000000E+000	0.0000000E+000	0.0000000E+000	94.9337	0.0000000E+000	0.0000000E+000	0.0000000E+000	-94.9337	0.0000000E+000	0.0000000E+000	0.0000000E+000	4.93367	0.0000000E+000	0.0000000E+000	0.0000000E+000	-4.93367	-11.5845	-4.93367	-0.000334452
62110.3	0.103808	-0.00283661	0.103847	1.56524	4.09248	-0.000594929	-2.49518	-903.351	-0.674012	1	65	0.0109054	0.105014	0	-0.00477655	9.62595	-0.263034	9.62954	-1.56524	-674.013	24666.1	24675.3	-91.5652	0.0000000E+000	0.0000000E+000	0.0000000E+000	91.5652	0.0000000E+000	0.0000000E+000	0.0000000E+000	-91.5652	0.0000000E+000	0.0000000E+000	0.0000000E+000	1.56524	0.0000000E+000	0.0000000E+000	0.0000000E+000	-1.56524	-36.5959	-1.56524	0.000491037
34618.1	0.105234	0.00134539	0.105242	-0.732475	5.2445	-0.000610588	-2.5386	3417.18	0.55845	1	65	0.0107651	0.102288	0	-0.00558102	9.50109	0.12147	9.50187	0.732475	558.45	43680.8	43684.4	-89.2675	0.0000000E+000	0.0000000E+000	0.0000000E+000	89.2675	0.0000000E+000	0.0000000E+000	0.0000000E+000	-89.2675	0.0000000E+000	0.0000000E+000	0.0000000E+000	-0.732475	0.0000000E+000	0.0000000E+000	0.0000000E+000	0.732475	78.2179	0.732475	0.000729645
19290	0.107239	0.00452605	0.107335	-2.41674	6.39649	-0.00059793	-2.52108	1822.92	3.24136	1	65	0.0105814	0.0985837	0	-0.00425967	9.30837	0.392861	9.31665	2.41674	3241.36	76800	76868.4	-87.5833	0.0000000E+000	0.0000000E+000	0.0000000E+000	87.5833	0.0000000E+000	0.0000000E+000	0.0000000E+000	-87.5833	0.0000000E+000	0.0000000E+000	0.0000000E+000	-2.41674	0.0000000E+000	0.0000000E+000	0.0000000E+000	2.41674	23.6938	2.41674	0.000641998
10753.8	0.10971	0.00736962	0.109958	-3.84298	7.54949	-0.000594724	-2.39085	2008.23	9.02095	1	65	0.0103403	0.0940392	0	-0.0046151	9.07396	0.609528	9.09441	3.84298	9020.94	134294	134596	-86.157	0.0000000E+000	0.0000000E+000	0.0000000E+000	86.157	0.0000000E+000	0.0000000E+000	0.0000000E+000	-86.157	0.0000000E+000	0.0000000E+000	0.0000000E+000	-3.84298	0.0000000E+000	0.0000000E+000	0.0000000E+000	3.84298	14.8869	3.84298	1.67923e-05
5992.11	0.113014	0.0101441	0.113468	-5.12912	9.01211	-0.00069121	-2.92521	2618.34	20.927	1	65	0.0102177	0.0900493	0	-0.00628512	8.77776	0.787891	8.81305	5.12912	20927	233144	234081	-84.8709	0.0000000E+000	0.0000000E+000	0.0000000E+000	84.8709	0.0000000E+000	0.0000000E+000	0.0000000E+000	-84.8709	0.0000000E+000	0.0000000E+000	0.0000000E+000	-5.12912	0.0000000E+000	0.0000000E+000	0.0000000E+000	5.12912	11.1408	5.12912	-0.000993658
3338.93	0.117519	0.0132161	0.118259	-6.41652	10.6298	-0.000685301	-2.93918	3606.68	45.0448	1	65	0.0106501	0.0900572	0	-0.00794415	8.40301	0.945002	8.45598	6.41652	45044.9	400541	403066	-83.5835	0.0000000E+000	0.0000000E+000	0.0000000E+000	83.5835	0.0000000E+000	0.0000000E+000	0.0000000E+000	-83.5835	0.0000000E+000	0.0000000E+000	0.0000000E+000	-6.41652	0.0000000E+000	0.0000000E+000	0.0000000E+000	6.41652	8.89206	6.41652	-0.000970604
1860.6	0.12352	0.016098	0.124565	-7.42533	12.2467	-0.000677006	-2.85105	5313.69	88.7462	1	65	0.0100779	0.0809053	0	-0.00995794	7.96063	1.03748	8.02796	7.42533	88746.2	680951	686709	-82.5747	0.0000000E+000	0.0000000E+000	0.0000000E+000	82.5747	0.0000000E+000	0.0000000E+000	0.0000000E+000	-82.5747	0.0000000E+000	0.0000000E+000	0.0000000E+000	-7.42533	0.0000000E+000	0.0000000E+000	0.0000000E+000	7.42533	7.67301	7.42533	-0.00112975
1036.66	0.131322	0.0180955	0.132563	-7.84566	13.6294	-0.000688265	-2.84248	8484.24	158.092	1	65	0.0101203	0.0763433	0	-0.0112393	7.47297	1.02974	7.54358	7.84566	158092	1.1473e+06	1.15814e+06	-82.1543	0.0000000E+000	0.0000000E+000	0.0000000E+000	82.1543	0.0000000E+000	0.0000000E+000	0.0000000E+000	-82.1543	0.0000000E+000	0.0000000E+000	0.0000000E+000	-7.84566	0.0000000E+000	0.0000000E+000	0.0000000E+000	7.84566	7.25716	7.84566	-0.000888973
577.965	0.140075	0.0179285	0.141218	-7.29376	15.0155	-0.000690725	-2.83093	15359.4	247.562	1	65	0.0100918	0.0714627	0	-0.0126267	7.02397	0.899013	7.08127	7.29376	247562	1.9342e+06	1.94998e+06	-82.7062	0.0000000E+000	0.0000000E+000	0.0000000E+000	82.7062	0.0000000E+000	0.0000000E+000	0.0000000E+000	-82.7062	0.0000000E+000	0.0000000E+000	0.0000000E+000	-7.29376	0.0000000E+000	0.0000000E+000	0.0000000E+000	7.29376	7.81298	7.29376	-0.000671787
321.957	0.147663	0.0155185	0.148476	-5.99941	16.3925	-0.000684779	-2.77634	31854.6	347.982	1	65	0.0100636	0.0677788	0	-0.0138061	6.69819	0.703939	6.73508	5.99941	347982	3.31115e+06	3.32939e+06	-84.0006	0.0000000E+000	0.0000000E+000	0.0000000E+000	84.0006	0.0000000E+000	0.0000000E+000	0.0000000E+000	-84.0006	0.0000000E+000	0.0000000E+000	0.0000000E+000	-5.99941	0.0000000E+000	0.0000000E+000	0.0000000E+000	5.99941	9.5153	5.99941	-0.000677152
179.483	0.153054	0.0120683	0.153529	-4.50843	17.7773	-0.000691695	-2.83615	73477	454.004	1	65	0.0100517	0.0654706	0	-0.0149255	6.49326	0.511992	6.51342	4.50843	454004	5.75784e+06	5.77571e+06	-85.4916	0.0000000E+000	0.0000000E+000	0.0000000E+000	85.4916	0.0000000E+000	0.0000000E+000	0.0000000E+000	-85.4916	0.0000000E+000	0.0000000E+000	0.0000000E+000	-4.50843	0.0000000E+000	0.0000000E+000	0.0000000E+000	4.50843	12.6824	4.50843	-0.000525121
99.9682	0.156464	0.00882038	0.156713	-3.22653	19.1658	-0.000680734	-2.72548	180497	571.791	1	65	0.0100402	0.0640677	0	-0.015968	6.37099	0.359152	6.3811	3.22653	571790	1.0143e+07	1.01591e+07	-86.7735	0.0000000E+000	0.0000000E+000	0.0000000E+000	86.7735	0.0000000E+000	0.0000000E+000	0.0000000E+000	-86.7735	0.0000000E+000	0.0000000E+000	0.0000000E+000	-3.22653	0.0000000E+000	0.0000000E+000	0.0000000E+000	3.22653	17.739	3.22653	-0.000581659
55.7312	0.158861	0.00666074	0.159	-2.4009	20.5441	-0.000679858	-2.9744	428745	752.399	1	65	0.0100418	0.0631558	0	-0.0176583	6.28377	0.263467	6.28929	2.4009	752400	1.7945e+07	1.79607e+07	-87.5991	0.0000000E+000	0.0000000E+000	0.0000000E+000	87.5991	0.0000000E+000	0.0000000E+000	0.0000000E+000	-87.5991	0.0000000E+000	0.0000000E+000	0.0000000E+000	-2.4009	0.0000000E+000	0.0000000E+000	0.0000000E+000	2.4009	23.8503	2.4009	-0.000832662
31.0636	0.160505	0.00543976	0.160597	-1.9411	21.8829	-0.000692962	-2.94664	941864	1080.62	1	65	0.0100378	0.062503	0	-0.0191971	6.22318	0.210913	6.22676	1.9411	1.08062e+06	3.18846e+07	3.19029e+07	-88.0589	0.0000000E+000	0.0000000E+000	0.0000000E+000	88.0589	0.0000000E+000	0.0000000E+000	0.0000000E+000	-88.0589	0.0000000E+000	0.0000000E+000	0.0000000E+000	-1.9411	0.0000000E+000	0.0000000E+000	0.0000000E+000	1.9411	29.5059	1.9411	-0.000775472
17.3099	0.164807	0.00453291	0.164869	-1.57548	23.511	-0.000686475	-2.89225	2.02838e+06	1533.29	1	37	0.0100458	0.0609319	0	-0.0203334	6.06311	0.166762	6.06541	1.57548	1.53329e+06	5.57471e+07	5.57682e+07	-88.4245	0.0000000E+000	0.0000000E+000	0.0000000E+000	88.4245	0.0000000E+000	0.0000000E+000	0.0000000E+000	-88.4245	0.0000000E+000	0.0000000E+000	0.0000000E+000	-1.57548	0.0000000E+000	0.0000000E+000	0.0000000E+000	1.57548	36.3579	1.57548	-0.000410997
9.64507	0.16595	0.00426182	0.166005	-1.47111	25.0141	-0.00069121	-2.92576	3.87186e+06	2551.93	1	37	0.0100407	0.0604842	0	-0.0219711	6.02194	0.154651	6.02392	1.47111	2.55193e+06	9.9369e+07	9.94017e+07	-88.5289	0.0000000E+000	0.0000000E+000	0.0000000E+000	88.5289	0.0000000E+000	0.0000000E+000	0.0000000E+000	-88.5289	0.0000000E+000	0.0000000E+000	0.0000000E+000	-1.47111	0.0000000E+000	0.0000000E+000	0.0000000E+000	1.47111	38.9388	1.47111	-0.000719728
5.37311	0.16739	0.00450498	0.167451	-1.54163	26.1759	-0.000680808	-2.90524	6.57509e+06	4758.99	1	37	0.0100455	0.0599905	0	-0.0230947	5.96975	0.160664	5.97191	1.54163	4.75898e+06	1.76828e+08	1.76892e+08	-88.4584	0.0000000E+000	0.0000000E+000	0.0000000E+000	88.4584	0.0000000E+000	0.0000000E+000	0.0000000E+000	-88.4584	0.0000000E+000	0.0000000E+000	0.0000000E+000	-1.54163	0.0000000E+000	0.0000000E+000	0.0000000E+000	1.54163	37.1566	1.54163	-0.00119401
2.99674	0.168948	0.00509293	0.169025	-1.72665	28.1195	-0.000682834	-2.86808	1.0428e+07	9467.53	1	37	0.0100431	0.0594177	0	-0.0246284	5.9136	0.178265	5.91629	1.72665	9.46753e+06	3.14067e+08	3.1421e+08	-88.2733	0.0000000E+000	0.0000000E+000	0.0000000E+000	88.2733	0.0000000E+000	0.0000000E+000	0.0000000E+000	-88.2733	0.0000000E+000	0.0000000E+000	0.0000000E+000	-1.72665	0.0000000E+000	0.0000000E+000	0.0000000E+000	1.72665	33.1731	1.72665	-0.00189355
1.66934	0.170849	0.00581659	0.170948	-1.94989	31.488	-0.000687657	-2.96443	1.63911e+07	18976.4	1	37	0.01004	0.058731	0	-0.0267154	5.84634	0.199039	5.84972	1.94989	1.89764e+07	5.5739e+08	5.57713e+08	-88.0501	0.0000000E+000	0.0000000E+000	0.0000000E+000	88.0501	0.0000000E+000	0.0000000E+000	0.0000000E+000	-88.0501	0.0000000E+000	0.0000000E+000	0.0000000E+000	-1.94989	0.0000000E+000	0.0000000E+000	0.0000000E+000	1.94989	29.3728	1.94989	-0.000175641
0.930391	0.173709	0.00683847	0.173844	-2.25442	37.4312	-0.000684574	-2.87819	2.50147e+07	38707.5	1	37	0.0100442	0.0577772	0	-0.0298979	5.74784	0.226277	5.75229	2.25442	3.87075e+07	9.83239e+08	9.84001e+08	-87.7456	0.0000000E+000	0.0000000E+000	0.0000000E+000	87.7456	0.0000000E+000	0.0000000E+000	0.0000000E+000	-87.7456	0.0000000E+000	0.0000000E+000	0.0000000E+000	-2.25442	0.0000000E+000	0.0000000E+000	0.0000000E+000	2.25442	25.4018	2.25442	-0.00290313
0.518689	0.177023	0.00734683	0.177175	-2.37653	47.9928	-0.000696185	-2.90997	4.17651e+07	71813.4	1	37	0.0100419	0.0566778	0	-0.0445668	5.63927	0.234041	5.64412	2.37653	7.18135e+07	1.73036e+09	1.73185e+09	-87.6235	0.0000000E+000	0.0000000E+000	0.0000000E+000	87.6235	0.0000000E+000	0.0000000E+000	0.0000000E+000	-87.6235	0.0000000E+000	0.0000000E+000	0.0000000E+000	-2.37653	0.0000000E+000	0.0000000E+000	0.0000000E+000	2.37653	24.0952	2.37653	-0.00842563
0.288924	0.180856	0.00667232	0.180979	-2.11286	66.8612	-0.000679847	-2.83293	8.25581e+07	112217	1	37	0.0100443	0.0554999	0	-0.0583826	5.52175	0.203714	5.52551	2.11286	1.12217e+08	3.04168e+09	3.04375e+09	-87.8871	0.0000000E+000	0.0000000E+000	0.0000000E+000	87.8871	0.0000000E+000	0.0000000E+000	0.0000000E+000	-87.8871	0.0000000E+000	0.0000000E+000	0.0000000E+000	-2.11286	0.0000000E+000	0.0000000E+000	0.0000000E+000	2.11286	27.1054	2.11286	-0.00576803
0.161059	0.183998	0.00529646	0.184075	-1.64883	100.613	-0.000678533	-2.86732	1.86573e+08	154466	1	37	0.0100428	0.0545585	0	-0.0686214	5.43033	0.156314	5.43258	1.64883	1.54466e+08	5.36613e+09	5.36835e+09	-88.3512	0.0000000E+000	0.0000000E+000	0.0000000E+000	88.3512	0.0000000E+000	0.0000000E+000	0.0000000E+000	-88.3512	0.0000000E+000	0.0000000E+000	0.0000000E+000	-1.64883	0.0000000E+000	0.0000000E+000	0.0000000E+000	1.64883	34.7398	1.64883	-0.00628385
0.0897631	0.186812	0.00415123	0.186858	-1.27299	161.092	-0.000671802	-2.84602	4.27115e+08	210802	1	37	0.0100445	0.0537547	0	-0.115146	5.35033	0.118892	5.35165	1.27299	2.10803e+08	9.48643e+09	9.48878e+09	-88.727	0.0000000E+000	0.0000000E+000	0.0000000E+000	88.727	0.0000000E+000	0.0000000E+000	0.0000000E+000	-88.727	0.0000000E+000	0.0000000E+000	0.0000000E+000	-1.27299	0.0000000E+000	0.0000000E+000	0.0000000E+000	1.27299	45.0016	1.27299	-0.0315335
0.049976	0.189011	0.00312973	0.189036	-0.948645	269.587	-0.000673311	-2.89526	1.01754e+09	278916	1	37	0.0100402	0.0531124	0	-0.250119	5.28926	0.0875821	5.28999	0.948645	2.78917e+08	1.68443e+10	1.68466e+10	-89.0514	0.0000000E+000	0.0000000E+000	0.0000000E+000	89.0514	0.0000000E+000	0.0000000E+000	0.0000000E+000	-89.0514	0.0000000E+000	0.0000000E+000	0.0000000E+000	-0.948645	0.0000000E+000	0.0000000E+000	0.0000000E+000	0.948645	60.392	0.948645	-0.0799441
149300	0.10763	-0.0133633	0.108457	7.07757	271.336	-0.000553341	-1.92505	-79.7713	-1.21104	2	65	0.0107374	0.0990019	0	-0.254926	9.15002	-1.13606	9.22028	-7.07757	-1211.04	9753.96	9828.86	-97.0776	0.0000000E+000	0.0000000E+000	0.0000000E+000	97.0776	0.0000000E+000	0.0000000E+000	0.0000000E+000	-97.0776	0.0000000E+000	0.0000000E+000	0.0000000E+000	7.07757	0.0000000E+000	0.0000000E+000	0.0000000E+000	-7.07757	-8.05419	-7.07757	-0.000714757
83200.3	0.10938	-0.0056289	0.109525	2.94595	272.488	-0.000559921	-2.04839	-339.838	-0.897625	2	65	0.0109829	0.100278	0	-0.254773	9.1183	-0.469245	9.13037	-2.94595	-897.625	17442.5	17465.6	-92.946	0.0000000E+000	0.0000000E+000	0.0000000E+000	92.946	0.0000000E+000	0.0000000E+000	0.0000000E+000	-92.946	0.0000000E+000	0.0000000E+000	0.0000000E+000	2.94595	0.0000000E+000	0.0000000E+000	0.0000000E+000	-2.94595	-19.4318	-2.94595	0.000354354
46364.7	0.11066	-0.00056911	0.110661	0.294662	273.641	-0.000567601	-1.91517	-6031.66	-0.159528	2	65	0.0109777	0.0992013	0	-0.256624	9.03646	-0.0464734	9.03658	-0.294662	-159.528	31019.3	31019.7	-90.2947	0.0000000E+000	0.0000000E+000	0.0000000E+000	90.2947	0.0000000E+000	0.0000000E+000	0.0000000E+000	-90.2947	0.0000000E+000	0.0000000E+000	0.0000000E+000	0.294662	0.0000000E+000	0.0000000E+000	0.0000000E+000	-0.294662	-194.444	-0.294662	-0.00077662
25840.6	0.112378	0.00306312	0.11242	-1.56135	274.793	-0.00056214	-1.99753	2010.72	1.49279	2	65	0.0108976	0.0969365	0	-0.256219	8.89195	0.242371	8.89525	1.56135	1492.79	54766.4	54786.7	-88.4387	0.0000000E+000	0.0000000E+000	0.0000000E+000	88.4387	0.0000000E+000	0.0000000E+000	0.0000000E+000	-88.4387	0.0000000E+000	0.0000000E+000	0.0000000E+000	-1.56135	0.0000000E+000	0.0000000E+000	0.0000000E+000	1.56135	36.6873	1.56135	0.00087266
14400.2	0.114625	0.00593358	0.114779	-2.96327	275.945	-0.000565942	-2.02082	1862.66	4.97787	2	65	0.0105204	0.0916581	0	-0.255712	8.70075	0.450394	8.7124	2.96327	4977.87	96162.8	96291.6	-87.0367	0.0000000E+000	0.0000000E+000	0.0000000E+000	87.0367	0.0000000E+000	0.0000000E+000	0.0000000E+000	-87.0367	0.0000000E+000	0.0000000E+000	0.0000000E+000	-2.96327	0.0000000E+000	0.0000000E+000	0.0000000E+000	2.96327	19.3181	2.96327	0.00049521
8023.44	0.117553	0.00872363	0.117877	-4.24414	277.17	-0.000664963	-2.68672	2273.85	12.4538	2	65	0.0102219	0.0867167	0	-0.256677	8.46018	0.62783	8.48345	4.24414	12453.8	167818	168280	-85.7559	0.0000000E+000	0.0000000E+000	0.0000000E+000	85.7559	0.0000000E+000	0.0000000E+000	0.0000000E+000	-85.7559	0.0000000E+000	0.0000000E+000	0.0000000E+000	-4.24414	0.0000000E+000	0.0000000E+000	0.0000000E+000	4.24414	13.4753	4.24414	-0.000388973
4471.43	0.121295	0.0115899	0.121848	-5.45809	278.472	-0.000657526	-2.63735	3071.11	27.7855	2	65	0.0103536	0.0849718	0	-0.257892	8.16976	0.780628	8.20697	5.45809	27785.5	290793	292117	-84.5419	0.0000000E+000	0.0000000E+000	0.0000000E+000	84.5419	0.0000000E+000	0.0000000E+000	0.0000000E+000	-84.5419	0.0000000E+000	0.0000000E+000	0.0000000E+000	-5.45809	0.0000000E+000	0.0000000E+000	0.0000000E+000	5.45809	10.4656	5.45809	-0.000888374
2492.39	0.126278	0.0146174	0.127122	-6.60288	279.856	-0.000667238	-2.64014	4368.53	57.7609	2	65	0.0102551	0.0806714	0	-0.259444	7.8143	0.904544	7.86648	6.60288	57760.9	498993	502325	-83.3971	0.0000000E+000	0.0000000E+000	0.0000000E+000	83.3971	0.0000000E+000	0.0000000E+000	0.0000000E+000	-83.3971	0.0000000E+000	0.0000000E+000	0.0000000E+000	-6.60288	0.0000000E+000	0.0000000E+000	0.0000000E+000	6.60288	8.63894	6.60288	-0.000670551
1388.67	0.133132	0.017356	0.134258	-7.42758	281.239	-0.000651225	-2.66604	6603.48	110.354	2	65	0.0101992	0.0759668	0	-0.260688	7.38583	0.962868	7.44833	7.42758	110354	846488	853651	-82.5724	0.0000000E+000	0.0000000E+000	0.0000000E+000	82.5724	0.0000000E+000	0.0000000E+000	0.0000000E+000	-82.5724	0.0000000E+000	0.0000000E+000	0.0000000E+000	-7.42758	0.0000000E+000	0.0000000E+000	0.0000000E+000	7.42758	7.67066	7.42758	-0.000580473
773.765	0.141593	0.0181603	0.142753	-7.30872	282.622	-0.000662857	-2.77448	11326.3	183.302	2	65	0.010165	0.0712071	0	-0.261237	6.94821	0.891161	7.00513	7.30872	183302	1.42917e+06	1.44088e+06	-82.6913	0.0000000E+000	0.0000000E+000	0.0000000E+000	82.6913	0.0000000E+000	0.0000000E+000	0.0000000E+000	-82.6913	0.0000000E+000	0.0000000E+000	0.0000000E+000	-7.30872	0.0000000E+000	0.0000000E+000	0.0000000E+000	7.30872	7.79681	7.30872	-0.000363705
431.242	0.14963	0.0166254	0.150551	-6.34011	284.005	-0.000671525	-2.67815	22198.7	270.709	2	65	0.0101347	0.0673171	0	-0.262077	6.60164	0.733506	6.64226	6.34011	270709	2.43641e+06	2.45141e+06	-83.6599	0.0000000E+000	0.0000000E+000	0.0000000E+000	83.6599	0.0000000E+000	0.0000000E+000	0.0000000E+000	-83.6599	0.0000000E+000	0.0000000E+000	0.0000000E+000	-6.34011	0.0000000E+000	0.0000000E+000	0.0000000E+000	6.34011	9.00011	6.34011	-0.000490454
240.385	0.156108	0.0135797	0.156697	-4.9716	285.384	-0.000660862	-2.63008	48755.5	366.168	2	65	0.0101246	0.0646126	0	-0.262901	6.35773	0.553054	6.38174	4.9716	366168	4.20935e+06	4.22525e+06	-85.0284	0.0000000E+000	0.0000000E+000	0.0000000E+000	85.0284	0.0000000E+000	0.0000000E+000	0.0000000E+000	-85.0284	0.0000000E+000	0.0000000E+000	0.0000000E+000	-4.9716	0.0000000E+000	0.0000000E+000	0.0000000E+000	4.9716	11.4957	4.9716	-0.000370632
133.929	0.160336	0.0102825	0.160666	-3.66941	286.774	-0.000653313	-2.68858	115571	473.369	2	65	0.0101215	0.0629975	0	-0.263904	6.21135	0.39834	6.22411	3.66941	473370	7.38129e+06	7.39646e+06	-86.3306	0.0000000E+000	0.0000000E+000	0.0000000E+000	86.3306	0.0000000E+000	0.0000000E+000	0.0000000E+000	-86.3306	0.0000000E+000	0.0000000E+000	0.0000000E+000	-3.66941	0.0000000E+000	0.0000000E+000	0.0000000E+000	3.66941	15.5931	3.66941	-0.00022275
74.6414	0.163082	0.00770541	0.163264	-2.70514	288.161	-0.000668561	-2.94254	276722	616.393	2	65	0.0101179	0.0619726	0	-0.265312	6.11824	0.289079	6.12506	2.70514	616393	1.30457e+07	1.30602e+07	-87.2949	0.0000000E+000	0.0000000E+000	0.0000000E+000	87.2949	0.0000000E+000	0.0000000E+000	0.0000000E+000	-87.2949	0.0000000E+000	0.0000000E+000	0.0000000E+000	-2.70514	0.0000000E+000	0.0000000E+000	0.0000000E+000	2.70514	21.1646	2.70514	-0.000598156
41.6112	0.164893	0.00582284	0.164996	-2.02243	289.512	-0.000665896	-2.89335	656863	818.082	2	65	0.010113	0.0612921	0	-0.266285	6.05697	0.213888	6.06074	2.02243	818082	2.31668e+07	2.31812e+07	-87.9776	0.0000000E+000	0.0000000E+000	0.0000000E+000	87.9776	0.0000000E+000	0.0000000E+000	0.0000000E+000	-87.9776	0.0000000E+000	0.0000000E+000	0.0000000E+000	-2.02243	0.0000000E+000	0.0000000E+000	0.0000000E+000	2.02243	28.3184	2.02243	-0.000349513
23.1963	0.169208	0.00478677	0.169276	-1.62042	291.2	-0.00066542	-1.07398	1.43337e+06	1146.19	2	37	0.0101201	0.0597846	0	-0.267844	5.90516	0.167053	5.90752	1.62042	1.14619e+06	4.05167e+07	4.05329e+07	-88.3796	0.0000000E+000	0.0000000E+000	0.0000000E+000	88.3796	0.0000000E+000	0.0000000E+000	0.0000000E+000	-88.3796	0.0000000E+000	0.0000000E+000	0.0000000E+000	-1.62042	0.0000000E+000	0.0000000E+000	0.0000000E+000	1.62042	35.3491	1.62042	-0.000833671
12.9203	0.170485	0.00430972	0.17054	-1.44808	292.601	-0.00066679	-2.82872	2.85823e+06	1825.34	2	37	0.0101224	0.0593549	0	-0.268897	5.86187	0.148183	5.86374	1.44808	1.82534e+06	7.22074e+07	7.22305e+07	-88.5519	0.0000000E+000	0.0000000E+000	0.0000000E+000	88.5519	0.0000000E+000	0.0000000E+000	0.0000000E+000	-88.5519	0.0000000E+000	0.0000000E+000	0.0000000E+000	-1.44808	0.0000000E+000	0.0000000E+000	0.0000000E+000	1.44808	39.5583	1.44808	-0.000593805
7.20046	0.171548	0.00425922	0.171601	-1.42225	293.823	-0.000671861	-2.85981	5.18955e+06	3197.04	2	37	0.0101129	0.0589326	0	-0.270115	5.82567	0.14464	5.82746	1.42225	3.19705e+06	1.28767e+08	1.28807e+08	-88.5777	0.0000000E+000	0.0000000E+000	0.0000000E+000	88.5777	0.0000000E+000	0.0000000E+000	0.0000000E+000	-88.5777	0.0000000E+000	0.0000000E+000	0.0000000E+000	-1.42225	0.0000000E+000	0.0000000E+000	0.0000000E+000	1.42225	40.277	1.42225	-0.000523808
4.01052	0.173129	0.00470817	0.173193	-1.55775	295.317	-0.000674256	-2.87752	8.42882e+06	6228.89	2	37	0.0101179	0.0584195	0	-0.271088	5.77177	0.156961	5.7739	1.55775	6.2289e+06	2.29049e+08	2.29134e+08	-88.4422	0.0000000E+000	0.0000000E+000	0.0000000E+000	88.4422	0.0000000E+000	0.0000000E+000	0.0000000E+000	-88.4422	0.0000000E+000	0.0000000E+000	0.0000000E+000	-1.55775	0.0000000E+000	0.0000000E+000	0.0000000E+000	1.55775	36.772	1.55775	-0.000983095
2.23725	0.174841	0.00537991	0.174924	-1.76245	297.868	-0.000661249	-2.81485	1.3223e+07	12507.9	2	37	0.0101179	0.057842	0	-0.272597	5.71408	0.175824	5.71678	1.76245	1.25078e+07	4.06491e+08	4.06683e+08	-88.2375	0.0000000E+000	0.0000000E+000	0.0000000E+000	88.2375	0.0000000E+000	0.0000000E+000	0.0000000E+000	-88.2375	0.0000000E+000	0.0000000E+000	0.0000000E+000	-1.76245	0.0000000E+000	0.0000000E+000	0.0000000E+000	1.76245	32.4989	1.76245	0.00016498
1.24562	0.176959	0.00630311	0.177071	-2.03996	302.338	-0.000657789	-2.83168	2.02712e+07	25686	2	37	0.010118	0.0571409	0	-0.276159	5.64388	0.20103	5.64746	2.03996	2.5686e+07	7.21129e+08	7.21586e+08	-87.96	0.0000000E+000	0.0000000E+000	0.0000000E+000	87.96	0.0000000E+000	0.0000000E+000	0.0000000E+000	-87.96	0.0000000E+000	0.0000000E+000	0.0000000E+000	-2.03996	0.0000000E+000	0.0000000E+000	0.0000000E+000	2.03996	28.0748	2.03996	-0.0031329
0.694753	0.179956	0.00721099	0.1801	-2.29466	310.254	-0.000673494	-2.86387	3.17684e+07	50927.9	2	37	0.0101179	0.0561791	0	-0.286541	5.54801	0.222314	5.55246	2.29466	5.09278e+07	1.27094e+09	1.27196e+09	-87.7053	0.0000000E+000	0.0000000E+000	0.0000000E+000	87.7053	0.0000000E+000	0.0000000E+000	0.0000000E+000	-87.7053	0.0000000E+000	0.0000000E+000	0.0000000E+000	-2.29466	0.0000000E+000	0.0000000E+000	0.0000000E+000	2.29466	24.9558	2.29466	-0.00518282
0.386872	0.183576	0.00711903	0.183714	-2.22081	324.367	-0.000652137	-2.78115	5.77873e+07	86774.2	2	37	0.0101169	0.0550691	0	-0.291655	5.43917	0.21093	5.44326	2.22081	8.67744e+07	2.23761e+09	2.2393e+09	-87.7792	0.0000000E+000	0.0000000E+000	0.0000000E+000	87.7792	0.0000000E+000	0.0000000E+000	0.0000000E+000	-87.7792	0.0000000E+000	0.0000000E+000	0.0000000E+000	-2.22081	0.0000000E+000	0.0000000E+000	0.0000000E+000	2.22081	25.7866	2.22081	-0.00179455
0.215779	0.186605	0.00596196	0.186701	-1.82995	349.593	-0.000672759	-2.93288	1.23715e+08	126156	2	37	0.010119	0.054199	0	-0.304492	5.35344	0.17104	5.35617	1.82995	1.26156e+08	3.9486e+09	3.95062e+09	-88.1701	0.0000000E+000	0.0000000E+000	0.0000000E+000	88.1701	0.0000000E+000	0.0000000E+000	0.0000000E+000	-88.1701	0.0000000E+000	0.0000000E+000	0.0000000E+000	-1.82995	0.0000000E+000	0.0000000E+000	0.0000000E+000	1.82995	31.2993	1.82995	-0.00944629
0.120214	0.188941	0.00465714	0.188998	-1.41198	394.772	-0.000665046	-2.85138	2.84279e+08	172610	2	37	0.0101183	0.0535364	0	-0.356397	5.28945	0.130378	5.29105	1.41198	1.72611e+08	7.00284e+09	7.00496e+09	-88.588	0.0000000E+000	0.0000000E+000	0.0000000E+000	88.588	0.0000000E+000	0.0000000E+000	0.0000000E+000	-88.588	0.0000000E+000	0.0000000E+000	0.0000000E+000	-1.41198	0.0000000E+000	0.0000000E+000	0.0000000E+000	1.41198	40.5702	1.41198	-0.0323038
0.0669968	0.191299	0.00361248	0.191334	-1.08184	475.749	-0.000672926	-2.87601	6.57598e+08	234417	2	37	0.0101162	0.0528723	0	-0.450708	5.22554	0.0986786	5.22648	1.08184	2.34417e+08	1.24136e+10	1.24158e+10	-88.9182	0.0000000E+000	0.0000000E+000	0.0000000E+000	88.9182	0.0000000E+000	0.0000000E+000	0.0000000E+000	-88.9182	0.0000000E+000	0.0000000E+000	0.0000000E+000	-1.08184	0.0000000E+000	0.0000000E+000	0.0000000E+000	1.08184	52.9552	1.08184	-0.050276
199998	0.10952	-0.0195063	0.111244	10.0989	539.057	-0.000578525	-19.699	-40.7962	-1.25435	3	65	0.00971744	0.0873527	0	-0.502267	8.84999	-1.57624	8.98927	-10.0989	-1254.35	7042.67	7153.5	-100.099	0.0000000E+000	0.0000000E+000	0.0000000E+000	100.099	0.0000000E+000	0.0000000E+000	0.0000000E+000	-100.099	0.0000000E+000	0.0000000E+000	0.0000000E+000	10.0989	0.0000000E+000	0.0000000E+000	0.0000000E+000	-10.0989	-5.61461	-10.0989	-0.00544201
111453	0.111775	-0.00908501	0.112143	4.64676	540.21	-0.000578786	-2.05454	-157.182	-1.03158	3	65	0.0109462	0.0976091	0	-0.503247	8.88784	-0.7224	8.91715	-4.64676	-1031.58	12691.8	12733.7	-94.6468	0.0000000E+000	0.0000000E+000	0.0000000E+000	94.6468	0.0000000E+000	0.0000000E+000	0.0000000E+000	-94.6468	0.0000000E+000	0.0000000E+000	0.0000000E+000	4.64676	0.0000000E+000	0.0000000E+000	0.0000000E+000	-4.64676	-12.3032	-4.64676	-0.000285865
62110.3	0.112995	-0.00280525	0.11303	1.42215	541.363	-0.000574014	-1.97219	-913.452	-0.562656	3	65	0.010988	0.0972136	0	-0.503537	8.84451	-0.219577	8.84724	-1.42215	-562.655	22663.7	22670.7	-91.4222	0.0000000E+000	0.0000000E+000	0.0000000E+000	91.4222	0.0000000E+000	0.0000000E+000	0.0000000E+000	-91.4222	0.0000000E+000	0.0000000E+000	0.0000000E+000	1.42215	0.0000000E+000	0.0000000E+000	0.0000000E+000	-1.42215	-40.2798	-1.42215	0.000507762
34618.1	0.114563	0.0013186	0.11457	-0.659437	542.515	-0.000576307	-2.002	3486.62	0.461835	3	65	0.0109268	0.095372	0	-0.502925	8.7277	0.100455	8.72828	0.659437	461.836	40125.2	40127.8	-89.3406	0.0000000E+000	0.0000000E+000	0.0000000E+000	89.3406	0.0000000E+000	0.0000000E+000	0.0000000E+000	-89.3406	0.0000000E+000	0.0000000E+000	0.0000000E+000	-0.659437	0.0000000E+000	0.0000000E+000	0.0000000E+000	0.659437	86.8821	0.659437	0.000459661
19290	0.11648	0.00453119	0.116568	-2.22775	543.667	-0.000579644	-1.94722	1820.86	2.75134	3	65	0.0107393	0.0921297	0	-0.503032	8.57222	0.333469	8.57871	2.22775	2751.33	70726.4	70779.8	-87.7723	0.0000000E+000	0.0000000E+000	0.0000000E+000	87.7723	0.0000000E+000	0.0000000E+000	0.0000000E+000	-87.7723	0.0000000E+000	0.0000000E+000	0.0000000E+000	-2.22775	0.0000000E+000	0.0000000E+000	0.0000000E+000	2.22775	25.7062	2.22775	0.000384144
10753.8	0.118947	0.00733388	0.119173	-3.52821	544.819	-0.000573604	-1.9761	2018.02	7.64258	3	65	0.0102279	0.0858241	0	-0.502807	8.37529	0.516394	8.39119	3.52821	7642.58	123953	124189	-86.4718	0.0000000E+000	0.0000000E+000	0.0000000E+000	86.4718	0.0000000E+000	0.0000000E+000	0.0000000E+000	-86.4718	0.0000000E+000	0.0000000E+000	0.0000000E+000	-3.52821	0.0000000E+000	0.0000000E+000	0.0000000E+000	3.52821	16.2188	3.52821	2.60097e-05
5992.11	0.122201	0.0101201	0.12262	-4.73412	546.076	-0.000660434	-2.29247	2624.56	17.8773	3	65	0.0104589	0.085295	0	-0.504583	8.12747	0.673072	8.15529	4.73412	17877.3	215871	216610	-85.2659	0.0000000E+000	0.0000000E+000	0.0000000E+000	85.2659	0.0000000E+000	0.0000000E+000	0.0000000E+000	-85.2659	0.0000000E+000	0.0000000E+000	0.0000000E+000	-4.73412	0.0000000E+000	0.0000000E+000	0.0000000E+000	4.73412	12.0752	4.73412	-0.000509817
3338.93	0.126591	0.0131469	0.127271	-5.92912	547.461	-0.00067255	-2.48401	3625.68	38.6878	3	65	0.0105013	0.082511	0	-0.50541	7.81519	0.811636	7.85723	5.92912	38687.8	372522	374526	-84.0709	0.0000000E+000	0.0000000E+000	0.0000000E+000	84.0709	0.0000000E+000	0.0000000E+000	0.0000000E+000	-84.0709	0.0000000E+000	0.0000000E+000	0.0000000E+000	-5.92912	0.0000000E+000	0.0000000E+000	0.0000000E+000	5.92912	9.62894	5.92912	-0.000750412
1860.6	0.132517	0.0159472	0.133473	-6.86206	548.844	-0.000669922	-2.47208	5363.92	76.5717	3	65	0.0104495	0.0782897	0	-0.506119	7.4385	0.89516	7.49217	6.86206	76571.8	636287	640878	-83.1379	0.0000000E+000	0.0000000E+000	0.0000000E+000	83.1379	0.0000000E+000	0.0000000E+000	0.0000000E+000	-83.1379	0.0000000E+000	0.0000000E+000	0.0000000E+000	-6.86206	0.0000000E+000	0.0000000E+000	0.0000000E+000	6.86206	8.30969	6.86206	-0.000603359
1036.66	0.140076	0.0179651	0.141224	-7.30843	550.226	-0.000658756	-2.46482	8545.82	138.293	3	65	0.0104135	0.0737376	0	-0.50732	7.02344	0.900773	7.08096	7.30843	138293	1.07829e+06	1.08712e+06	-82.6916	0.0000000E+000	0.0000000E+000	0.0000000E+000	82.6916	0.0000000E+000	0.0000000E+000	0.0000000E+000	-82.6916	0.0000000E+000	0.0000000E+000	0.0000000E+000	-7.30843	0.0000000E+000	0.0000000E+000	0.0000000E+000	7.30843	7.79712	7.30843	-0.000786002
577.965	0.148624	0.0174808	0.149649	-6.70815	551.613	-0.000654245	-2.49295	15752.8	214.948	3	65	0.0103766	0.0693396	0	-0.508363	6.63658	0.780576	6.68232	6.70815	214948	1.82752e+06	1.84012e+06	-83.2918	0.0000000E+000	0.0000000E+000	0.0000000E+000	83.2918	0.0000000E+000	0.0000000E+000	0.0000000E+000	-83.2918	0.0000000E+000	0.0000000E+000	0.0000000E+000	-6.70815	0.0000000E+000	0.0000000E+000	0.0000000E+000	6.70815	8.50216	6.70815	-0.000518108
321.957	0.155957	0.0149814	0.156675	-5.48704	552.99	-0.000656575	-2.73889	32996.6	301.698	3	65	0.0103553	0.0660941	0	-0.509429	6.35338	0.610311	6.38262	5.48704	301698	3.1407e+06	3.15516e+06	-84.513	0.0000000E+000	0.0000000E+000	0.0000000E+000	84.513	0.0000000E+000	0.0000000E+000	0.0000000E+000	-84.513	0.0000000E+000	0.0000000E+000	0.0000000E+000	-5.48704	0.0000000E+000	0.0000000E+000	0.0000000E+000	5.48704	10.4101	5.48704	-0.000679725
179.483	0.161357	0.011791	0.161787	-4.1794	554.373	-0.00066597	-2.83857	75205.1	399.448	3	65	0.0103469	0.0639538	0	-0.510429	6.16454	0.450467	6.18097	4.1794	399448	5.46635e+06	5.48092e+06	-85.8206	0.0000000E+000	0.0000000E+000	0.0000000E+000	85.8206	0.0000000E+000	0.0000000E+000	0.0000000E+000	-85.8206	0.0000000E+000	0.0000000E+000	0.0000000E+000	-4.1794	0.0000000E+000	0.0000000E+000	0.0000000E+000	4.1794	13.6848	4.1794	-0.000267973
99.9682	0.164504	0.00880266	0.164739	-3.063	555.761	-0.000663696	-2.80708	180861	516.393	3	65	0.0103458	0.0628014	0	-0.511656	6.06154	0.324356	6.07021	3.063	516393	9.65031e+06	9.66412e+06	-86.937	0.0000000E+000	0.0000000E+000	0.0000000E+000	86.937	0.0000000E+000	0.0000000E+000	0.0000000E+000	-86.937	0.0000000E+000	0.0000000E+000	0.0000000E+000	-3.063	0.0000000E+000	0.0000000E+000	0.0000000E+000	3.063	18.6879	3.063	-0.000368367
55.7312	0.166851	0.00662795	0.166983	-2.27481	557.139	-0.000666045	-2.84621	430867	678.826	3	65	0.010348	0.0619708	0	-0.512138	5.98393	0.237704	5.98865	2.27481	678825	1.70887e+07	1.71022e+07	-87.7252	0.0000000E+000	0.0000000E+000	0.0000000E+000	87.7252	0.0000000E+000	0.0000000E+000	0.0000000E+000	-87.7252	0.0000000E+000	0.0000000E+000	0.0000000E+000	-2.27481	0.0000000E+000	0.0000000E+000	0.0000000E+000	2.27481	25.1739	2.27481	-0.000255313
31.0636	0.16832	0.00516507	0.168399	-1.75763	558.477	-0.000651859	-2.79721	991954	933.182	3	65	0.0103447	0.0614299	0	-0.512757	5.93549	0.182137	5.93828	1.75763	933180	3.04106e+07	3.04249e+07	-88.2424	0.0000000E+000	0.0000000E+000	0.0000000E+000	88.2424	0.0000000E+000	0.0000000E+000	0.0000000E+000	-88.2424	0.0000000E+000	0.0000000E+000	0.0000000E+000	-1.75763	0.0000000E+000	0.0000000E+000	0.0000000E+000	1.75763	32.588	1.75763	-0.000252167
17.3099	0.172471	0.00441689	0.172528	-1.46699	560.106	-0.000649939	-2.84501	2.08166e+06	1364.35	3	37	0.0103466	0.059971	0	-0.513369	5.79427	0.148388	5.79617	1.46699	1.36435e+06	5.32753e+07	5.32927e+07	-88.533	0.0000000E+000	0.0000000E+000	0.0000000E+000	88.533	0.0000000E+000	0.0000000E+000	0.0000000E+000	-88.533	0.0000000E+000	0.0000000E+000	0.0000000E+000	-1.46699	0.0000000E+000	0.0000000E+000	0.0000000E+000	1.46699	39.0481	1.46699	-0.000530906
9.64507	0.173652	0.00415935	0.173701	-1.3721	561.609	-0.000662876	-2.84076	3.96724e+06	2274.75	3	37	0.0103465	0.0595646	0	-0.514128	5.75535	0.137854	5.757	1.3721	2.27475e+06	9.497e+07	9.49973e+07	-88.6279	0.0000000E+000	0.0000000E+000	0.0000000E+000	88.6279	0.0000000E+000	0.0000000E+000	0.0000000E+000	-88.6279	0.0000000E+000	0.0000000E+000	0.0000000E+000	-1.3721	0.0000000E+000	0.0000000E+000	0.0000000E+000	1.3721	41.7497	1.3721	-0.000388972
5.37311	0.175028	0.00445039	0.175084	-1.45653	562.77	-0.000654357	-2.83331	6.65575e+06	4300.3	3	37	0.0103517	0.059124	0	-0.514982	5.70969	0.145179	5.71154	1.45653	4.30031e+06	1.69125e+08	1.6918e+08	-88.5435	0.0000000E+000	0.0000000E+000	0.0000000E+000	88.5435	0.0000000E+000	0.0000000E+000	0.0000000E+000	-88.5435	0.0000000E+000	0.0000000E+000	0.0000000E+000	-1.45653	0.0000000E+000	0.0000000E+000	0.0000000E+000	1.45653	39.3286	1.45653	-2.70226e-05
2.99674	0.176563	0.00498869	0.176634	-1.61843	564.713	-0.000667331	-2.85161	1.06459e+07	8492	3	37	0.0103492	0.0585914	0	-0.516245	5.65918	0.159897	5.66143	1.61843	8.49198e+06	3.00555e+08	3.00675e+08	-88.3816	0.0000000E+000	0.0000000E+000	0.0000000E+000	88.3816	0.0000000E+000	0.0000000E+000	0.0000000E+000	-88.3816	0.0000000E+000	0.0000000E+000	0.0000000E+000	-1.61843	0.0000000E+000	0.0000000E+000	0.0000000E+000	1.61843	35.3927	1.61843	0.000304416
1.66934	0.17839	0.00570017	0.178481	-1.83018	568.081	-0.000652019	-2.79204	1.67258e+07	17060.1	3	37	0.0103483	0.0579799	0	-0.520105	5.59999	0.178939	5.60285	1.83018	1.70601e+07	5.33904e+08	5.34176e+08	-88.1698	0.0000000E+000	0.0000000E+000	0.0000000E+000	88.1698	0.0000000E+000	0.0000000E+000	0.0000000E+000	-88.1698	0.0000000E+000	0.0000000E+000	0.0000000E+000	-1.83018	0.0000000E+000	0.0000000E+000	0.0000000E+000	1.83018	31.2955	1.83018	-0.00311371
0.930391	0.180739	0.00700775	0.180875	-2.2204	574.023	-0.000663484	-2.82012	2.44104e+07	36641.8	3	37	0.010347	0.0572051	0	-0.525372	5.52454	0.214202	5.52869	2.2204	3.66419e+07	9.4504e+08	9.4575e+08	-87.7796	0.0000000E+000	0.0000000E+000	0.0000000E+000	87.7796	0.0000000E+000	0.0000000E+000	0.0000000E+000	-87.7796	0.0000000E+000	0.0000000E+000	0.0000000E+000	-2.2204	0.0000000E+000	0.0000000E+000	0.0000000E+000	2.2204	25.7913	2.2204	-0.00186194
0.518689	0.184271	0.00729664	0.184416	-2.26757	584.584	-0.000663476	-2.76707	4.20523e+07	65832.3	3	37	0.010346	0.0561014	0	-0.527564	5.41828	0.214549	5.42253	2.26757	6.58324e+07	1.66255e+09	1.66385e+09	-87.7324	0.0000000E+000	0.0000000E+000	0.0000000E+000	87.7324	0.0000000E+000	0.0000000E+000	0.0000000E+000	-87.7324	0.0000000E+000	0.0000000E+000	0.0000000E+000	-2.26757	0.0000000E+000	0.0000000E+000	0.0000000E+000	2.26757	25.2543	2.26757	-0.00159556
0.288924	0.187654	0.00658312	0.187769	-2.00918	603.452	-0.000668863	-2.7314	8.36768e+07	102854	3	37	0.0103454	0.0550963	0	-0.545642	5.32241	0.186717	5.32569	2.00918	1.02853e+08	2.93187e+09	2.93368e+09	-87.9908	0.0000000E+000	0.0000000E+000	0.0000000E+000	87.9908	0.0000000E+000	0.0000000E+000	0.0000000E+000	-87.9908	0.0000000E+000	0.0000000E+000	0.0000000E+000	-2.00918	0.0000000E+000	0.0000000E+000	0.0000000E+000	2.00918	28.5053	2.00918	-0.0122814
0.161059	0.190206	0.00527624	0.190279	-1.58895	637.201	-0.000659352	-2.76534	1.87288e+08	144005	3	37	0.0103438	0.0543612	0	-0.587064	5.25341	0.145728	5.25543	1.58895	1.44004e+08	5.1913e+09	5.1933e+09	-88.411	0.0000000E+000	0.0000000E+000	0.0000000E+000	88.411	0.0000000E+000	0.0000000E+000	0.0000000E+000	-88.411	0.0000000E+000	0.0000000E+000	0.0000000E+000	-1.58895	0.0000000E+000	0.0000000E+000	0.0000000E+000	1.58895	36.0496	1.58895	-0.0226832
0.0897631	0.192051	0.00409379	0.192095	-1.22114	697.683	-0.000662108	-2.78426	4.33109e+08	196705	3	37	0.0103476	0.0538668	0	-0.627999	5.20457	0.110941	5.20576	1.22114	1.96705e+08	9.228e+09	9.23009e+09	-88.7789	0.0000000E+000	0.0000000E+000	0.0000000E+000	88.7789	0.0000000E+000	0.0000000E+000	0.0000000E+000	-88.7789	0.0000000E+000	0.0000000E+000	0.0000000E+000	-1.22114	0.0000000E+000	0.0000000E+000	0.0000000E+000	1.22114	46.9129	1.22114	-0.0184731
0.049976	0.193408	0.00314342	0.193434	-0.931133	806.179	-0.000665965	-2.81394	1.01311e+09	267544	3	37	0.0103503	0.0535083	0	-0.661566	5.16904	0.0840113	5.16973	0.931133	2.67543e+08	1.64615e+10	1.64636e+10	-89.0689	0.0000000E+000	0.0000000E+000	0.0000000E+000	89.0689	0.0000000E+000	0.0000000E+000	0.0000000E+000	-89.0689	0.0000000E+000	0.0000000E+000	0.0000000E+000	-0.931133	0.0000000E+000	0.0000000E+000	0.0000000E+000	0.931133	61.528	0.931133	-0.0192294
149300	0.112482	-0.0136058	0.113302	6.897	808.095	-0.000561133	-2.64089	-78.349	-1.12982	4	65	0.0107524	0.0949	0	-0.667494	8.76211	-1.05987	8.82598	-6.897	-1129.82	9340.45	9408.54	-96.897	0.0000000E+000	0.0000000E+000	0.0000000E+000	96.897	0.0000000E+000	0.0000000E+000	0.0000000E+000	-96.897	0.0000000E+000	0.0000000E+000	0.0000000E+000	6.897	0.0000000E+000	0.0000000E+000	0.0000000E+000	-6.897	-8.26718	-6.897	-0.00113139
83200.3	0.114025	-0.00576647	0.11417	2.8951	809.247	-0.000561525	-2.52332	-331.73	-0.846249	4	65	0.0109758	0.096135	0	-0.669179	8.74766	-0.442388	8.75884	-2.8951	-846.249	16733.5	16754.9	-92.8951	0.0000000E+000	0.0000000E+000	0.0000000E+000	92.8951	0.0000000E+000	0.0000000E+000	0.0000000E+000	-92.8951	0.0000000E+000	0.0000000E+000	0.0000000E+000	2.8951	0.0000000E+000	0.0000000E+000	0.0000000E+000	-2.8951	-19.7737	-2.8951	-0.000274106
46364.7	0.115369	-0.000634959	0.115371	0.315337	810.4	-0.000557088	-2.42867	-5406.14	-0.163752	4	65	0.0109689	0.0950753	0	-0.669948	8.66757	-0.0477039	8.6677	-0.315337	-163.753	29753	29753.4	-90.3153	0.0000000E+000	0.0000000E+000	0.0000000E+000	90.3153	0.0000000E+000	0.0000000E+000	0.0000000E+000	-90.3153	0.0000000E+000	0.0000000E+000	0.0000000E+000	0.315337	0.0000000E+000	0.0000000E+000	0.0000000E+000	-0.315337	-181.695	-0.315337	0.000488788
25840.6	0.117126	0.00291924	0.117162	-1.42775	811.552	-0.000558933	-2.42233	2109.83	1.30982	4	65	0.0108849	0.0929044	0	-0.67184	8.53254	0.212665	8.53519	1.42775	1309.82	52552.7	52569	-88.5723	0.0000000E+000	0.0000000E+000	0.0000000E+000	88.5723	0.0000000E+000	0.0000000E+000	0.0000000E+000	-88.5723	0.0000000E+000	0.0000000E+000	0.0000000E+000	-1.42775	0.0000000E+000	0.0000000E+000	0.0000000E+000	1.42775	40.1219	1.42775	-0.000432941
14400.2	0.119343	0.00593128	0.119491	-2.84521	812.704	-0.000544524	-2.35787	1863.38	4.59124	4	65	0.0104685	0.0876095	0	-0.672876	8.35853	0.415413	8.36885	2.84521	4591.24	92380.5	92494.6	-87.1548	0.0000000E+000	0.0000000E+000	0.0000000E+000	87.1548	0.0000000E+000	0.0000000E+000	0.0000000E+000	-87.1548	0.0000000E+000	0.0000000E+000	0.0000000E+000	-2.84521	0.0000000E+000	0.0000000E+000	0.0000000E+000	2.84521	20.121	2.84521	-0.000422538
8023.44	0.122167	0.00861427	0.122471	-4.03337	813.929	-0.000643489	-2.8831	2302.72	11.3924	4	65	0.01022	0.083449	0	-0.674362	8.145	0.574322	8.16523	4.03337	11392.4	161566	161967	-85.9666	0.0000000E+000	0.0000000E+000	0.0000000E+000	85.9666	0.0000000E+000	0.0000000E+000	0.0000000E+000	-85.9666	0.0000000E+000	0.0000000E+000	0.0000000E+000	-4.03337	0.0000000E+000	0.0000000E+000	0.0000000E+000	4.03337	14.182	4.03337	-0.000352446
4471.43	0.125817	0.011492	0.12634	-5.21886	815.23	-0.000657395	-2.8028	3097.28	25.6262	4	65	0.0104189	0.0824671	0	-0.674911	7.88232	0.719963	7.91513	5.21886	25626.2	280561	281729	-84.7811	0.0000000E+000	0.0000000E+000	0.0000000E+000	84.7811	0.0000000E+000	0.0000000E+000	0.0000000E+000	-84.7811	0.0000000E+000	0.0000000E+000	0.0000000E+000	-5.21886	0.0000000E+000	0.0000000E+000	0.0000000E+000	5.21886	10.9482	5.21886	-0.000194806
2492.39	0.130728	0.0145103	0.131531	-6.3337	816.614	-0.000657116	-2.8736	4400.75	53.5584	4	65	0.0103596	0.078762	0	-0.675365	7.55639	0.838732	7.60279	6.3337	53558.4	482523	485487	-83.6663	0.0000000E+000	0.0000000E+000	0.0000000E+000	83.6663	0.0000000E+000	0.0000000E+000	0.0000000E+000	-83.6663	0.0000000E+000	0.0000000E+000	0.0000000E+000	-6.3337	0.0000000E+000	0.0000000E+000	0.0000000E+000	6.3337	9.0093	6.3337	-0.000194935
1388.67	0.137622	0.0170547	0.138675	-7.06428	817.998	-0.000656053	-2.74429	6720.14	101.641	4	65	0.0103111	0.0743547	0	-0.676122	7.15635	0.88684	7.21109	7.06428	101640	820188	826461	-82.9357	0.0000000E+000	0.0000000E+000	0.0000000E+000	82.9357	0.0000000E+000	0.0000000E+000	0.0000000E+000	-82.9357	0.0000000E+000	0.0000000E+000	0.0000000E+000	-7.06428	0.0000000E+000	0.0000000E+000	0.0000000E+000	7.06428	8.0695	7.06428	-0.000423791
773.765	0.14577	0.0178908	0.146864	-6.9971	819.381	-0.000651505	-2.7184	11496.9	170.613	4	65	0.0102798	0.0699954	0	-0.67749	6.75833	0.829471	6.80904	6.9971	170613	1.39011e+06	1.40054e+06	-83.0029	0.0000000E+000	0.0000000E+000	0.0000000E+000	83.0029	0.0000000E+000	0.0000000E+000	0.0000000E+000	-83.0029	0.0000000E+000	0.0000000E+000	0.0000000E+000	-6.9971	0.0000000E+000	0.0000000E+000	0.0000000E+000	6.9971	8.14776	6.9971	-0.000593563
431.242	0.154067	0.0162517	0.154922	-6.02155	820.763	-0.00065225	-2.52835	22709.2	249.904	4	65	0.0102538	0.0661872	0	-0.678763	6.41926	0.677133	6.45487	6.02155	249904	2.3691e+06	2.38225e+06	-83.9784	0.0000000E+000	0.0000000E+000	0.0000000E+000	83.9784	0.0000000E+000	0.0000000E+000	0.0000000E+000	-83.9784	0.0000000E+000	0.0000000E+000	0.0000000E+000	-6.02155	0.0000000E+000	0.0000000E+000	0.0000000E+000	6.02155	9.48006	6.02155	-0.000707231
240.385	0.160087	0.0132409	0.160634	-4.72822	822.141	-0.00067283	-2.43482	50002.8	339.749	4	65	0.0102381	0.0637358	0	-0.679118	6.20415	0.51315	6.22534	4.72822	339749	4.10767e+06	4.1217e+06	-85.2718	0.0000000E+000	0.0000000E+000	0.0000000E+000	85.2718	0.0000000E+000	0.0000000E+000	0.0000000E+000	-85.2718	0.0000000E+000	0.0000000E+000	0.0000000E+000	-4.72822	0.0000000E+000	0.0000000E+000	0.0000000E+000	4.72822	12.0903	4.72822	-0.000171648
179.483	0.162345	0.011621	0.16276	-4.09437	822.834	-0.000661888	-2.40314	76305.1	388.994	4	65	0.0102369	0.0628953	0	-0.679378	6.12832	0.438678	6.144	4.09437	388994	5.43424e+06	5.44814e+06	-85.9056	0.0000000E+000	0.0000000E+000	0.0000000E+000	85.9056	0.0000000E+000	0.0000000E+000	0.0000000E+000	-85.9056	0.0000000E+000	0.0000000E+000	0.0000000E+000	-4.09437	0.0000000E+000	0.0000000E+000	0.0000000E+000	4.09437	13.97	4.09437	-0.000260643