File: Python/Experiments/Baichen/IronSymmetricNIPSElectrode/IDFF/Data/ve=1cms.mpt
EC-Lab ASCII FILE
Nb header lines : 69

Potentio Electrochemical Impedance Spectroscopy

Run on channel : 3 (SN 50730)
User :
CE vs. WE compliance from -10 V to 10 V
Electrode connection : standard
Potential control : Ewe
Ewe ctrl range : min = -10.00 V, max = 10.00 V
Safety Limits :
	Do not start on E overload
Acquisition started on : 02/14/2023 14:58:07.205
Loaded Setting File :  C:\Users\sto063\Documents\EC-Lab\Data\Baichen\Micormolding\20230214_denseNoPatternS4_IDFF\NoPattern_IDFF_05Fe_2MHCL_ve10cms_EIS_PCGA.mps
Saved on :
	File : NoPattern_IDFF_05Fe_2MHCL_ve1cms_EIS_PCGA_01_PEIS_C03.mpr
	Directory : C:\Users\sto063\Documents\EC-Lab\Data\Baichen\Micormolding\20230214_denseNoPatternS4_IDFF\
	Host : 131.155.90.158
Device : VSP-3e (SN .003050)
Address : USB
EC-Lab for windows v11.43 (software)
Internet server v11.40 (firmware)
Command interpretor v11.40 (firmware)
Electrode material :
Initial state :
Electrolyte :
Comments :
Electrode surface area : 0.001 cm2
Characteristic mass : 0.001 g
Equivalent Weight : 0.000 g/eq.
Density : 0.000 g/cm3
Volume (V) : 0.001 cm3
Cycle Definition : Charge/Discharge alternance
Mode                Single sine
E (V)               0.0000
vs.                 Eoc
tE (h:m:s)          0:00:0.0000
record              0
dI                  0.000
unit dI             mA
dt (s)              0.000
fi                  200.000
unit fi             kHz
ff                  5.000
unit ff             mHz
Nd                  8
Points              per decade
spacing             Logarithmic
Va (mV)             10.0
pw                  0.10
Na                  5
corr                0
E range min (V)     -10.000
E range max (V)     10.000
I Range             Auto
Bandwidth           5
nc cycles           0
goto Ns'            0
nr cycles           0
inc. cycle          0

Modify on : 02/14/2023 15:44
ff                  3.000

Modify on : 02/14/2023 15:45
ff                  4.000

freq/Hz	Re(Z)/Ohm	-Im(Z)/Ohm	|Z|/Ohm	Phase(Z)/deg	time/s	<Ewe>/V	<I>/mA	Cs/uF	Cp/uF	cycle number	I Range	|Ewe|/V	|I|/A	Ns	(Q-Qo)/mA.h	Re(Y)/Ohm-1	Im(Y)/Ohm-1	|Y|/Ohm-1	Phase(Y)/deg	Re(C)/nF	Im(C)/nF	|C|/nF	Phase(C)/deg	Re(M)	Im(M)	|M|	Phase(M)/deg	Re(Permittivity)	Im(Permittivity)	|Permittivity|	Phase(Permittivity)/deg	Re(Resistivity)/Ohm.cm	Im(Resistivity)/Ohm.cm	|Resistivity|/Ohm.cm	Phase(Resistivity)/deg	Re(Conductivity)/mS/cm	Im(Conductivity)/mS/cm	|Conductivity|/mS/cm	Phase(Conductivity)/deg	Tan(Delta)	Loss Angle(Delta)/deg	dq/mA.h
199998	0.189344	-0.0750858	0.203688	21.6312	1.7385	-0.000389559	-1.67333	-10.5983	-1.44019	1	9	0.000820187	0.00402668	0	-0.00065674	4.56372	-1.80978	4.90947	-21.6312	-1440.19	3631.73	3906.87	-111.631	0.0000000E+000	0.0000000E+000	0.0000000E+000	111.631	0.0000000E+000	0.0000000E+000	0.0000000E+000	-111.631	0.0000000E+000	0.0000000E+000	0.0000000E+000	21.6312	0.0000000E+000	0.0000000E+000	0.0000000E+000	-21.6312	-2.5217	-21.6312	-0.00065674
149393	0.197087	-0.0537485	0.204285	15.2544	2.5625	-0.000400053	-1.59657	-19.8209	-1.37209	1	9	0.00173036	0.00847033	0	-0.00102169	4.72266	-1.28794	4.89513	-15.2544	-1372.09	5031.25	5214.99	-105.254	0.0000000E+000	0.0000000E+000	0.0000000E+000	105.254	0.0000000E+000	0.0000000E+000	0.0000000E+000	-105.254	0.0000000E+000	0.0000000E+000	0.0000000E+000	15.2544	0.0000000E+000	0.0000000E+000	0.0000000E+000	-15.2544	-3.66684	-15.2544	-0.00036495
111593	0.201093	-0.0385578	0.204757	10.8542	3.38648	-0.000420985	-1.62197	-36.989	-1.31166	1	9	0.0045432	0.0221883	0	-0.00140151	4.79648	-0.919681	4.88385	-10.8542	-1311.66	6840.8	6965.42	-100.854	0.0000000E+000	0.0000000E+000	0.0000000E+000	100.854	0.0000000E+000	0.0000000E+000	0.0000000E+000	-100.854	0.0000000E+000	0.0000000E+000	0.0000000E+000	10.8542	0.0000000E+000	0.0000000E+000	0.0000000E+000	-10.8542	-5.21537	-10.8542	-0.000379824
83358.1	0.202185	-0.0268373	0.203958	7.56102	4.3475	-0.000445364	-1.68564	-71.1433	-1.23176	1	9	0.022276	0.109218	0	-0.00196412	4.86033	-0.645142	4.90296	-7.56102	-1231.76	9279.79	9361.18	-97.561	0.0000000E+000	0.0000000E+000	0.0000000E+000	97.561	0.0000000E+000	0.0000000E+000	0.0000000E+000	-97.561	0.0000000E+000	0.0000000E+000	0.0000000E+000	7.56102	0.0000000E+000	0.0000000E+000	0.0000000E+000	-7.56102	-7.53374	-7.56102	-0.00056261
62258.8	0.203009	-0.018644	0.203863	5.24722	6.40449	-0.000369317	-1.31086	-137.114	-1.14678	1	9	0.0118062	0.0579125	0	-0.00269051	4.88469	-0.448602	4.90525	-5.24722	-1146.78	12487	12539.5	-95.2472	0.0000000E+000	0.0000000E+000	0.0000000E+000	95.2472	0.0000000E+000	0.0000000E+000	0.0000000E+000	-95.2472	0.0000000E+000	0.0000000E+000	0.0000000E+000	5.24722	0.0000000E+000	0.0000000E+000	0.0000000E+000	-5.24722	-10.8887	-5.24722	-0.00072639
46503.9	0.20413	-0.0123658	0.204505	3.46663	7.50248	-0.000333679	-1.18712	-276.763	-1.01192	1	9	0.00940098	0.0459695	0	-0.00325739	4.88092	-0.295676	4.88986	-3.46663	-1011.92	16704.5	16735.1	-93.4666	0.0000000E+000	0.0000000E+000	0.0000000E+000	93.4666	0.0000000E+000	0.0000000E+000	0.0000000E+000	-93.4666	0.0000000E+000	0.0000000E+000	0.0000000E+000	3.46663	0.0000000E+000	0.0000000E+000	0.0000000E+000	-3.46663	-16.5077	-3.46663	-0.000566874
34738.7	0.20529	-0.00752321	0.205428	2.09877	8.32648	-0.000326018	-1.16738	-608.98	-0.816755	1	9	0.00932369	0.0453867	0	-0.00347228	4.86463	-0.178273	4.86789	-2.09877	-816.754	22287.2	22302.2	-92.0988	0.0000000E+000	0.0000000E+000	0.0000000E+000	92.0988	0.0000000E+000	0.0000000E+000	0.0000000E+000	-92.0988	0.0000000E+000	0.0000000E+000	0.0000000E+000	2.09877	0.0000000E+000	0.0000000E+000	0.0000000E+000	-2.09877	-27.2875	-2.09877	-0.000214895
25952	0.206532	-0.00400405	0.20657	1.11066	9.15048	-0.000314798	-1.13743	-1531.62	-0.575457	1	9	0.00993716	0.0481054	0	-0.00366129	4.84005	-0.0938346	4.84096	-1.11066	-575.455	29682.5	29688	-91.1107	0.0000000E+000	0.0000000E+000	0.0000000E+000	91.1107	0.0000000E+000	0.0000000E+000	0.0000000E+000	-91.1107	0.0000000E+000	0.0000000E+000	0.0000000E+000	1.11066	0.0000000E+000	0.0000000E+000	0.0000000E+000	-1.11066	-51.5807	-1.11066	-0.000189009
19382.8	0.207798	-0.00148438	0.207804	0.409279	9.97448	-0.000308926	-1.12805	-5531.68	-0.282256	1	9	0.0102762	0.0494514	0	-0.00395517	4.81211	-0.0343748	4.81223	-0.409279	-282.256	39512.9	39513.9	-90.4093	0.0000000E+000	0.0000000E+000	0.0000000E+000	90.4093	0.0000000E+000	0.0000000E+000	0.0000000E+000	-90.4093	0.0000000E+000	0.0000000E+000	0.0000000E+000	0.409279	0.0000000E+000	0.0000000E+000	0.0000000E+000	-0.409279	-139.99	-0.409279	-0.000293882
14474.5	0.209034	0.00043273	0.209035	-0.11861	10.7985	-0.00030751	-1.09779	25409.8	0.108892	1	9	0.0104706	0.05009	0	-0.00426667	4.78388	0.0099033	4.78389	0.11861	108.889	52601.5	52601.6	-89.8814	0.0000000E+000	0.0000000E+000	0.0000000E+000	89.8814	0.0000000E+000	0.0000000E+000	0.0000000E+000	-89.8814	0.0000000E+000	0.0000000E+000	0.0000000E+000	-0.11861	0.0000000E+000	0.0000000E+000	0.0000000E+000	0.11861	483.06	0.11861	-0.000311494
10818.7	0.210292	0.00161783	0.210298	-0.440784	11.6225	-0.000299141	-1.10349	9093.07	0.538155	1	9	0.010474	0.0498053	0	-0.00455202	4.75502	0.0365817	4.75516	0.440784	538.151	69951.3	69953.4	-89.5592	0.0000000E+000	0.0000000E+000	0.0000000E+000	89.5592	0.0000000E+000	0.0000000E+000	0.0000000E+000	-89.5592	0.0000000E+000	0.0000000E+000	0.0000000E+000	-0.440784	0.0000000E+000	0.0000000E+000	0.0000000E+000	0.440784	129.984	0.440784	-0.000285353
8079.73	0.211392	0.00255668	0.211407	-0.692929	12.5479	-0.000314276	-1.08077	7704.56	1.12683	1	9	0.0104118	0.0492501	0	-0.00470871	4.72986	0.0572052	4.7302	0.692929	1126.84	93169	93175.8	-89.3071	0.0000000E+000	0.0000000E+000	0.0000000E+000	89.3071	0.0000000E+000	0.0000000E+000	0.0000000E+000	-89.3071	0.0000000E+000	0.0000000E+000	0.0000000E+000	-0.692929	0.0000000E+000	0.0000000E+000	0.0000000E+000	0.692929	82.6823	0.692929	-0.00015669
6032.66	0.212519	0.00299811	0.21254	-0.808246	13.716	-0.000309877	-1.01846	8799.61	1.75096	1	9	0.0102633	0.0482885	0	-0.00510313	4.70452	0.0663689	4.70499	0.808246	1750.95	124116	124128	-89.1918	0.0000000E+000	0.0000000E+000	0.0000000E+000	89.1918	0.0000000E+000	0.0000000E+000	0.0000000E+000	-89.1918	0.0000000E+000	0.0000000E+000	0.0000000E+000	-0.808246	0.0000000E+000	0.0000000E+000	0.0000000E+000	0.808246	70.8844	0.808246	-0.000394416
4506.44	0.213445	0.0034087	0.213472	-0.914933	15.0537	-0.000300725	-0.989074	10360.9	2.64176	1	9	0.0101345	0.0474747	0	-0.00552728	4.68386	0.074801	4.68446	0.914933	2641.76	165421	165442	-89.0851	0.0000000E+000	0.0000000E+000	0.0000000E+000	89.0851	0.0000000E+000	0.0000000E+000	0.0000000E+000	-89.0851	0.0000000E+000	0.0000000E+000	0.0000000E+000	-0.914933	0.0000000E+000	0.0000000E+000	0.0000000E+000	0.914933	62.6176	0.914933	-0.000424153
3366.08	0.214395	0.0033779	0.214422	-0.902649	16.1697	-0.000303558	-1.00244	13997.5	3.47381	1	9	0.0107328	0.0500548	0	-0.00581599	4.66313	0.07347	4.66371	0.902649	3473.81	220482	220510	-89.0974	0.0000000E+000	0.0000000E+000	0.0000000E+000	89.0974	0.0000000E+000	0.0000000E+000	0.0000000E+000	-89.0974	0.0000000E+000	0.0000000E+000	0.0000000E+000	-0.902649	0.0000000E+000	0.0000000E+000	0.0000000E+000	0.902649	63.4699	0.902649	-0.000288712
2515.81	0.215281	0.00340551	0.215308	-0.906281	17.5067	-0.000301937	-1.00423	18576.4	4.64735	1	9	0.0101751	0.0472583	0	-0.00622436	4.64393	0.0734619	4.64451	0.906281	4647.35	293785	293821	-89.0937	0.0000000E+000	0.0000000E+000	0.0000000E+000	89.0937	0.0000000E+000	0.0000000E+000	0.0000000E+000	-89.0937	0.0000000E+000	0.0000000E+000	0.0000000E+000	-0.906281	0.0000000E+000	0.0000000E+000	0.0000000E+000	0.906281	63.2155	0.906281	-0.000408372
1878.2	0.2161	0.00331757	0.216125	-0.879537	18.6229	-0.000303074	-0.997118	25542.3	6.0185	1	9	0.0103682	0.047973	0	-0.00649482	4.62641	0.0710247	4.62695	0.879537	6018.52	392033	392079	-89.1205	0.0000000E+000	0.0000000E+000	0.0000000E+000	89.1205	0.0000000E+000	0.0000000E+000	0.0000000E+000	-89.1205	0.0000000E+000	0.0000000E+000	0.0000000E+000	-0.879537	0.0000000E+000	0.0000000E+000	0.0000000E+000	0.879537	65.138	0.879537	-0.000270456
1403.65	0.216801	0.00315061	0.216824	-0.832578	19.7389	-0.000306429	-0.989819	35988.7	7.59871	1	9	0.0104743	0.0483078	0	-0.00684764	4.61155	0.0670161	4.61203	0.832578	7598.74	522886	522941	-89.1674	0.0000000E+000	0.0000000E+000	0.0000000E+000	89.1674	0.0000000E+000	0.0000000E+000	0.0000000E+000	-89.1674	0.0000000E+000	0.0000000E+000	0.0000000E+000	-0.832578	0.0000000E+000	0.0000000E+000	0.0000000E+000	0.832578	68.8125	0.832578	-0.000352824
1047.65	0.217458	0.00296749	0.217478	-0.781824	20.8582	-0.000299905	-0.978702	51193.4	9.53146	1	9	0.0105336	0.0484353	0	-0.00719246	4.59773	0.0627418	4.59816	0.781824	9531.44	698467	698532	-89.2182	0.0000000E+000	0.0000000E+000	0.0000000E+000	89.2182	0.0000000E+000	0.0000000E+000	0.0000000E+000	-89.2182	0.0000000E+000	0.0000000E+000	0.0000000E+000	-0.781824	0.0000000E+000	0.0000000E+000	0.0000000E+000	0.781824	73.2802	0.781824	-0.000344813
783.246	0.217954	0.00278219	0.217971	-0.731343	21.9772	-0.000298936	-0.974474	73035.8	11.899	1	9	0.0105623	0.0484573	0	-0.00753406	4.58739	0.0585582	4.58776	0.731343	11899	932154	932230	-89.2687	0.0000000E+000	0.0000000E+000	0.0000000E+000	89.2687	0.0000000E+000	0.0000000E+000	0.0000000E+000	-89.2687	0.0000000E+000	0.0000000E+000	0.0000000E+000	-0.731343	0.0000000E+000	0.0000000E+000	0.0000000E+000	0.731343	78.339	0.731343	-0.000341603
584.439	0.218491	0.00265689	0.218507	-0.696695	23.093	-0.000301937	-0.976672	102496	15.1539	1	9	0.0105813	0.0484256	0	-0.00785637	4.57618	0.0556473	4.57652	0.696695	15153.9	1.24619e+06	1.24628e+06	-89.3033	0.0000000E+000	0.0000000E+000	0.0000000E+000	89.3033	0.0000000E+000	0.0000000E+000	0.0000000E+000	-89.3033	0.0000000E+000	0.0000000E+000	0.0000000E+000	-0.696695	0.0000000E+000	0.0000000E+000	0.0000000E+000	0.696695	82.2354	0.696695	-0.000322309
436.817	0.21884	0.00258816	0.218856	-0.677589	24.2039	-0.000296643	-0.964233	140776	19.6878	1	9	0.0105871	0.0483748	0	-0.00817424	4.5689	0.0540351	4.56922	0.677589	19687.8	1.66469e+06	1.6648e+06	-89.3224	0.0000000E+000	0.0000000E+000	0.0000000E+000	89.3224	0.0000000E+000	0.0000000E+000	0.0000000E+000	-89.3224	0.0000000E+000	0.0000000E+000	0.0000000E+000	-0.677589	0.0000000E+000	0.0000000E+000	0.0000000E+000	0.677589	84.5544	0.677589	-0.000317874
326.358	0.219263	0.00249663	0.219277	-0.65237	25.3149	-0.000307659	-0.981551	195331	25.3219	1	9	0.0105939	0.0483129	0	-0.00844112	4.56015	0.0519242	4.56045	0.65237	25321.7	2.22385e+06	2.22399e+06	-89.3476	0.0000000E+000	0.0000000E+000	0.0000000E+000	89.3476	0.0000000E+000	0.0000000E+000	0.0000000E+000	-89.3476	0.0000000E+000	0.0000000E+000	0.0000000E+000	-0.65237	0.0000000E+000	0.0000000E+000	0.0000000E+000	0.65237	87.8233	0.65237	-0.000266875
243.83	0.219588	0.00246645	0.219602	-0.643529	26.4357	-0.000296606	-0.953879	264644	33.3837	1	9	0.0105948	0.0482454	0	-0.0087417	4.55341	0.0511447	4.5537	0.643529	33383.8	2.97215e+06	2.97234e+06	-89.3565	0.0000000E+000	0.0000000E+000	0.0000000E+000	89.3565	0.0000000E+000	0.0000000E+000	0.0000000E+000	-89.3565	0.0000000E+000	0.0000000E+000	0.0000000E+000	-0.643529	0.0000000E+000	0.0000000E+000	0.0000000E+000	0.643529	89.03	0.643529	-0.00030058
182.157	0.219882	0.00263223	0.219898	-0.685862	27.5404	-0.000300688	-0.953451	331933	47.5617	1	9	0.010593	0.0481724	0	-0.00909726	4.54724	0.0544355	4.54757	0.685862	47561.6	3.97304e+06	3.97332e+06	-89.3141	0.0000000E+000	0.0000000E+000	0.0000000E+000	89.3141	0.0000000E+000	0.0000000E+000	0.0000000E+000	-89.3141	0.0000000E+000	0.0000000E+000	0.0000000E+000	-0.685862	0.0000000E+000	0.0000000E+000	0.0000000E+000	0.685862	83.5344	0.685862	-0.000355557
135.913	0.220347	0.00280894	0.220365	-0.730354	28.6504	-0.00030395	-0.965164	416885	67.735	1	9	0.0105977	0.0480916	0	-0.00944615	4.53755	0.0578436	4.53792	0.730354	67735.1	5.31348e+06	5.31392e+06	-89.2696	0.0000000E+000	0.0000000E+000	0.0000000E+000	89.2696	0.0000000E+000	0.0000000E+000	0.0000000E+000	-89.2696	0.0000000E+000	0.0000000E+000	0.0000000E+000	-0.730354	0.0000000E+000	0.0000000E+000	0.0000000E+000	0.730354	78.4451	0.730354	-0.000348894
101.593	0.220813	0.00307594	0.220834	-0.798084	29.7506	-0.000294183	-0.954382	509306	98.8103	1	9	0.0106007	0.0480029	0	-0.00978147	4.52785	0.0630734	4.52829	0.798084	98809.9	7.0933e+06	7.09399e+06	-89.2019	0.0000000E+000	0.0000000E+000	0.0000000E+000	89.2019	0.0000000E+000	0.0000000E+000	0.0000000E+000	-89.2019	0.0000000E+000	0.0000000E+000	0.0000000E+000	-0.798084	0.0000000E+000	0.0000000E+000	0.0000000E+000	0.798084	71.787	0.798084	-0.000335317
75.8986	0.221218	0.00340845	0.221245	-0.882721	30.8554	-0.000308889	-1.0023	615219	146.015	1	9	0.0105989	0.0479059	0	-0.0100991	4.51935	0.0696323	4.51988	0.882721	146015	9.4768e+06	9.47793e+06	-89.1173	0.0000000E+000	0.0000000E+000	0.0000000E+000	89.1173	0.0000000E+000	0.0000000E+000	0.0000000E+000	-89.1173	0.0000000E+000	0.0000000E+000	0.0000000E+000	-0.882721	0.0000000E+000	0.0000000E+000	0.0000000E+000	0.882721	64.903	0.882721	-0.000317606
56.687	0.221726	0.00386048	0.22176	-0.997477	31.9408	-0.00030477	-0.973152	727270	220.4	1	9	0.0105976	0.0477884	0	-0.0103367	4.5087	0.078501	4.50938	0.997477	220400	1.26587e+07	1.26606e+07	-89.0025	0.0000000E+000	0.0000000E+000	0.0000000E+000	89.0025	0.0000000E+000	0.0000000E+000	0.0000000E+000	-89.0025	0.0000000E+000	0.0000000E+000	0.0000000E+000	-0.997477	0.0000000E+000	0.0000000E+000	0.0000000E+000	0.997477	57.4349	0.997477	-0.000237606
42.3442	0.222275	0.0044697	0.22232	-1.152	33.0007	-0.000287361	-0.946337	840908	339.899	1	9	0.0105947	0.0476553	0	-0.0105755	4.49712	0.0904321	4.49803	1.152	339899	1.69029e+07	1.69063e+07	-88.848	0.0000000E+000	0.0000000E+000	0.0000000E+000	88.848	0.0000000E+000	0.0000000E+000	0.0000000E+000	-88.848	0.0000000E+000	0.0000000E+000	0.0000000E+000	-1.152	0.0000000E+000	0.0000000E+000	0.0000000E+000	1.152	49.7292	1.152	-0.00023884
31.6296	0.223012	0.00515978	0.223071	-1.3254	34.0654	-0.00029983	-0.963208	975206	521.759	1	9	0.0105964	0.0475022	0	-0.0109009	4.48167	0.103691	4.48287	1.3254	521758	2.25511e+07	2.25571e+07	-88.6746	0.0000000E+000	0.0000000E+000	0.0000000E+000	88.6746	0.0000000E+000	0.0000000E+000	0.0000000E+000	-88.6746	0.0000000E+000	0.0000000E+000	0.0000000E+000	-1.3254	0.0000000E+000	0.0000000E+000	0.0000000E+000	1.3254	43.2212	1.3254	-0.00032535
23.617	0.223869	0.00594455	0.223948	-1.52105	35.2425	-0.000303279	-0.932613	1.13364e+06	798.765	1	9	0.0105977	0.0473223	0	-0.011324	4.46374	0.118529	4.46532	1.52105	798766	3.00812e+07	3.00918e+07	-88.4789	0.0000000E+000	0.0000000E+000	0.0000000E+000	88.4789	0.0000000E+000	0.0000000E+000	0.0000000E+000	-88.4789	0.0000000E+000	0.0000000E+000	0.0000000E+000	-1.52105	0.0000000E+000	0.0000000E+000	0.0000000E+000	1.52105	37.6596	1.52105	-0.000423177
17.6354	0.224812	0.00688414	0.224918	-1.75395	36.4916	-0.000293036	-0.954745	1.31094e+06	1228.11	1	9	0.010595	0.0471061	0	-0.011667	4.44399	0.136083	4.44607	1.75395	1.22811e+06	4.01058e+07	4.01246e+07	-88.246	0.0000000E+000	0.0000000E+000	0.0000000E+000	88.246	0.0000000E+000	0.0000000E+000	0.0000000E+000	-88.246	0.0000000E+000	0.0000000E+000	0.0000000E+000	-1.75395	0.0000000E+000	0.0000000E+000	0.0000000E+000	1.75395	32.6565	1.75395	-0.000342984
13.1671	0.225909	0.00781898	0.226045	-1.98228	37.7456	-0.000297547	-0.951169	1.54589e+06	1849.66	1	9	0.0105937	0.0468657	0	-0.0117694	4.42126	0.153025	4.42391	1.98228	1.84966e+06	5.3441e+07	5.3473e+07	-88.0177	0.0000000E+000	0.0000000E+000	0.0000000E+000	88.0177	0.0000000E+000	0.0000000E+000	0.0000000E+000	-88.0177	0.0000000E+000	0.0000000E+000	0.0000000E+000	-1.98228	0.0000000E+000	0.0000000E+000	0.0000000E+000	1.98228	28.8924	1.98228	-0.000102413
9.83942	0.227232	0.0089886	0.227409	-2.26527	38.877	-0.000299253	-0.94157	1.79953e+06	2811.42	1	9	0.0105979	0.0466029	0	-0.0121921	4.39392	0.17381	4.39735	2.26527	2.81142e+06	7.10727e+07	7.11283e+07	-87.7347	0.0000000E+000	0.0000000E+000	0.0000000E+000	87.7347	0.0000000E+000	0.0000000E+000	0.0000000E+000	-87.7347	0.0000000E+000	0.0000000E+000	0.0000000E+000	-2.26527	0.0000000E+000	0.0000000E+000	0.0000000E+000	2.26527	25.28	2.26527	-0.00042269
7.35641	0.228755	0.0103356	0.228988	-2.58697	39.6816	-0.000326317	-1.05727	2.09325e+06	4264.44	1	9	0.0105952	0.0462698	0	-0.0122995	4.36258	0.197109	4.36703	2.58697	4.26444e+06	9.4384e+07	9.44803e+07	-87.413	0.0000000E+000	0.0000000E+000	0.0000000E+000	87.413	0.0000000E+000	0.0000000E+000	0.0000000E+000	-87.413	0.0000000E+000	0.0000000E+000	0.0000000E+000	-2.58697	0.0000000E+000	0.0000000E+000	0.0000000E+000	2.58697	22.1328	2.58697	-0.000107318
5.49402	0.230301	0.0118024	0.230603	-2.9337	40.7128	-0.00030477	-0.921235	2.45449e+06	6429.36	1	9	0.0105954	0.0459465	0	-0.0123911	4.33077	0.221941	4.33645	2.9337	6.42936e+06	1.25457e+08	1.25622e+08	-87.0663	0.0000000E+000	0.0000000E+000	0.0000000E+000	87.0663	0.0000000E+000	0.0000000E+000	0.0000000E+000	-87.0663	0.0000000E+000	0.0000000E+000	0.0000000E+000	-2.9337	0.0000000E+000	0.0000000E+000	0.0000000E+000	2.9337	19.5131	2.9337	-9.16334e-05
4.1032	0.232378	0.0136214	0.232777	-3.35468	42.0485	-0.000291163	-0.794179	2.84758e+06	9750.74	1	9	0.0105935	0.0455094	0	-0.0133418	4.28859	0.251386	4.29595	3.35468	9.75074e+06	1.66346e+08	1.66631e+08	-86.6453	0.0000000E+000	0.0000000E+000	0.0000000E+000	86.6453	0.0000000E+000	0.0000000E+000	0.0000000E+000	-86.6453	0.0000000E+000	0.0000000E+000	0.0000000E+000	-3.35468	0.0000000E+000	0.0000000E+000	0.0000000E+000	3.35468	17.0598	3.35468	-0.000950737
3.06373	0.234616	0.0158612	0.235152	-3.86759	43.7982	-0.000292244	-0.807952	3.27517e+06	14900.8	1	9	0.0105973	0.0450656	0	-0.0134813	4.24289	0.28684	4.25257	3.86759	1.49008e+07	2.2041e+08	2.20913e+08	-86.1324	0.0000000E+000	0.0000000E+000	0.0000000E+000	86.1324	0.0000000E+000	0.0000000E+000	0.0000000E+000	-86.1324	0.0000000E+000	0.0000000E+000	0.0000000E+000	-3.86759	0.0000000E+000	0.0000000E+000	0.0000000E+000	3.86759	14.7918	3.86759	-0.000139468
2.28703	0.237289	0.0181098	0.237979	-4.36433	46.1122	-0.000293078	-0.866548	3.84269e+06	22252.8	1	9	0.0105966	0.0445276	0	-0.0131381	4.18987	0.319769	4.20206	4.36433	2.22528e+07	2.91574e+08	2.92422e+08	-85.6357	0.0000000E+000	0.0000000E+000	0.0000000E+000	85.6357	0.0000000E+000	0.0000000E+000	0.0000000E+000	-85.6357	0.0000000E+000	0.0000000E+000	0.0000000E+000	-4.36433	0.0000000E+000	0.0000000E+000	0.0000000E+000	4.36433	13.1028	4.36433	0.000343168
1.70952	0.240446	0.0209668	0.241359	-4.98356	49.176	-0.000287226	-0.887249	4.44032e+06	33508.3	1	9	0.0105965	0.0439037	0	-0.0150294	4.12755	0.35992	4.14321	4.98356	3.35083e+07	3.84272e+08	3.8573e+08	-85.0164	0.0000000E+000	0.0000000E+000	0.0000000E+000	85.0164	0.0000000E+000	0.0000000E+000	0.0000000E+000	-85.0164	0.0000000E+000	0.0000000E+000	0.0000000E+000	-4.98356	0.0000000E+000	0.0000000E+000	0.0000000E+000	4.98356	11.468	4.98356	-0.00189132
1.27697	0.24423	0.0238056	0.245387	-5.56716	53.2502	-0.000284107	-0.861256	5.23552e+06	49273.7	1	9	0.0105977	0.0431875	0	-0.0172807	4.05597	0.395345	4.07519	5.56716	4.92737e+07	5.05515e+08	5.07911e+08	-84.4328	0.0000000E+000	0.0000000E+000	0.0000000E+000	84.4328	0.0000000E+000	0.0000000E+000	0.0000000E+000	-84.4328	0.0000000E+000	0.0000000E+000	0.0000000E+000	-5.56716	0.0000000E+000	0.0000000E+000	0.0000000E+000	5.56716	10.2593	5.56716	-0.00225123
0.953907	0.24851	0.0271459	0.249988	-6.23398	59.7716	-0.000277942	-0.853726	6.14623e+06	72473.7	1	10	0.0105979	0.0423936	0	-0.0178678	3.97654	0.434377	4.00019	6.23398	7.24737e+07	6.63467e+08	6.67413e+08	-83.766	0.0000000E+000	0.0000000E+000	0.0000000E+000	83.766	0.0000000E+000	0.0000000E+000	0.0000000E+000	-83.766	0.0000000E+000	0.0000000E+000	0.0000000E+000	-6.23398	0.0000000E+000	0.0000000E+000	0.0000000E+000	6.23398	9.15458	6.23398	-0.00058714
0.71204	0.253475	0.0305605	0.255311	-6.87474	67.0138	-0.000288551	-0.857589	7.31401e+06	104794	1	10	0.0105992	0.0415149	0	-0.0172694	3.88863	0.468837	3.91679	6.87474	1.04794e+08	8.69186e+08	8.75481e+08	-83.1253	0.0000000E+000	0.0000000E+000	0.0000000E+000	83.1253	0.0000000E+000	0.0000000E+000	0.0000000E+000	-83.1253	0.0000000E+000	0.0000000E+000	0.0000000E+000	-6.87474	0.0000000E+000	0.0000000E+000	0.0000000E+000	6.87474	8.29421	6.87474	0.000598457
0.531897	0.259278	0.0343744	0.261546	-7.55209	76.6818	-0.000283249	-0.831448	8.70478e+06	150359	1	10	0.0105968	0.040516	0	-0.0180924	3.79025	0.502502	3.82342	7.55209	1.50359e+08	1.13412e+09	1.14405e+09	-82.4479	0.0000000E+000	0.0000000E+000	0.0000000E+000	82.4479	0.0000000E+000	0.0000000E+000	0.0000000E+000	-82.4479	0.0000000E+000	0.0000000E+000	0.0000000E+000	-7.55209	0.0000000E+000	0.0000000E+000	0.0000000E+000	7.55209	7.54276	7.55209	-0.000823086
0.397745	0.265761	0.0386814	0.268561	-8.28122	89.5855	-0.000285157	-0.821696	1.03446e+07	214600	1	10	0.0106003	0.0394705	0	-0.0223623	3.68472	0.536309	3.72354	8.28122	2.14601e+08	1.47442e+09	1.48995e+09	-81.7188	0.0000000E+000	0.0000000E+000	0.0000000E+000	81.7188	0.0000000E+000	0.0000000E+000	0.0000000E+000	-81.7188	0.0000000E+000	0.0000000E+000	0.0000000E+000	-8.28122	0.0000000E+000	0.0000000E+000	0.0000000E+000	8.28122	6.87052	8.28122	-0.00426981
0.297189	0.273013	0.0428929	0.276362	-8.92871	106.83	-0.000285864	-0.808863	1.24854e+07	300758	1	10	0.0105981	0.0383485	0	-0.030333	3.5746	0.561602	3.61844	8.92871	3.00758e+08	1.91432e+09	1.9378e+09	-81.0713	0.0000000E+000	0.0000000E+000	0.0000000E+000	81.0713	0.0000000E+000	0.0000000E+000	0.0000000E+000	-81.0713	0.0000000E+000	0.0000000E+000	0.0000000E+000	-8.92871	0.0000000E+000	0.0000000E+000	0.0000000E+000	8.92871	6.365	8.92871	-0.00797075
0.222085	0.281672	0.0473753	0.285628	-9.5474	129.884	-0.000284842	-0.780989	1.51269e+07	416151	1	10	0.0105966	0.0370995	0	-0.0400244	3.45256	0.580697	3.50106	9.5474	4.16151e+08	2.47425e+09	2.509e+09	-80.4526	0.0000000E+000	0.0000000E+000	0.0000000E+000	80.4526	0.0000000E+000	0.0000000E+000	0.0000000E+000	-80.4526	0.0000000E+000	0.0000000E+000	0.0000000E+000	-9.5474	0.0000000E+000	0.0000000E+000	0.0000000E+000	9.5474	5.94555	9.5474	-0.00969137
0.165554	0.291373	0.0525764	0.296079	-10.2286	160.787	-0.000287598	-0.752971	1.82848e+07	576575	1	10	0.0105978	0.0357939	0	-0.0483532	3.3238	0.599757	3.37748	10.2286	5.76575e+08	3.19532e+09	3.24693e+09	-79.7714	0.0000000E+000	0.0000000E+000	0.0000000E+000	79.7714	0.0000000E+000	0.0000000E+000	0.0000000E+000	-79.7714	0.0000000E+000	0.0000000E+000	0.0000000E+000	-10.2286	0.0000000E+000	0.0000000E+000	0.0000000E+000	10.2286	5.54191	10.2286	-0.00832881
0.123914	0.301753	0.0581677	0.307308	-10.9108	202.051	-0.000276828	-0.716417	2.2081e+07	791105	1	10	0.0105973	0.0344843	0	-0.0526619	3.19524	0.615932	3.25406	10.9108	7.91105e+08	4.10397e+09	4.17953e+09	-79.0892	0.0000000E+000	0.0000000E+000	0.0000000E+000	79.0892	0.0000000E+000	0.0000000E+000	0.0000000E+000	-79.0892	0.0000000E+000	0.0000000E+000	0.0000000E+000	-10.9108	0.0000000E+000	0.0000000E+000	0.0000000E+000	10.9108	5.18764	10.9108	-0.00430876
0.0925652	0.313944	0.0637894	0.320359	-11.4854	257.269	-0.000279514	-0.715428	2.6954e+07	1.06868e+06	1	10	0.0105987	0.0330839	0	-0.053213	3.05899	0.621547	3.12149	11.4854	1.06868e+09	5.25957e+09	5.36704e+09	-78.5146	0.0000000E+000	0.0000000E+000	0.0000000E+000	78.5146	0.0000000E+000	0.0000000E+000	0.0000000E+000	-78.5146	0.0000000E+000	0.0000000E+000	0.0000000E+000	-11.4854	0.0000000E+000	0.0000000E+000	0.0000000E+000	11.4854	4.92157	11.4854	-0.000551022
0.0690785	0.329365	0.0691343	0.336542	-11.8544	331.24	-0.000278109	-0.694722	3.3326e+07	1.40634e+06	1	10	0.0105936	0.0314778	0	-0.0547365	2.90802	0.6104	2.97139	11.8544	1.40634e+09	6.7e+09	6.84601e+09	-78.1456	0.0000000E+000	0.0000000E+000	0.0000000E+000	78.1456	0.0000000E+000	0.0000000E+000	0.0000000E+000	-78.1456	0.0000000E+000	0.0000000E+000	0.0000000E+000	-11.8544	0.0000000E+000	0.0000000E+000	0.0000000E+000	11.8544	4.76413	11.8544	-0.00152358
0.0515901	0.34762	0.0734445	0.355294	-11.9299	430.266	-0.00028473	-0.702441	4.20043e+07	1.79489e+06	1	10	0.010597	0.029826	0	-0.0668888	2.75378	0.581815	2.81457	11.9299	1.79489e+09	8.49539e+09	8.68293e+09	-78.0701	0.0000000E+000	0.0000000E+000	0.0000000E+000	78.0701	0.0000000E+000	0.0000000E+000	0.0000000E+000	-78.0701	0.0000000E+000	0.0000000E+000	0.0000000E+000	-11.9299	0.0000000E+000	0.0000000E+000	0.0000000E+000	11.9299	4.73309	11.9299	-0.0121522
0.0385688	0.366997	0.0741804	0.374418	-11.4271	562.702	-0.000284034	-0.682106	5.56282e+07	2.18353e+06	1	10	0.0105981	0.0283054	0	-0.0992509	2.61787	0.529145	2.67081	11.4271	2.18353e+09	1.08027e+10	1.10211e+10	-78.5729	0.0000000E+000	0.0000000E+000	0.0000000E+000	78.5729	0.0000000E+000	0.0000000E+000	0.0000000E+000	-78.5729	0.0000000E+000	0.0000000E+000	0.0000000E+000	-11.4271	0.0000000E+000	0.0000000E+000	0.0000000E+000	11.4271	4.94735	11.4271	-0.0323621
0.0288152	0.386711	0.0707432	0.393129	-10.3668	739.945	-0.000279143	-0.634995	7.80752e+07	2.52821e+06	1	10	0.0105988	0.0269602	0	-0.15564	2.50217	0.457736	2.5437	10.3668	2.52821e+09	1.38202e+10	1.40496e+10	-79.6332	0.0000000E+000	0.0000000E+000	0.0000000E+000	79.6332	0.0000000E+000	0.0000000E+000	0.0000000E+000	-79.6332	0.0000000E+000	0.0000000E+000	0.0000000E+000	-10.3668	0.0000000E+000	0.0000000E+000	0.0000000E+000	10.3668	5.46641	10.3668	-0.0563896
0.0214768	0.404505	0.0636783	0.409487	-8.94623	977.73	-0.000271386	-0.623499	1.16375e+08	2.81424e+06	1	10	0.010598	0.0258811	0	-0.231664	2.41237	0.379762	2.44208	8.94623	2.81424e+09	1.7877e+10	1.80971e+10	-81.0538	0.0000000E+000	0.0000000E+000	0.0000000E+000	81.0538	0.0000000E+000	0.0000000E+000	0.0000000E+000	-81.0538	0.0000000E+000	0.0000000E+000	0.0000000E+000	-8.94623	0.0000000E+000	0.0000000E+000	0.0000000E+000	8.94623	6.35233	8.94623	-0.076024
0.0160425	0.418628	0.0542802	0.422132	-7.38788	1296.04	-0.000273689	-0.606317	1.82771e+08	3.02199e+06	1	10	0.0105977	0.0251052	0	-0.31505	2.34926	0.30461	2.36893	7.38788	3.02199e+09	2.33066e+10	2.35017e+10	-82.6121	0.0000000E+000	0.0000000E+000	0.0000000E+000	82.6121	0.0000000E+000	0.0000000E+000	0.0000000E+000	-82.6121	0.0000000E+000	0.0000000E+000	0.0000000E+000	-7.38788	0.0000000E+000	0.0000000E+000	0.0000000E+000	7.38788	7.71234	7.38788	-0.083386
0.0120032	0.42842	0.0440649	0.43068	-5.87248	1721.45	-0.000279562	-0.613358	3.00905e+08	3.14996e+06	1	10	0.0105983	0.0246082	0	-0.389497	2.30973	0.237566	2.32191	5.87248	3.14996e+09	3.06254e+10	3.0787e+10	-84.1275	0.0000000E+000	0.0000000E+000	0.0000000E+000	84.1275	0.0000000E+000	0.0000000E+000	0.0000000E+000	-84.1275	0.0000000E+000	0.0000000E+000	0.0000000E+000	-5.87248	0.0000000E+000	0.0000000E+000	0.0000000E+000	5.87248	9.72248	5.87248	-0.0744468
0.00896474	0.434587	0.0345703	0.43596	-4.54815	2291.02	-0.000283867	-0.626513	5.13546e+08	3.22918e+06	1	10	0.0105981	0.0243099	0	-0.443152	2.28657	0.18189	2.29379	4.54815	3.22918e+09	4.05944e+10	4.07226e+10	-85.4518	0.0000000E+000	0.0000000E+000	0.0000000E+000	85.4518	0.0000000E+000	0.0000000E+000	0.0000000E+000	-85.4518	0.0000000E+000	0.0000000E+000	0.0000000E+000	-4.54815	0.0000000E+000	0.0000000E+000	0.0000000E+000	4.54815	12.5711	4.54815	-0.0536551
0.00715934	0.437509	0.0267856	0.438328	-3.50344	3043.58	-0.000282642	-0.628001	8.2994e+08	3.0992e+06	1	10	0.0105993	0.0241813	0	-0.480412	2.27713	0.139413	2.2814	3.50344	3.0992e+09	5.06216e+10	5.07163e+10	-86.4966	0.0000000E+000	0.0000000E+000	0.0000000E+000	86.4966	0.0000000E+000	0.0000000E+000	0.0000000E+000	-86.4966	0.0000000E+000	0.0000000E+000	0.0000000E+000	-3.50344	0.0000000E+000	0.0000000E+000	0.0000000E+000	3.50344	16.3338	3.50344	-0.0372595
0.00535092	0.438137	0.021053	0.438642	-2.75102	3997.78	-0.00028494	-0.637876	1.41279e+09	3.2545e+06	1	10	0.0105939	0.0241515	0	-0.528546	2.27713	0.109419	2.27976	2.75102	3.2545e+09	6.77298e+10	6.7808e+10	-87.249	0.0000000E+000	0.0000000E+000	0.0000000E+000	87.249	0.0000000E+000	0.0000000E+000	0.0000000E+000	-87.249	0.0000000E+000	0.0000000E+000	0.0000000E+000	-2.75102	0.0000000E+000	0.0000000E+000	0.0000000E+000	2.75102	20.8111	2.75102	-0.0481341
0.00400108	0.438243	0.0157283	0.438525	-2.05543	5273.88	-0.000278094	-0.632647	2.52907e+09	3.25338e+06	1	10	0.0105981	0.0241676	0	-0.671818	2.2789	0.0817885	2.28037	2.05543	3.25338e+09	9.06502e+10	9.07085e+10	-87.9446	0.0000000E+000	0.0000000E+000	0.0000000E+000	87.9446	0.0000000E+000	0.0000000E+000	0.0000000E+000	-87.9446	0.0000000E+000	0.0000000E+000	0.0000000E+000	-2.05543	0.0000000E+000	0.0000000E+000	0.0000000E+000	2.05543	27.8634	2.05543	-0.143272