File: Python/Data/GoldElectrode/240313/240313-CVEIS_Activation-0p5H2SO4-Ag_AgCl_BLF8-Au_RDE-80cycles_06_PEIS_C15.mpt
EC-Lab ASCII FILE
Nb header lines : 66

Potentio Electrochemical Impedance Spectroscopy

Run on channel : 15 (SN 19485)
User :
Electrode connection : standard
Potential control : Ewe
Ewe ctrl range : min = -2.50 V, max = 2.50 V
Ewe,I filtering : 50 kHz
Safety Limits :
	Do not start on E overload
Channel : Floating
Acquisition started on : 03/13/2024 15:25:11.595
Loaded Setting File :  C:\Data\mathias\GoldElectrode\240308-CVEIS_Activation-0p5H2SO4-Ag_AgCl_BLF8-Au_RDE-80cycles-C15.mps
Saved on :
	File : 240313-CVEIS_Activation-0p5H2SO4-Ag_AgCl_BLF8-Au_RDE-80cycles_06_PEIS_C15.mpr
	Directory : C:\Data\mathias\GoldElectrode\
	Host : 192.168.0.1
Device : VMP-300 (SN 0826)
Address : USB
EC-Lab for windows v11.52 (software)
Internet server v11.52 (firmware)
Command interpretor v11.52 (firmware)
Electrode material :
Initial state :
Electrolyte :
Comments :
Cable : special
Electrode surface area : 0.001 cm²
Characteristic mass : 0.001 g
Equivalent Weight : 0.000 g/eq.
Density : 0.000 g/cm3
Volume (V) : 0.001 cm³
Record EIS quality indicators
Cycle Definition : Charge/Discharge alternance
Mode                Single sine
E (V)               0.0000
vs.                 Eoc
tE (h:m:s)          0:00:0.0000
record              0
dI                  0.000
unit dI             mA
dt (s)              0.000
fi                  100.000
unit fi             kHz
ff                  100.000
unit ff             Hz
Nd                  10
Points              per decade
spacing             Logarithmic
Va (mV)             5.0
pw                  0.10
Na                  2
corr                0
E range min (V)     -2.500
E range max (V)     2.500
I Range             Auto
Bandwidth           8
nc cycles           0
goto Ns'            0
nr cycles           0
inc. cycle          0

freq/Hz	Re(Z)/Ohm	-Im(Z)/Ohm	|Z|/Ohm	Phase(Z)/deg	time/s	<Ewe>/V	<I>/mA	Cs/µF	Cp/µF	cycle number	I Range	|Ewe|/V	|I|/A	Ns	(Q-Qo)/mA.h	THD Ewe/%	NSD Ewe/%	NSR Ewe/%	|Ewe h2|/V	|Ewe h3|/V	|Ewe h4|/V	|Ewe h5|/V	|Ewe h6|/V	|Ewe h7|/V	THD I/%	NSD I/%	NSR I/%	|I h2|/A	|I h3|/A	|I h4|/A	|I h5|/A	|I h6|/A	|I h7|/A	Re(Y)/Ohm-1	Im(Y)/Ohm-1	|Y|/Ohm-1	Phase(Y)/deg	Re(C)/nF	Im(C)/nF	|C|/nF	Phase(C)/deg	Re(M)	Im(M)	|M|	Phase(M)/deg	Re(Permittivity)	Im(Permittivity)	|Permittivity|	Phase(Permittivity)/deg	Re(Resistivity)/Ohm.cm	Im(Resistivity)/Ohm.cm	|Resistivity|/Ohm.cm	Phase(Resistivity)/deg	Re(Conductivity)/mS/cm	Im(Conductivity)/mS/cm	|Conductivity|/mS/cm	Phase(Conductivity)/deg	Tan(Delta)	Loss Angle(Delta)/deg	dq/mA.h
100004	7.39845	0.676787	7.42934	-5.2267	777.143	0.448502	-0.0196047	2.35154	0.0195144	1	38	0.00486722	0.000655135	0	-4.87621e-06	2.54977	1.33443	47.7577	6.82098e-05	4.94379e-05	5.88366e-05	5.14066e-05	2.71834e-05	2.34089e-05	0.298789	0.162369	5.70739	1.3161e-06	6.60658e-07	1.00317e-06	3.5816e-07	4.11566e-07	3.62694e-07	0.134042	0.0122617	0.134602	5.2267	19.5145	213.326	214.217	-84.7733	0.0000000E+000	0.0000000E+000	0.0000000E+000	84.7733	0.0000000E+000	0.0000000E+000	0.0000000E+000	-84.7733	0.0000000E+000	0.0000000E+000	0.0000000E+000	-5.2267	0.0000000E+000	0.0000000E+000	0.0000000E+000	5.2267	10.9317	84.7733	-4.87621e-06
79433.3	7.4577	0.579063	7.48015	-4.4399	777.957	0.448474	-0.0106003	3.46012	0.0207359	1	38	0.00512119	0.000684637	0	-6.14498e-06	2.05664	1.12344	45.6248	2.95879e-05	4.26484e-05	5.6685e-05	2.18572e-05	4.45783e-05	3.14783e-05	0.366637	0.139438	5.52597	1.16444e-06	5.83511e-07	1.09681e-06	8.54111e-07	1.28767e-06	7.70201e-07	0.133286	0.0103492	0.133687	4.4399	20.7359	267.056	267.86	-85.5601	0.0000000E+000	0.0000000E+000	0.0000000E+000	85.5601	0.0000000E+000	0.0000000E+000	0.0000000E+000	-85.5601	0.0000000E+000	0.0000000E+000	0.0000000E+000	-4.4399	0.0000000E+000	0.0000000E+000	0.0000000E+000	4.4399	12.8789	85.5601	-1.26877e-06
63093.8	7.47382	0.686966	7.50532	-5.25166	778.771	0.448497	-0.0106115	3.67196	0.0307631	1	38	0.00515554	0.000686918	0	-9.42133e-06	4.08094	1.85021	45.4233	0.00018036	4.46064e-05	6.47131e-05	5.67663e-05	4.11527e-05	1.28086e-05	0.40854	0.149083	5.65296	1.94783e-06	1.05918e-06	9.80543e-07	2.6618e-07	9.03997e-07	9.15318e-07	0.132679	0.0121954	0.133239	5.25166	30.7631	334.686	336.096	-84.7483	0.0000000E+000	0.0000000E+000	0.0000000E+000	84.7483	0.0000000E+000	0.0000000E+000	0.0000000E+000	-84.7483	0.0000000E+000	0.0000000E+000	0.0000000E+000	-5.25166	0.0000000E+000	0.0000000E+000	0.0000000E+000	5.25166	10.8795	84.7483	-3.27635e-06
50122.5	7.52609	0.538366	7.54533	-4.09158	779.585	0.44846	-0.0108256	5.89807	0.0300268	1	38	0.00516728	0.000684832	0	-1.1064e-05	2.2402	1.19666	44.4614	5.99314e-05	3.41974e-05	3.18633e-05	4.08553e-05	2.48926e-05	6.86756e-05	0.337051	0.242355	5.47318	4.12207e-07	8.94873e-07	6.17238e-07	7.67456e-07	1.43745e-06	9.42938e-07	0.132195	0.00945631	0.132532	4.09158	30.0268	419.76	420.833	-85.9084	0.0000000E+000	0.0000000E+000	0.0000000E+000	85.9084	0.0000000E+000	0.0000000E+000	0.0000000E+000	-85.9084	0.0000000E+000	0.0000000E+000	0.0000000E+000	-4.09158	0.0000000E+000	0.0000000E+000	0.0000000E+000	4.09158	13.9795	85.9084	-1.64267e-06
39814.1	7.54288	0.599126	7.56664	-4.54143	780.399	0.448431	-0.00962463	6.67215	0.0418307	1	38	0.00514559	0.000680036	0	-1.26265e-05	2.18038	1.25102	44.1983	5.28525e-05	3.96678e-05	4.66773e-05	4.11388e-05	3.59639e-05	4.65453e-05	0.292211	0.125804	5.56842	7.65921e-07	8.99204e-07	9.85497e-07	5.83261e-07	1.95735e-07	9.92178e-07	0.131744	0.0104643	0.132159	4.54143	41.8307	526.641	528.3	-85.4586	0.0000000E+000	0.0000000E+000	0.0000000E+000	85.4586	0.0000000E+000	0.0000000E+000	0.0000000E+000	-85.4586	0.0000000E+000	0.0000000E+000	0.0000000E+000	-4.54143	0.0000000E+000	0.0000000E+000	0.0000000E+000	4.54143	12.5898	85.4586	-1.5625e-06
31621.1	7.59261	0.653841	7.62071	-4.92191	781.214	0.448443	-0.00933417	7.69787	0.0566662	1	38	0.00517315	0.000678828	0	-1.58638e-05	2.10395	1.29595	43.9475	5.60535e-05	1.02832e-05	4.32275e-05	4.34505e-05	5.14888e-05	3.76364e-05	0.350309	0.173839	5.6081	5.04308e-07	1.64191e-06	1.22128e-06	5.79243e-07	2.18882e-07	3.8061e-07	0.130738	0.0112585	0.131221	4.92191	56.6661	658.026	660.461	-85.0781	0.0000000E+000	0.0000000E+000	0.0000000E+000	85.0781	0.0000000E+000	0.0000000E+000	0.0000000E+000	-85.0781	0.0000000E+000	0.0000000E+000	0.0000000E+000	-4.92191	0.0000000E+000	0.0000000E+000	0.0000000E+000	4.92191	11.6123	85.0781	-3.23735e-06
25116.9	7.60661	0.74069	7.64258	-5.56162	782.028	0.448456	-0.0091126	8.55495	0.0803545	1	38	0.00513121	0.000671398	0	-1.89171e-05	2.20226	2.6498	46.8348	4.40265e-05	2.18954e-05	5.53973e-05	4.76734e-05	5.57022e-05	3.99097e-05	0.388086	0.314346	5.73261	7.92992e-07	1.12995e-06	6.62706e-07	9.6231e-07	7.36519e-07	1.5839e-06	0.13023	0.0126811	0.130846	5.56162	80.3545	825.21	829.113	-84.4384	0.0000000E+000	0.0000000E+000	0.0000000E+000	84.4384	0.0000000E+000	0.0000000E+000	0.0000000E+000	-84.4384	0.0000000E+000	0.0000000E+000	0.0000000E+000	-5.56162	0.0000000E+000	0.0000000E+000	0.0000000E+000	5.56162	10.2696	84.4384	-3.05328e-06
19948.8	7.68077	0.787746	7.72106	-5.85583	782.842	0.448483	-0.00936396	10.1279	0.105423	1	38	0.00515766	0.000667998	0	-2.11535e-05	2.79478	1.36399	46.4454	5.01326e-05	2.77942e-05	9.78334e-05	8.7592e-06	4.59474e-05	7.21215e-05	0.449766	0.266499	5.7419	4.31381e-07	9.70492e-07	1.85103e-06	1.09972e-06	9.36192e-07	1.27551e-06	0.12884	0.0132139	0.129516	5.85583	105.423	1027.91	1033.3	-84.1442	0.0000000E+000	0.0000000E+000	0.0000000E+000	84.1442	0.0000000E+000	0.0000000E+000	0.0000000E+000	-84.1442	0.0000000E+000	0.0000000E+000	0.0000000E+000	-5.85583	0.0000000E+000	0.0000000E+000	0.0000000E+000	5.85583	9.75031	84.1442	-2.23641e-06
15847.7	7.70847	0.96547	7.76869	-7.139	783.656	0.44845	-0.00901764	10.402	0.160656	1	38	0.0051738	0.000665981	0	-2.26416e-05	2.39438	0.91791	45.554	1.18997e-05	4.97893e-05	5.02143e-05	7.59656e-05	4.15137e-05	3.76165e-05	0.336872	0.18294	5.74142	8.62481e-07	4.00608e-07	6.33668e-07	5.07988e-07	4.4616e-07	1.67005e-06	0.127724	0.0159972	0.128722	7.139	160.656	1282.7	1292.73	-82.861	0.0000000E+000	0.0000000E+000	0.0000000E+000	82.861	0.0000000E+000	0.0000000E+000	0.0000000E+000	-82.861	0.0000000E+000	0.0000000E+000	0.0000000E+000	-7.139	0.0000000E+000	0.0000000E+000	0.0000000E+000	7.139	7.98416	82.861	-1.48808e-06
12590.9	7.8202	1.15032	7.90435	-8.36795	784.471	0.44842	-0.00866388	10.9887	0.232727	1	38	0.00508674	0.000643537	0	-2.53088e-05	2.42931	1.6062	44.0784	5.95993e-05	5.06803e-05	3.88936e-05	6.01183e-05	3.2904e-05	3.69217e-05	0.331784	0.213566	5.81207	7.15973e-07	8.53988e-07	4.29829e-07	1.01839e-06	1.11531e-06	7.00135e-07	0.125166	0.0184113	0.126513	8.36795	232.727	1582.15	1599.18	-81.6321	0.0000000E+000	0.0000000E+000	0.0000000E+000	81.6321	0.0000000E+000	0.0000000E+000	0.0000000E+000	-81.6321	0.0000000E+000	0.0000000E+000	0.0000000E+000	-8.36795	0.0000000E+000	0.0000000E+000	0.0000000E+000	8.36795	6.7983	81.6321	-2.6672e-06
10002.2	7.81208	1.2777	7.91588	-9.28872	785.285	0.44847	-0.00842182	12.4536	0.324454	1	38	0.00511247	0.00064585	0	-2.76918e-05	1.56377	1.52078	46.3458	3.3741e-05	2.48934e-05	4.22206e-05	3.07698e-05	3.68285e-05	1.40599e-05	0.231798	0.180748	5.84367	2.952e-07	7.82503e-07	5.22232e-07	4.13284e-07	6.0385e-07	7.91024e-07	0.124672	0.0203906	0.126328	9.28872	324.454	1983.77	2010.13	-80.7113	0.0000000E+000	0.0000000E+000	0.0000000E+000	80.7113	0.0000000E+000	0.0000000E+000	0.0000000E+000	-80.7113	0.0000000E+000	0.0000000E+000	0.0000000E+000	-9.28872	0.0000000E+000	0.0000000E+000	0.0000000E+000	9.28872	6.11419	80.7113	-2.38294e-06
7944	7.83685	1.61765	8.00207	-11.663	786.135	0.448371	-0.00829335	12.385	0.50613	1	38	0.00512709	0.00064072	0	-2.95645e-05	1.82188	1.35653	45.9882	3.30077e-05	1.32128e-05	5.09745e-05	3.45461e-05	4.6818e-05	3.56842e-05	0.286624	0.188115	6.02624	1.02318e-06	6.2348e-07	9.4725e-07	5.38936e-07	5.07179e-07	3.88899e-07	0.122388	0.0252628	0.124968	11.663	506.13	2451.99	2503.68	-78.337	0.0000000E+000	0.0000000E+000	0.0000000E+000	78.337	0.0000000E+000	0.0000000E+000	0.0000000E+000	-78.337	0.0000000E+000	0.0000000E+000	0.0000000E+000	-11.663	0.0000000E+000	0.0000000E+000	0.0000000E+000	11.663	4.84458	78.337	-1.87271e-06
6307.74	7.95042	1.92479	8.1801	-13.6094	787.033	0.448361	-0.00817419	13.1088	0.725794	1	38	0.00504175	0.000616343	0	-3.26828e-05	3.62153	1.57076	46.7272	6.78875e-05	0.000113744	7.61235e-05	5.08928e-05	4.51042e-05	6.94655e-05	0.428962	0.142802	6.26581	1.03699e-06	1.56302e-06	8.5446e-07	1.19907e-06	6.34372e-07	4.38584e-07	0.118816	0.0287651	0.122248	13.6094	725.794	2997.92	3084.52	-76.3906	0.0000000E+000	0.0000000E+000	0.0000000E+000	76.3906	0.0000000E+000	0.0000000E+000	0.0000000E+000	-76.3906	0.0000000E+000	0.0000000E+000	0.0000000E+000	-13.6094	0.0000000E+000	0.0000000E+000	0.0000000E+000	13.6094	4.13054	76.3906	-3.11835e-06
5011.6	7.98958	2.35274	8.3288	-16.4085	787.789	0.448359	-0.00845534	13.498	1.07709	1	38	0.005406	0.000649073	0	-3.49154e-05	2.16218	0.820101	44.3572	3.31424e-05	3.09346e-05	4.84137e-05	2.71121e-05	8.02511e-05	3.60419e-05	0.261015	0.172141	5.7909	4.16493e-07	6.00566e-07	3.19404e-07	8.95691e-07	4.9165e-07	7.83161e-07	0.115175	0.0339164	0.120065	16.4085	1077.09	3657.66	3812.95	-73.5915	0.0000000E+000	0.0000000E+000	0.0000000E+000	73.5915	0.0000000E+000	0.0000000E+000	0.0000000E+000	-73.5915	0.0000000E+000	0.0000000E+000	0.0000000E+000	-16.4085	0.0000000E+000	0.0000000E+000	0.0000000E+000	16.4085	3.39586	73.5915	-2.23256e-06
3981.28	7.96125	2.87598	8.46479	-19.8621	788.754	0.448361	-0.00914239	13.8999	1.60454	1	38	0.00500969	0.000591827	0	-3.65726e-05	2.9444	1.82803	47.282	8.46655e-05	3.02292e-05	3.65894e-05	4.80903e-05	7.95567e-05	4.03221e-05	0.359463	0.235947	6.38689	1.10966e-06	6.26849e-07	4.60034e-07	8.93235e-07	6.18049e-07	1.03023e-06	0.111109	0.0401378	0.118136	19.8621	1604.54	4441.67	4722.6	-70.1379	0.0000000E+000	0.0000000E+000	0.0000000E+000	70.1379	0.0000000E+000	0.0000000E+000	0.0000000E+000	-70.1379	0.0000000E+000	0.0000000E+000	0.0000000E+000	-19.8621	0.0000000E+000	0.0000000E+000	0.0000000E+000	19.8621	2.76818	70.1379	-1.65723e-06
3163.04	8.11953	3.51926	8.8494	-23.4334	789.497	0.448387	-0.00898599	14.2976	2.2612	1	38	0.00520694	0.000588394	0	-3.81557e-05	2.35874	1.71677	46.3455	4.82539e-05	5.42195e-05	6.49679e-05	4.00367e-05	3.17494e-05	4.24255e-05	0.226351	0.191444	6.48166	6.05426e-07	5.44492e-07	3.09571e-07	4.73761e-07	7.69187e-07	2.00298e-07	0.103682	0.044939	0.113002	23.4334	2261.2	5216.97	5685.93	-66.5666	0.0000000E+000	0.0000000E+000	0.0000000E+000	66.5666	0.0000000E+000	0.0000000E+000	0.0000000E+000	-66.5666	0.0000000E+000	0.0000000E+000	0.0000000E+000	-23.4334	0.0000000E+000	0.0000000E+000	0.0000000E+000	23.4334	2.30717	66.5666	-1.58304e-06
2512.41	8.17602	4.25279	9.21594	-27.4814	790.24	0.448344	-0.00771057	14.8955	3.17193	1	38	0.00526748	0.000571562	0	-3.95633e-05	1.71946	0.987205	42.4876	1.73074e-05	3.29727e-05	3.89945e-05	1.12092e-05	4.61352e-05	4.97812e-05	0.336573	0.227709	6.63547	3.74929e-07	7.42777e-07	8.73135e-07	8.82263e-07	7.42868e-07	5.60968e-07	0.0962638	0.050072	0.108508	27.4814	3171.93	6098.07	6873.69	-62.5186	0.0000000E+000	0.0000000E+000	0.0000000E+000	62.5186	0.0000000E+000	0.0000000E+000	0.0000000E+000	-62.5186	0.0000000E+000	0.0000000E+000	0.0000000E+000	-27.4814	0.0000000E+000	0.0000000E+000	0.0000000E+000	27.4814	1.92251	62.5186	-1.40766e-06
1995.64	8.11347	5.40022	9.74632	-33.6472	790.983	0.448342	-0.00756906	14.7682	4.53386	1	38	0.0052589	0.000539578	0	-4.0993e-05	1.56752	2.68407	44.939	3.21258e-05	3.82907e-05	4.22723e-05	2.59296e-05	2.89184e-05	2.66687e-05	0.371042	0.275395	7.03973	5.8036e-07	1.08224e-06	3.6125e-07	1.06343e-06	2.92104e-07	9.49841e-07	0.0854133	0.0568499	0.102603	33.6472	4533.86	6811.83	8182.72	-56.3528	0.0000000E+000	0.0000000E+000	0.0000000E+000	56.3528	0.0000000E+000	0.0000000E+000	0.0000000E+000	-56.3528	0.0000000E+000	0.0000000E+000	0.0000000E+000	-33.6472	0.0000000E+000	0.0000000E+000	0.0000000E+000	33.6472	1.50243	56.3528	-1.42971e-06
1584.49	8.40291	6.48927	10.6169	-37.6777	791.727	0.448342	-0.00742197	15.4787	5.78265	1	38	0.00529828	0.00049904	0	-4.21516e-05	2.32728	0.706502	45.2722	3.7578e-05	5.2324e-05	2.12377e-05	4.27214e-05	3.69392e-05	7.95168e-05	0.405727	0.165605	7.87404	5.11853e-07	6.51392e-07	5.15648e-07	9.72911e-07	1.25905e-06	4.31269e-07	0.0745471	0.0575701	0.0941891	37.6777	5782.65	7487.91	9460.86	-52.3223	0.0000000E+000	0.0000000E+000	0.0000000E+000	52.3223	0.0000000E+000	0.0000000E+000	0.0000000E+000	-52.3223	0.0000000E+000	0.0000000E+000	0.0000000E+000	-37.6777	0.0000000E+000	0.0000000E+000	0.0000000E+000	37.6777	1.29489	52.3223	-1.15857e-06
1258.79	8.40878	8.00467	11.6096	-43.5896	792.471	0.448356	-0.0072637	15.7951	7.50891	1	38	0.0052089	0.000448673	0	-4.3455e-05	1.91605	2.3651	43.9041	5.68921e-05	3.20093e-05	3.99614e-05	2.35366e-05	2.08461e-05	4.71269e-05	0.397021	0.387438	8.53645	5.74883e-07	1.15245e-06	4.8444e-07	6.08045e-07	2.72212e-07	8.67939e-07	0.0623879	0.0593896	0.0861358	43.5896	7508.91	7888	10890.6	-46.4104	0.0000000E+000	0.0000000E+000	0.0000000E+000	46.4104	0.0000000E+000	0.0000000E+000	0.0000000E+000	-46.4104	0.0000000E+000	0.0000000E+000	0.0000000E+000	-43.5896	0.0000000E+000	0.0000000E+000	0.0000000E+000	43.5896	1.05048	46.4104	-1.30335e-06
999.682	8.55587	9.85993	13.0545	-49.0505	793.216	0.448359	-0.00707007	16.1467	9.21105	1	38	0.00516869	0.000395931	0	-4.49493e-05	1.90723	1.99662	45.0794	1.59112e-05	5.15743e-05	5.75487e-05	2.91219e-05	1.99766e-05	2.98098e-05	0.553188	0.3293	9.30237	1.24012e-06	1.04629e-06	8.35895e-07	5.7355e-07	8.81514e-07	4.86772e-07	0.0502043	0.0578563	0.0766017	49.0505	9211.05	7992.8	12195.4	-40.9495	0.0000000E+000	0.0000000E+000	0.0000000E+000	40.9495	0.0000000E+000	0.0000000E+000	0.0000000E+000	-40.9495	0.0000000E+000	0.0000000E+000	0.0000000E+000	-49.0505	0.0000000E+000	0.0000000E+000	0.0000000E+000	49.0505	0.867741	40.9495	-1.49434e-06
794.239	8.62828	12.4475	15.1456	-55.2714	793.96	0.448321	-0.00622289	16.0985	10.8738	1	38	0.00515324	0.000340248	0	-4.63868e-05	2.27433	1.42496	43.9829	6.36907e-05	2.93151e-05	4.38538e-05	3.81978e-05	3.80019e-05	5.10051e-05	0.779041	0.386747	11.5793	6.48513e-07	9.67263e-07	6.37827e-07	1.11462e-06	9.27789e-07	1.08551e-06	0.0376143	0.054264	0.0660259	55.2714	10873.8	7537.4	13230.7	-34.7286	0.0000000E+000	0.0000000E+000	0.0000000E+000	34.7286	0.0000000E+000	0.0000000E+000	0.0000000E+000	-34.7286	0.0000000E+000	0.0000000E+000	0.0000000E+000	-55.2714	0.0000000E+000	0.0000000E+000	0.0000000E+000	55.2714	0.693172	34.7286	-1.4375e-06
631.01	8.98455	15.4652	17.8856	-59.8455	794.701	0.448368	-0.00545763	16.309	12.1936	1	38	0.00515866	0.000288425	0	-4.75738e-05	2.51285	1.20289	45.1092	5.65182e-05	5.7163e-05	2.63824e-05	6.7266e-05	2.99627e-05	5.69596e-05	0.839159	0.315134	13.3846	8.48485e-07	7.79494e-07	5.40248e-07	1.01309e-06	8.01723e-07	1.27693e-06	0.0280859	0.0483447	0.0559109	59.8455	12193.6	7083.91	14102	-30.1545	0.0000000E+000	0.0000000E+000	0.0000000E+000	30.1545	0.0000000E+000	0.0000000E+000	0.0000000E+000	-30.1545	0.0000000E+000	0.0000000E+000	0.0000000E+000	-59.8455	0.0000000E+000	0.0000000E+000	0.0000000E+000	59.8455	0.580952	30.1545	-1.18706e-06
501.122	9.32713	19.1576	21.3075	-64.0403	795.444	0.448385	-0.00378934	16.5781	13.4015	1	38	0.00510296	0.000239491	0	-4.84466e-05	2.26432	1.9743	46.5059	4.72704e-05	5.42295e-05	2.64458e-05	5.28104e-05	4.93747e-05	3.37864e-05	0.685942	0.565125	15.5945	6.09541e-07	6.70025e-07	8.07613e-07	3.3117e-07	6.44982e-07	5.74621e-07	0.0205439	0.0421965	0.0469318	64.0403	13401.5	6524.67	14905.4	-25.9597	0.0000000E+000	0.0000000E+000	0.0000000E+000	25.9597	0.0000000E+000	0.0000000E+000	0.0000000E+000	-25.9597	0.0000000E+000	0.0000000E+000	0.0000000E+000	-64.0403	0.0000000E+000	0.0000000E+000	0.0000000E+000	64.0403	0.486862	25.9597	-8.72771e-07
398.089	9.46695	24.0894	25.8828	-68.5455	796.189	0.44835	-0.00504801	16.5964	14.3761	1	38	0.00512896	0.000198161	0	-4.93356e-05	2.12734	0.703166	43.136	2.49966e-05	1.36003e-05	6.06528e-05	3.16012e-05	2.41407e-05	7.19957e-05	1.21472	0.647218	19.5741	1.72492e-06	5.4698e-07	5.3532e-07	1.08692e-06	6.86444e-07	6.79306e-07	0.0141314	0.0359585	0.0386357	68.5455	14376.1	5649.71	15446.4	-21.4545	0.0000000E+000	0.0000000E+000	0.0000000E+000	21.4545	0.0000000E+000	0.0000000E+000	0.0000000E+000	-21.4545	0.0000000E+000	0.0000000E+000	0.0000000E+000	-68.5455	0.0000000E+000	0.0000000E+000	0.0000000E+000	68.5455	0.392993	21.4545	-8.88986e-07
316.316	10.1069	30.2371	31.8815	-71.5175	797.183	0.448382	-0.000329545	16.6402	14.9679	1	39	0.00531158	0.000166604	0	-4.96308e-05	1.49549	1.49413	43.8443	3.46891e-05	4.44215e-05	3.21853e-05	2.33116e-05	2.23586e-05	2.72767e-05	0.831253	0.450095	11.4482	7.4816e-07	5.24375e-07	2.68841e-07	6.49924e-07	4.60096e-07	4.50912e-07	0.00994354	0.0297483	0.0313662	71.5175	14967.9	5003.11	15781.9	-18.4825	0.0000000E+000	0.0000000E+000	0.0000000E+000	18.4825	0.0000000E+000	0.0000000E+000	0.0000000E+000	-18.4825	0.0000000E+000	0.0000000E+000	0.0000000E+000	-71.5175	0.0000000E+000	0.0000000E+000	0.0000000E+000	71.5175	0.334256	18.4825	-2.95239e-07
251.206	10.7026	37.3527	38.8558	-74.0115	797.926	0.448361	-0.000329173	16.9617	15.6748	1	39	0.00518476	0.000133436	0	-4.97049e-05	1.8574	1.41908	44.439	4.40134e-05	2.8471e-05	3.13092e-05	1.62063e-05	4.64484e-05	4.57516e-05	0.718601	0.486324	14.4939	3.45592e-07	4.31897e-07	2.00388e-07	4.68435e-07	3.23344e-07	4.20043e-07	0.00708891	0.0247407	0.0257362	74.0115	15674.8	4491.28	16305.5	-15.9885	0.0000000E+000	0.0000000E+000	0.0000000E+000	15.9885	0.0000000E+000	0.0000000E+000	0.0000000E+000	-15.9885	0.0000000E+000	0.0000000E+000	0.0000000E+000	-74.0115	0.0000000E+000	0.0000000E+000	0.0000000E+000	74.0115	0.286529	15.9885	-7.40518e-08
199.553	10.9679	46.866	48.1323	-76.8283	798.672	0.448364	-0.00042199	17.0178	16.1341	1	39	0.00516856	0.000107382	0	-4.96484e-05	2.59331	0.839653	43.8582	4.7906e-05	4.48265e-05	4.26627e-05	6.6194e-05	6.54388e-05	4.34667e-05	1.13505	0.68147	17.4031	4.77284e-07	3.51899e-07	2.71373e-07	5.27753e-07	3.30327e-07	6.20754e-07	0.00473424	0.0202295	0.0207761	76.8283	16134.1	3775.82	16570.1	-13.1717	0.0000000E+000	0.0000000E+000	0.0000000E+000	13.1717	0.0000000E+000	0.0000000E+000	0.0000000E+000	-13.1717	0.0000000E+000	0.0000000E+000	0.0000000E+000	-76.8283	0.0000000E+000	0.0000000E+000	0.0000000E+000	76.8283	0.234027	13.1717	5.65128e-08
158.529	12.068	57.821	59.067	-78.2108	799.419	0.448395	-0.000512758	17.363	16.6383	1	39	0.00510739	8.64679e-05	0	-4.97645e-05	2.04847	0.889995	44.9896	2.81022e-05	4.54968e-05	4.11135e-05	5.87283e-05	2.8338e-05	2.93658e-05	1.08685	0.551651	22.7443	3.53517e-07	5.55182e-07	2.50563e-07	3.75591e-07	3.53724e-07	2.92229e-07	0.00345897	0.0165728	0.0169299	78.2108	16638.3	3472.63	16996.8	-11.7892	0.0000000E+000	0.0000000E+000	0.0000000E+000	11.7892	0.0000000E+000	0.0000000E+000	0.0000000E+000	-11.7892	0.0000000E+000	0.0000000E+000	0.0000000E+000	-78.2108	0.0000000E+000	0.0000000E+000	0.0000000E+000	78.2108	0.208714	11.7892	-1.16123e-07
125.927	12.6843	71.9245	73.0344	-79.9984	800.16	0.44839	-0.000341662	17.5722	17.0421	1	39	0.00510279	6.98682e-05	0	-4.99126e-05	2.03141	1.32323	46.3025	3.37103e-05	4.52189e-05	1.87776e-05	4.27662e-05	5.69638e-05	4.22449e-05	1.23911	0.901889	28.1618	3.09905e-07	2.42779e-07	1.34457e-07	3.06207e-07	3.06108e-07	5.96672e-07	0.002378	0.0134841	0.0136922	79.9984	17042.1	3005.48	17305.1	-10.0016	0.0000000E+000	0.0000000E+000	0.0000000E+000	10.0016	0.0000000E+000	0.0000000E+000	0.0000000E+000	-10.0016	0.0000000E+000	0.0000000E+000	0.0000000E+000	-79.9984	0.0000000E+000	0.0000000E+000	0.0000000E+000	79.9984	0.176356	10.0016	-1.48074e-07
99.9682	14.7705	89.4651	90.6761	-80.6252	800.891	0.448411	-0.000283512	17.7953	17.3231	1	39	0.00505473	5.57448e-05	0	-5.00076e-05	2.25941	1.5034	45.927	3.59929e-05	3.94872e-05	4.10841e-05	1.88709e-05	6.31174e-05	5.17948e-05	1.35324	0.377436	33.7013	1.34138e-07	2.22516e-07	4.10857e-07	2.44952e-07	2.94103e-07	3.47003e-07	0.00179642	0.010881	0.0110283	80.6252	17323.1	2860.01	17557.6	-9.37484	0.0000000E+000	0.0000000E+000	0.0000000E+000	9.37484	0.0000000E+000	0.0000000E+000	0.0000000E+000	-9.37484	0.0000000E+000	0.0000000E+000	0.0000000E+000	-80.6252	0.0000000E+000	0.0000000E+000	0.0000000E+000	80.6252	0.165098	9.37485	-9.49859e-08