File: Python/Data/GoldElectrode/240313/240313-CVEIS_PostActivation-Fe2Fe3_5mM-HCl1M-0625RPM-Ag_AgCl_BLF8-Au_RDE_01_CV_C15.mpt
EC-Lab ASCII FILE
Nb header lines : 60

Cyclic Voltammetry

Run on channel : 15 (SN 19485)
User :
Electrode connection : standard
Potential control : Ewe
Ewe ctrl range : min = -1.00 V, max = 1.00 V
Ewe,I filtering : <None>
Safety Limits :
	Do not start on E overload
Channel : Floating
Acquisition started on : 03/13/2024 17:31:32.070
Loaded Setting File :  NONE
Saved on :
	File : 240313-CVEIS_PostActivation-Fe2Fe3_5mM-HCl1M-625RPM-Ag_AgCl_BLF8-Au_RDE_01_CV_C15.mpr
	Directory : C:\Data\mathias\GoldElectrode\
	Host : 192.168.0.1
Device : VMP-300 (SN 0826)
Address : USB
EC-Lab for windows v11.52 (software)
Internet server v11.52 (firmware)
Command interpretor v11.52 (firmware)
Electrode material :
Initial state :
Electrolyte :
Comments :
Cable : special
Electrode surface area : 0.001 cm²
Characteristic mass : 0.001 g
Equivalent Weight : 0.000 g/eq.
Density : 0.000 g/cm3
Volume (V) : 0.001 cm³
Record EIS quality indicators
Cycle Definition : Charge/Discharge alternance
Ei (V)              0.000
vs.                 Eoc
dE/dt               20.000
dE/dt unit          mV/s
E1 (V)              0.700
vs.                 Ref
Step percent        50
N                   10
E range min (V)     -1.000
E range max (V)     1.000
I Range             Auto
I Range min         Unset
I Range max         Unset
I Range init        Unset
Bandwidth           8
E2 (V)              0.000
vs.                 Ref
nc cycles           1
Reverse Scan        1
Ef (V)              0.000
vs.                 Eoc

mode	ox/red	error	control changes	counter inc.	time/s	control/V	Ewe/V	<I>/mA	cycle number	(Q-Qo)/C	I Range	step time/s	P/W
2	1	0	0	0	0.000000000000000E+000	0.447935	0.448256	0.00816999	1	0.0000000E+000	42	0.000000000000000E+000	3.66225e-06
2	1	0	1	0	0.2687	0.453307	0.453254	0.0310707	1	5.41381e-06	41	0.2549	1.40829e-05
2	1	0	1	0	0.5186	0.458305	0.45808	0.0495436	1	1.5522e-05	41	0.5048	2.26949e-05
2	1	0	1	0	0.7684	0.463302	0.462934	0.0675942	1	3.01695e-05	41	0.7546	3.12916e-05
2	1	0	1	0	1.0183	0.4683	0.467889	0.0853159	1	4.92866e-05	41	1.0045	3.99183e-05
2	1	0	1	0	1.2682	0.473298	0.473009	0.102675	1	7.27936e-05	41	1.2544	4.8566e-05
2	1	0	1	0	1.5481	0.478895	0.478481	0.120721	1	0.000104174	40	1.5343	5.77625e-05
2	1	0	1	0	1.798	0.483893	0.483522	0.137135	1	0.000136625	40	1.7842	6.63078e-05
2	1	0	1	0	2.0478	0.48889	0.488698	0.152565	1	0.000173049	40	2.034	7.45583e-05
2	1	0	1	0	2.2977	0.493888	0.493598	0.167409	1	0.000213285	40	2.2839	8.26325e-05
2	1	0	1	0	2.5476	0.498885	0.498423	0.18161	1	0.000257148	40	2.5338	9.05185e-05
2	1	0	1	0	2.7975	0.503883	0.503569	0.19462	1	0.000304396	40	2.7837	9.80046e-05
2	1	0	1	0	3.0474	0.508881	0.508479	0.207078	1	0.000354829	40	3.0336	0.000105295
2	1	0	1	0	3.2972	0.513878	0.513788	0.218696	1	0.000408251	40	3.2834	0.000112363
2	1	0	1	0	3.5471	0.518876	0.518514	0.229437	1	0.000464484	40	3.5333	0.000118966
2	1	0	1	0	3.797	0.523874	0.523367	0.23948	1	0.000523306	40	3.7832	0.000125336
2	1	0	1	0	4.0469	0.528871	0.52865	0.248988	1	0.000584554	40	4.0331	0.000131627
2	1	0	1	0	4.2968	0.533869	0.533447	0.257492	1	0.00064806	40	4.283	0.000137358
2	1	0	1	0	4.5466	0.538866	0.538357	0.265431	1	0.000713575	40	4.5328	0.000142897
2	1	0	1	0	4.7965	0.543864	0.54352	0.273281	1	0.000781064	40	4.7827	0.000148534
2	1	0	1	0	5.0464	0.548862	0.548377	0.280565	1	0.000850454	40	5.0326	0.000153855
2	1	0	1	0	5.2963	0.553859	0.553594	0.286816	1	0.000921542	40	5.2825	0.00015878
2	1	0	1	0	5.5462	0.558857	0.558364	0.293387	1	0.000994204	40	5.5324	0.000163817
2	1	0	1	0	5.796	0.563853	0.563484	0.299039	1	0.00106837	40	5.7822	0.000168504
2	1	0	1	0	6.0459	0.568852	0.568671	0.303847	1	0.00114385	40	6.0321	0.000172789
2	1	0	1	0	6.2958	0.57385	0.573543	0.309395	1	0.0012206	40	6.282	0.000177451
2	1	0	1	0	6.5457	0.578847	0.5784	0.314007	1	0.00129867	40	6.5319	0.000181622
2	1	0	1	0	6.7956	0.583845	0.583497	0.318779	1	0.00137788	40	6.7818	0.000186006
2	1	0	1	0	7.0455	0.588843	0.58851	0.323387	1	0.00145828	40	7.0317	0.000190317
2	1	0	1	0	7.2953	0.59384	0.593434	0.327327	1	0.00153966	40	7.2815	0.000194247
2	1	0	1	0	7.5452	0.598838	0.59855	0.331596	1	0.00162211	40	7.5314	0.000198477
2	1	0	1	0	7.7951	0.603836	0.603594	0.335459	1	0.00170558	40	7.7813	0.000202481
2	1	0	1	0	8.045	0.608833	0.608621	0.338601	1	0.00178992	40	8.0312	0.00020608
2	1	0	1	0	8.2949	0.613831	0.613656	0.341987	1	0.00187505	40	8.2811	0.000209862
2	1	0	1	0	8.5448	0.61883	0.618218	0.344952	1	0.00196094	40	8.531	0.000213256
2	1	0	1	0	8.7946	0.623826	0.623545	0.347991	1	0.00204757	40	8.7808	0.000216988
2	1	0	1	0	9.0445	0.628824	0.628443	0.350881	1	0.00213499	40	9.0307	0.000220509
2	1	0	1	0	9.2944	0.633821	0.63372	0.354172	1	0.00222317	40	9.2806	0.000224446
2	1	0	1	0	9.5443	0.638819	0.638453	0.357023	1	0.00231211	40	9.5305	0.000227942
2	1	0	1	0	9.7942	0.643817	0.64343	0.360156	1	0.00240176	40	9.7804	0.000231735
2	1	0	1	0	10.044	0.648814	0.648594	0.363054	1	0.00249222	40	10.0302	0.000235474
2	1	0	1	0	10.2939	0.653812	0.653534	0.365243	1	0.00258328	40	10.2801	0.000238699
2	1	0	1	0	10.5438	0.658809	0.658413	0.367578	1	0.0026749	40	10.53	0.000242018
2	1	0	1	0	10.7937	0.663807	0.663372	0.37007	1	0.00276709	40	10.7799	0.000245494
2	1	0	1	0	11.0436	0.668805	0.668491	0.372281	1	0.00285991	40	11.0298	0.000248866
2	1	0	1	0	11.2934	0.673802	0.673569	0.375297	1	0.00295335	40	11.2796	0.000252789
2	1	0	1	0	11.5433	0.6788	0.678517	0.377772	1	0.00304751	40	11.5295	0.000256325
2	1	0	1	0	11.7932	0.683798	0.68346	0.38033	1	0.00314229	40	11.7794	0.00025994
2	1	0	1	0	12.0431	0.688795	0.688481	0.383087	1	0.00323772	40	12.0293	0.000263748
2	1	0	1	0	12.293	0.693793	0.693192	0.385903	1	0.00333388	40	12.2792	0.000267505
2	1	0	1	0	12.5428	0.69879	0.698555	0.388574	1	0.00343063	40	12.529	0.000271441
2	1	0	1	0	12.7683	0.696741	0.696258	0.385747	1	0.003518	40	12.7545	0.00026858
2	1	0	1	0	13.0182	0.691744	0.691403	0.383566	1	0.00361404	40	13.0044	0.000265199
2	1	0	1	0	13.2681	0.686746	0.686333	0.381893	1	0.00370964	40	13.2543	0.000262105
2	1	0	1	0	13.518	0.681747	0.681425	0.380263	1	0.00380484	40	13.5042	0.000259121
2	1	0	1	0	13.7678	0.676751	0.676418	0.378713	1	0.00389961	40	13.754	0.000256168
2	1	0	1	0	14.0177	0.671753	0.671402	0.377592	1	0.00399408	40	14.0039	0.000253516
2	1	0	1	0	14.2676	0.666756	0.66633	0.376157	1	0.0040882	40	14.2538	0.000250645
2	1	0	1	0	14.5175	0.661758	0.661483	0.374612	1	0.00418198	40	14.5037	0.000247799
2	1	0	1	0	14.7674	0.65676	0.656418	0.372975	1	0.00427536	40	14.7536	0.000244827
2	1	0	1	0	15.0172	0.651763	0.651525	0.371501	1	0.00436832	40	15.0034	0.000242042
2	1	0	1	0	15.2671	0.646765	0.646498	0.370145	1	0.00446092	40	15.2533	0.000239298
2	1	0	1	0	15.517	0.641768	0.64144	0.369303	1	0.00455326	40	15.5032	0.000236886
2	1	0	1	0	15.7669	0.63677	0.636516	0.367535	1	0.00464527	40	15.7531	0.000233942
2	1	0	1	0	16.0168	0.631772	0.631553	0.365948	1	0.00473682	40	16.003	0.000231116
2	1	0	1	0	16.2666	0.626775	0.626357	0.36438	1	0.00482798	40	16.2528	0.000228232
2	1	0	1	0	16.5165	0.621777	0.621427	0.362253	1	0.00491872	40	16.5027	0.000225114
2	1	0	1	0	16.7664	0.616779	0.616331	0.360218	1	0.00500892	40	16.7526	0.000222014
2	1	0	1	0	17.0163	0.611782	0.611429	0.358587	1	0.00509867	40	17.0025	0.00021925
2	1	0	1	0	17.2662	0.606784	0.606504	0.35625	1	0.00518789	40	17.2524	0.000216067
2	1	0	1	0	17.516	0.601787	0.6014	0.353586	1	0.00527644	40	17.5022	0.000212647
2	1	0	1	0	17.7659	0.596789	0.596235	0.351124	1	0.00536439	40	17.7521	0.000209352
2	1	0	1	0	18.0158	0.591791	0.591307	0.348374	1	0.00545168	40	18.002	0.000205996
2	1	0	1	0	18.2657	0.586794	0.586488	0.345289	1	0.00553823	40	18.2519	0.000202508
2	1	0	1	0	18.5156	0.581796	0.581531	0.342108	1	0.005624	40	18.5018	0.000198946
2	1	0	1	0	18.7654	0.5768	0.576321	0.338881	1	0.00570895	40	18.7516	0.000195304
2	1	0	1	0	19.0153	0.571801	0.571513	0.334997	1	0.005793	40	19.0015	0.000191455
2	1	0	1	0	19.2652	0.566803	0.566501	0.330207	1	0.00587596	40	19.2514	0.000187063
2	1	0	1	0	19.5151	0.561805	0.561418	0.325049	1	0.00595768	40	19.5013	0.000182489
2	1	0	1	0	19.765	0.556808	0.556391	0.320143	1	0.00603813	40	19.7512	0.000178125
2	1	0	1	0	20.0149	0.55181	0.551672	0.31403	1	0.00611721	40	20.0011	0.000173242
2	1	0	1	0	20.2647	0.546813	0.546603	0.307378	1	0.00619467	40	20.2509	0.000168014
2	1	0	1	0	20.5146	0.541815	0.541426	0.300429	1	0.00627043	40	20.5008	0.00016266
2	1	0	1	0	20.7645	0.536817	0.53646	0.293085	1	0.0063444	40	20.7507	0.000157228
2	1	0	1	0	21.0144	0.53182	0.531583	0.284625	1	0.00641642	40	21.0006	0.000151302
2	1	0	1	0	21.2643	0.526822	0.526507	0.274891	1	0.00648612	40	21.2505	0.000144732
2	1	0	1	0	21.5142	0.521823	0.521608	0.264569	1	0.00655332	40	21.5004	0.000138001
2	1	0	1	0	21.764	0.516827	0.516626	0.253158	1	0.00661778	40	21.7502	0.000130788
2	1	0	1	0	22.0139	0.511829	0.511329	0.240403	1	0.00667926	40	22.0001	0.000122925
2	1	0	1	0	22.2638	0.506832	0.506617	0.226457	1	0.00673739	40	22.25	0.000114727
2	1	0	1	0	22.5137	0.501834	0.501581	0.211154	1	0.00679187	40	22.4999	0.000105911
2	1	0	1	0	22.7636	0.496836	0.496551	0.194915	1	0.00684242	40	22.7498	9.67852e-05
2	1	0	1	0	23.0134	0.491839	0.491354	0.177509	1	0.00688874	40	22.9996	8.72197e-05
2	1	0	1	0	23.2633	0.486841	0.486669	0.158847	1	0.00693056	40	23.2495	7.73059e-05
2	1	0	1	0	23.5132	0.481844	0.481439	0.13921	1	0.00696759	40	23.4994	6.70211e-05
2	1	0	1	0	23.7631	0.476846	0.476472	0.118688	1	0.00699958	40	23.7493	5.65518e-05
2	1	0	1	0	24.013	0.471848	0.471481	0.0975835	1	0.0070264	40	23.9992	4.60087e-05
2	1	0	1	0	24.2628	0.466851	0.466558	0.0760474	1	0.00704786	40	24.249	3.54806e-05
2	1	0	1	0	24.5127	0.461853	0.461704	0.0540977	1	0.00706391	40	24.4989	2.49771e-05
2	1	0	1	0	24.7926	0.456256	0.455828	0.0289267	1	0.00707546	41	24.7788	1.31856e-05
2	1	0	1	0	25.0425	0.451258	0.451096	0.00750332	1	0.00707998	41	25.0287	3.38472e-06
2	0	0	1	0	25.2924	0.44626	0.445978	-0.0133223	1	0.00707922	41	0.125	-5.94146e-06
2	0	0	1	0	25.5422	0.441263	0.440861	-0.0333505	1	0.00707336	41	0.3748	-1.47029e-05
2	0	0	1	0	25.7921	0.436265	0.435825	-0.0525387	1	0.00706258	41	0.6247	-2.28977e-05
2	0	0	1	0	26.042	0.431268	0.431384	-0.0705793	1	0.00704716	41	0.8746	-3.04468e-05
2	0	0	1	0	26.2919	0.42627	0.425769	-0.0874129	1	0.00702738	41	1.1245	-3.72177e-05
2	0	0	1	0	26.5418	0.421272	0.420766	-0.102992	1	0.00700355	41	1.3744	-4.33356e-05
2	0	0	1	0	26.8216	0.415675	0.415385	-0.117883	1	0.00697248	40	1.6542	-4.8967e-05
2	0	0	1	0	27.0715	0.410677	0.410395	-0.130979	1	0.00694111	40	1.9041	-5.37531e-05
2	0	0	1	0	27.3214	0.40568	0.405532	-0.142612	1	0.00690667	40	2.154	-5.78338e-05
2	0	0	1	0	27.5713	0.400682	0.400583	-0.153325	1	0.00686944	40	2.4039	-6.14195e-05
2	0	0	1	0	27.8212	0.395684	0.395266	-0.162653	1	0.00682969	40	2.6538	-6.4291e-05
2	0	0	1	0	28.071	0.390687	0.390448	-0.17125	1	0.00678772	40	2.9036	-6.68641e-05
2	0	0	1	0	28.3209	0.385689	0.385447	-0.17885	1	0.00674369	40	3.1535	-6.89373e-05
2	0	0	1	0	28.5708	0.380692	0.38057	-0.185789	1	0.00669784	40	3.4034	-7.07057e-05
2	0	0	1	0	28.8207	0.375694	0.375283	-0.192051	1	0.00665035	40	3.6533	-7.20735e-05
2	0	0	1	0	29.0706	0.370696	0.370231	-0.197181	1	0.00660138	40	3.9032	-7.30027e-05
2	0	0	1	0	29.3204	0.365699	0.365466	-0.202425	1	0.00655114	40	4.153	-7.39795e-05
2	0	0	1	0	29.5703	0.360701	0.360182	-0.207304	1	0.00649965	40	4.4029	-7.46674e-05
2	0	0	1	0	29.8202	0.355703	0.355338	-0.211191	1	0.00644707	40	4.6528	-7.50441e-05
2	0	0	1	0	30.0701	0.350706	0.350202	-0.215052	1	0.0063935	40	4.9027	-7.53117e-05
2	0	0	1	0	30.32	0.345708	0.345429	-0.218166	1	0.00633907	40	5.1526	-7.53607e-05
2	0	0	1	0	30.5698	0.340711	0.340264	-0.221131	1	0.0062839	40	5.4024	-7.5243e-05
2	0	0	1	0	30.8197	0.335713	0.335427	-0.224076	1	0.00622799	40	5.6523	-7.5161e-05
2	0	0	1	0	31.0696	0.330715	0.330432	-0.226669	1	0.00617139	40	5.9022	-7.48988e-05
2	0	0	1	0	31.3195	0.325718	0.325257	-0.228767	1	0.00611419	40	6.1521	-7.44079e-05
2	0	0	1	0	31.5694	0.32072	0.320485	-0.231041	1	0.00605642	40	6.402	-7.40453e-05
2	0	0	1	0	31.8192	0.315724	0.315374	-0.232651	1	0.00599822	40	6.6518	-7.33721e-05
2	0	0	1	0	32.0691	0.310725	0.310322	-0.234496	1	0.00593958	40	6.9017	-7.27692e-05
2	0	0	1	0	32.319	0.305727	0.30538	-0.236098	1	0.00588051	40	7.1516	-7.20997e-05
2	0	0	1	0	32.5689	0.30073	0.300467	-0.237162	1	0.00582112	40	7.4015	-7.12592e-05
2	0	0	1	0	32.8188	0.295732	0.295648	-0.23884	1	0.00576138	40	7.6514	-7.06126e-05
2	0	0	1	0	33.0687	0.290734	0.290354	-0.240226	1	0.00570121	40	7.9013	-6.97506e-05
2	0	0	1	0	33.3185	0.285737	0.285507	-0.241322	1	0.00564077	40	8.1511	-6.88991e-05
2	0	0	1	0	33.5684	0.280739	0.280524	-0.24228	1	0.00558007	40	8.401	-6.79655e-05
2	0	0	1	0	33.8183	0.275741	0.275381	-0.24345	1	0.00551908	40	8.6509	-6.70417e-05
2	0	0	1	0	34.0682	0.270744	0.270503	-0.244148	1	0.00545787	40	8.9008	-6.60429e-05
2	0	0	1	0	34.3181	0.265746	0.265463	-0.244823	1	0.00539645	40	9.1507	-6.49913e-05
2	0	0	1	0	34.568	0.260747	0.260445	-0.246049	1	0.00533485	40	9.4006	-6.40823e-05
2	0	0	1	0	34.8178	0.255751	0.25546	-0.246983	1	0.005273	40	9.6504	-6.30945e-05
2	0	0	1	0	35.0677	0.250753	0.250478	-0.247612	1	0.00521091	40	9.9003	-6.20212e-05
2	0	0	1	0	35.3176	0.245756	0.24544	-0.248723	1	0.00514859	40	10.1502	-6.10465e-05
2	0	0	1	0	35.5675	0.240758	0.240384	-0.249657	1	0.00508599	40	10.4001	-6.00136e-05
2	0	0	1	0	35.8174	0.23576	0.235354	-0.250463	1	0.00502318	40	10.65	-5.89475e-05
2	0	0	1	0	36.0672	0.230763	0.230483	-0.251187	1	0.00496019	40	10.8998	-5.78944e-05
2	0	0	1	0	36.3171	0.225765	0.225615	-0.251713	1	0.00489703	40	11.1497	-5.67902e-05
2	0	0	1	0	36.567	0.220768	0.220439	-0.252138	1	0.00483372	40	11.3996	-5.55811e-05
2	0	0	1	0	36.8169	0.21577	0.215512	-0.252353	1	0.00477031	40	11.6495	-5.43851e-05
2	0	0	1	0	37.0668	0.210772	0.210576	-0.253364	1	0.0047068	40	11.8994	-5.33523e-05
2	0	0	1	0	37.3166	0.205775	0.205417	-0.253915	1	0.0046431	40	12.1492	-5.21584e-05
2	0	0	1	0	37.5665	0.200777	0.200684	-0.254315	1	0.00457928	40	12.3991	-5.1037e-05
2	0	0	1	0	37.8164	0.195779	0.195459	-0.254718	1	0.00451533	40	12.649	-4.9787e-05
2	0	0	1	0	38.0663	0.190782	0.190668	-0.255096	1	0.00445124	40	12.8989	-4.86387e-05
2	0	0	1	0	38.3162	0.185784	0.185513	-0.255642	1	0.00438704	40	13.1488	-4.74248e-05
2	0	0	1	0	38.566	0.180787	0.180643	-0.256279	1	0.00432273	40	13.3986	-4.6295e-05
2	0	0	1	0	38.8159	0.175789	0.175526	-0.256214	1	0.00425832	40	13.6485	-4.49722e-05
2	0	0	1	0	39.0658	0.170791	0.170392	-0.256237	1	0.00419391	40	13.8984	-4.36607e-05
2	0	0	1	0	39.3157	0.165794	0.165548	-0.256875	1	0.00412942	40	14.1483	-4.25253e-05
2	0	0	1	0	39.5656	0.160796	0.160509	-0.257276	1	0.00406481	40	14.3982	-4.1295e-05
2	0	0	1	0	39.8154	0.1558	0.155518	-0.257369	1	0.00400014	40	14.648	-4.00255e-05
2	0	0	1	0	40.0653	0.150801	0.150424	-0.257645	1	0.0039354	40	14.8979	-3.87559e-05
2	0	0	1	0	40.3152	0.145803	0.145642	-0.258179	1	0.00387054	40	15.1478	-3.76016e-05
2	0	0	1	0	40.5651	0.140806	0.140488	-0.258363	1	0.00380559	40	15.3977	-3.62968e-05
2	0	0	1	0	40.815	0.135808	0.135649	-0.258842	1	0.00374056	40	15.6476	-3.51115e-05
2	0	0	1	0	41.0649	0.13081	0.130782	-0.25897	1	0.0036755	40	15.8975	-3.38687e-05
2	0	0	1	0	41.3147	0.125813	0.125502	-0.259311	1	0.00361043	40	16.1473	-3.25442e-05
2	0	0	1	0	41.5646	0.120815	0.120517	-0.259108	1	0.00354523	40	16.3972	-3.12269e-05
2	0	0	1	0	41.8145	0.115817	0.11546	-0.259177	1	0.00348009	40	16.6471	-2.99245e-05
2	0	0	1	0	42.0644	0.11082	0.110508	-0.259553	1	0.00341487	40	16.897	-2.86827e-05
2	0	0	1	0	42.3143	0.105822	0.105486	-0.260109	1	0.00334958	40	17.1469	-2.74378e-05
2	0	0	1	0	42.5642	0.100823	0.100482	-0.260054	1	0.00328418	40	17.3968	-2.61309e-05
2	0	0	1	0	42.814	0.095827	0.0955137	-0.26023	1	0.0032188	40	17.6466	-2.48556e-05
2	0	0	1	0	43.0639	0.0908294	0.0905973	-0.260306	1	0.00315339	40	17.8965	-2.35831e-05
2	0	0	1	0	43.3138	0.0858317	0.0856558	-0.261236	1	0.00308781	40	18.1464	-2.23763e-05
2	0	0	1	0	43.5637	0.0808341	0.0806664	-0.261136	1	0.00302214	40	18.3963	-2.10649e-05
2	0	0	1	0	43.8136	0.0758365	0.075492	-0.261517	1	0.00295649	40	18.6462	-1.97425e-05
2	0	0	1	0	44.0634	0.0708389	0.0705439	-0.260904	1	0.00289085	40	18.896	-1.84052e-05
2	0	0	1	0	44.3133	0.0658412	0.0656801	-0.260934	1	0.00282527	40	19.1459	-1.71381e-05
2	0	0	1	0	44.5632	0.0608436	0.060598	-0.261108	1	0.00275968	40	19.3958	-1.58226e-05
2	0	0	1	0	44.8131	0.055846	0.0555362	-0.261599	1	0.00269401	40	19.6457	-1.45282e-05
2	0	0	1	0	45.063	0.0508484	0.0507536	-0.261996	1	0.00262823	40	19.8956	-1.32972e-05
2	0	0	1	0	45.3128	0.0458507	0.0453754	-0.261734	1	0.00256245	40	20.1454	-1.18763e-05
2	0	0	1	0	45.5627	0.0408531	0.0406812	-0.261859	1	0.00249669	40	20.3953	-1.06527e-05
2	0	0	1	0	45.8126	0.0358555	0.0355795	-0.261867	1	0.00243093	40	20.6452	-9.31709e-06
2	0	0	1	0	46.0625	0.0308579	0.0304742	-0.261967	1	0.00236514	40	20.8951	-7.98325e-06
2	0	0	1	0	46.3124	0.0258602	0.0256822	-0.262373	1	0.00229929	40	21.145	-6.73833e-06
2	0	0	1	0	46.5622	0.0208635	0.020626	-0.262009	1	0.00223347	40	21.3948	-5.40418e-06
2	0	0	1	0	46.8121	0.015865	0.0158091	-0.26198	1	0.00216763	40	21.6447	-4.14168e-06
2	0	0	1	0	47.062	0.0108674	0.0107914	-0.262301	1	0.00210182	40	21.8946	-2.83061e-06
2	0	0	1	0	47.3119	0.00586973	0.00558386	-0.26231	1	0.00203598	40	22.1445	-1.46471e-06
2	0	0	1	0	47.5618	0.000872107	0.000615063	-0.262441	1	0.0019701	40	22.3944	-1.61418e-07
2	0	0	1	1	47.7697	0.00327097	0.00295228	-0.263546	1	0.00191546	40	22.6023	-7.78059e-07
2	0	0	1	1	48.0196	0.00826993	0.00786715	-0.263093	1	0.00184996	40	22.8522	-2.0698e-06
2	0	0	1	1	48.2694	0.0132662	0.0131055	-0.26384	1	0.00178449	40	23.102	-3.45775e-06
2	0	0	1	1	48.5193	0.0182638	0.0179723	-0.263629	1	0.00171888	40	23.3519	-4.73802e-06
2	0	0	1	1	48.7692	0.0232615	0.0226963	-0.263602	1	0.00165334	40	23.6018	-5.9828e-06
2	0	0	1	1	49.0191	0.0282591	0.0278667	-0.262581	1	0.0015879	40	23.8517	-7.31725e-06
2	0	0	1	1	49.269	0.0332567	0.0328396	-0.262128	1	0.00152266	40	24.1016	-8.60815e-06
2	0	0	1	1	49.5188	0.0382543	0.0379633	-0.26196	1	0.00145754	40	24.3514	-9.94489e-06
2	0	0	1	1	49.7687	0.043252	0.0430814	-0.262041	1	0.00139242	40	24.6013	-1.12891e-05
2	0	0	1	1	50.0186	0.0482496	0.0479139	-0.261947	1	0.00132731	40	24.8512	-1.25509e-05
2	0	0	1	1	50.2685	0.0532472	0.0527644	-0.261774	1	0.00126221	40	25.1011	-1.38123e-05
2	0	0	1	1	50.5184	0.0582448	0.0577889	-0.262025	1	0.00119709	40	25.351	-1.51421e-05
2	0	0	1	1	50.7682	0.0632425	0.0629966	-0.262106	1	0.00113195	40	25.6008	-1.65118e-05
2	0	0	1	1	51.0181	0.0682401	0.0677803	-0.261367	1	0.0010669	40	25.8507	-1.77155e-05
2	0	0	1	1	51.268	0.0732377	0.0730604	-0.261346	1	0.00100193	40	26.1006	-1.90941e-05
2	0	0	1	1	51.5179	0.0782353	0.0776943	-0.260832	1	0.000937002	40	26.3505	-2.02651e-05
2	0	0	1	1	51.7678	0.083233	0.0828694	-0.260708	1	0.00087213	40	26.6004	-2.16047e-05
2	0	0	1	1	52.0176	0.0882297	0.0879436	-0.260314	1	0.000807363	40	26.8502	-2.28929e-05
2	0	0	1	1	52.2675	0.0932282	0.0929966	-0.259804	1	0.000742696	40	27.1001	-2.41609e-05
2	0	0	1	1	52.5174	0.0982258	0.0980038	-0.259619	1	0.000678164	40	27.35	-2.54436e-05
2	0	0	1	1	52.7673	0.103223	0.103042	-0.258892	1	0.000613741	40	27.5999	-2.66766e-05
2	0	0	1	1	53.0172	0.108221	0.10799	-0.258652	1	0.000549427	40	27.8498	-2.79317e-05
2	0	0	1	1	53.2671	0.113219	0.112916	-0.258574	1	0.000485168	40	28.0997	-2.91973e-05
2	0	0	1	1	53.5169	0.118216	0.117823	-0.25779	1	0.000420999	40	28.3495	-3.03737e-05
2	0	0	1	1	53.7668	0.123214	0.122972	-0.257663	1	0.000356927	40	28.5994	-3.16853e-05
2	0	0	1	1	54.0167	0.128212	0.127736	-0.256941	1	0.000292984	40	28.8493	-3.28205e-05
2	0	0	1	1	54.2666	0.133209	0.133058	-0.256465	1	0.000229186	40	29.0992	-3.41248e-05
2	0	0	1	1	54.5165	0.138207	0.13797	-0.255822	1	0.000165533	40	29.3491	-3.52959e-05
2	0	0	1	1	54.7663	0.143204	0.142878	-0.255945	1	0.000101925	40	29.5989	-3.65688e-05
2	0	0	1	1	55.0162	0.148202	0.14805	-0.255051	1	3.8442e-05	40	29.8488	-3.77602e-05
2	0	0	1	1	55.2661	0.1532	0.152692	-0.254269	1	-2.488e-05	40	30.0987	-3.88248e-05
2	0	0	1	1	55.516	0.158197	0.157806	-0.253863	1	-8.80592e-05	40	30.3486	-4.00612e-05
2	0	0	1	1	55.7659	0.163195	0.162947	-0.253048	1	-0.00015103	40	30.5985	-4.12333e-05
2	0	0	1	1	56.0158	0.168193	0.16798	-0.252517	1	-0.000213857	40	30.8484	-4.24178e-05
2	0	0	1	1	56.2656	0.17319	0.172907	-0.251738	1	-0.000276492	40	31.0982	-4.35273e-05
2	0	0	1	1	56.5155	0.178188	0.1779	-0.251159	1	-0.000339006	40	31.3481	-4.46813e-05
2	0	0	1	1	56.7654	0.183185	0.182909	-0.250163	1	-0.000401333	40	31.598	-4.57571e-05
2	0	0	1	1	57.0153	0.188183	0.187641	-0.248921	1	-0.000463363	40	31.8479	-4.67077e-05
2	0	0	1	1	57.2652	0.193181	0.1929	-0.247724	1	-0.000525083	40	32.0978	-4.7786e-05
2	0	0	1	1	57.515	0.198178	0.197977	-0.246596	1	-0.000586475	40	32.3476	-4.88203e-05
2	0	0	1	1	57.7649	0.203176	0.202906	-0.245165	1	-0.0006476	40	32.5975	-4.97455e-05
2	0	0	1	1	58.0148	0.208174	0.207833	-0.244024	1	-0.000708432	40	32.8474	-5.07163e-05
2	0	0	1	1	58.2647	0.213171	0.212912	-0.24245	1	-0.000768884	40	33.0973	-5.16204e-05
2	0	0	1	1	58.5146	0.218169	0.217851	-0.241005	1	-0.000828929	40	33.3472	-5.25033e-05
2	0	0	1	1	58.7644	0.223166	0.222767	-0.240181	1	-0.000888672	40	33.597	-5.35045e-05
2	0	0	1	1	59.0143	0.228164	0.227895	-0.238544	1	-0.000948153	40	33.8469	-5.43628e-05
2	0	0	1	1	59.2642	0.233162	0.232977	-0.236778	1	-0.0010072	40	34.0968	-5.51639e-05
2	0	0	1	1	59.5141	0.238159	0.237871	-0.235081	1	-0.00106581	40	34.3467	-5.59188e-05
2	0	0	1	1	59.764	0.243157	0.242863	-0.233079	1	-0.00112399	40	34.5966	-5.66061e-05
2	0	0	1	1	60.0138	0.248153	0.247825	-0.2317	1	-0.00118171	40	34.8464	-5.74211e-05
2	0	0	1	1	60.2637	0.253152	0.252773	-0.22976	1	-0.00123906	40	35.0963	-5.8077e-05
2	0	0	1	1	60.5136	0.25815	0.257809	-0.227869	1	-0.00129593	40	35.3462	-5.87466e-05
2	0	0	1	1	60.7635	0.263147	0.262777	-0.225837	1	-0.00135228	40	35.5961	-5.93449e-05
2	0	0	1	1	61.0134	0.268145	0.267888	-0.223948	1	-0.00140813	40	35.846	-5.99931e-05
2	0	0	1	1	61.2633	0.273143	0.272926	-0.222022	1	-0.00146352	40	36.0959	-6.05955e-05
2	0	0	1	1	61.5131	0.27814	0.277857	-0.220225	1	-0.00151841	40	36.3457	-6.11909e-05
2	0	0	1	1	61.763	0.283138	0.282803	-0.218696	1	-0.00157294	40	36.5956	-6.18478e-05
2	0	0	1	1	62.0129	0.288136	0.287678	-0.21709	1	-0.0016271	40	36.8455	-6.2452e-05
2	0	0	1	1	62.2628	0.293133	0.292765	-0.21631	1	-0.00168097	40	37.0954	-6.33279e-05
2	0	0	1	1	62.5127	0.298131	0.297792	-0.215185	1	-0.00173459	40	37.3453	-6.40802e-05
2	0	0	1	1	62.7626	0.30313	0.302677	-0.214225	1	-0.00178795	40	37.5952	-6.4841e-05
2	0	0	1	1	63.0124	0.308126	0.307952	-0.213235	1	-0.00184107	40	37.845	-6.56663e-05
2	0	0	1	1	63.2623	0.313124	0.312694	-0.212064	1	-0.00189394	40	38.0949	-6.6311e-05
2	0	0	1	1	63.5122	0.318121	0.317952	-0.210725	1	-0.00194649	40	38.3448	-6.70004e-05
2	0	0	1	1	63.7621	0.323119	0.322896	-0.209666	1	-0.00199877	40	38.5947	-6.77005e-05
2	0	0	1	1	64.012	0.328117	0.32768	-0.208208	1	-0.00205075	40	38.8446	-6.82254e-05
2	0	0	1	1	64.2618	0.333114	0.332663	-0.206481	1	-0.00210234	40	39.0944	-6.86887e-05
2	0	0	1	1	64.5117	0.338112	0.337917	-0.204472	1	-0.00215342	40	39.3443	-6.90946e-05
2	0	0	1	1	64.7616	0.343109	0.3427	-0.202522	1	-0.00220403	40	39.5942	-6.94041e-05
2	0	0	1	1	65.0115	0.348107	0.347624	-0.19954	1	-0.00225401	40	39.8441	-6.9365e-05
2	0	0	1	1	65.2614	0.353105	0.352887	-0.196566	1	-0.00230324	40	40.094	-6.93655e-05
2	0	0	1	1	65.5112	0.358102	0.357916	-0.193162	1	-0.00235164	40	40.3438	-6.91358e-05
2	0	0	1	1	65.7611	0.3631	0.362839	-0.189097	1	-0.00239914	40	40.5937	-6.86118e-05
2	0	0	1	1	66.011	0.368098	0.368043	-0.18418	1	-0.00244554	40	40.8436	-6.77862e-05
2	0	0	1	1	66.2609	0.373095	0.372856	-0.178692	1	-0.00249061	40	41.0935	-6.66263e-05
2	0	0	1	1	66.5108	0.378093	0.377843	-0.172274	1	-0.00253421	40	41.3434	-6.50926e-05
2	0	0	1	1	66.7606	0.38309	0.38279	-0.16513	1	-0.00257612	40	41.5932	-6.32101e-05
2	0	0	1	1	67.0105	0.388088	0.387753	-0.157176	1	-0.00261615	40	41.8431	-6.09453e-05
2	0	0	1	1	67.2604	0.393086	0.392696	-0.148151	1	-0.00265404	40	42.093	-5.81783e-05
2	0	0	1	1	67.5103	0.398083	0.397769	-0.138394	1	-0.00268958	40	42.3429	-5.50491e-05
2	0	0	1	1	67.7602	0.403081	0.402739	-0.127546	1	-0.00272257	40	42.5928	-5.13678e-05
2	0	0	1	1	68.01	0.408077	0.407782	-0.115759	1	-0.00275271	40	42.8426	-4.72045e-05
2	0	0	1	1	68.2599	0.413076	0.412894	-0.102684	1	-0.00277975	40	43.0925	-4.23976e-05
2	0	0	1	1	68.5098	0.418074	0.417875	-0.0887183	1	-0.00280341	40	43.3424	-3.70732e-05
2	0	0	1	1	68.7597	0.423071	0.422661	-0.0737355	1	-0.00282347	40	43.5923	-3.11651e-05
2	0	0	1	1	69.0096	0.428069	0.427851	-0.0576388	1	-0.00283963	40	43.8422	-2.46608e-05
2	0	0	1	1	69.2595	0.433067	0.432744	-0.0406266	1	-0.00285167	40	44.0921	-1.75809e-05
2	0	0	1	1	69.5393	0.438664	0.438291	-0.0195018	1	-0.00286	41	44.3719	-8.54748e-06
2	0	0	1	1	69.7892	0.443662	0.443338	-0.000769605	1	-0.00286252	41	44.6218	-3.41195e-07
2	1	0	1	1	70.0066	0.44801	0.447777	0.0161573	2	-0.00286083	41	0.1924	7.23486e-06
2	1	0	1	1	70.2565	0.453007	0.452446	0.0360304	2	-0.0028543	41	0.4423	1.63018e-05
2	1	0	1	1	70.5064	0.458005	0.457863	0.0560795	2	-0.00284277	41	0.6922	2.56767e-05
2	1	0	1	1	70.7562	0.463002	0.462561	0.0761853	2	-0.00282624	41	0.942	3.52404e-05
2	1	0	1	1	71.0061	0.468	0.467542	0.0961665	2	-0.00280468	41	1.1919	4.49619e-05
2	1	0	1	1	71.286	0.473597	0.473268	0.11696	2	-0.00277473	40	1.4718	5.53532e-05
2	1	0	1	1	71.5359	0.478595	0.478103	0.136103	2	-0.00274285	40	1.7217	6.50712e-05
2	1	0	1	1	71.7858	0.483593	0.483311	0.154227	2	-0.00270632	40	1.9716	7.45397e-05
2	1	0	1	1	72.0356	0.48859	0.48836	0.171697	2	-0.00266537	40	2.2214	8.38498e-05
2	1	0	1	1	72.2855	0.493588	0.493196	0.187645	2	-0.00262022	40	2.4713	9.2546e-05
2	1	0	1	1	72.5354	0.498586	0.49815	0.202927	2	-0.00257116	40	2.7212	0.000101088
2	1	0	1	1	72.7853	0.503583	0.503263	0.216909	2	-0.00251844	40	2.9711	0.000109162
2	1	0	1	1	73.0352	0.508581	0.508348	0.229953	2	-0.00246233	40	3.221	0.000116896
2	1	0	1	1	73.285	0.513578	0.5132	0.242069	2	-0.00240312	40	3.4708	0.00012423
2	1	0	1	1	73.5349	0.518576	0.518342	0.253271	2	-0.00234098	40	3.7207	0.000131281
2	1	0	1	1	73.7848	0.523574	0.523367	0.263443	2	-0.00227622	40	3.9706	0.000137877
2	1	0	1	1	74.0347	0.528571	0.528395	0.272474	2	-0.00220902	40	4.2205	0.000143974
2	1	0	1	1	74.2846	0.533569	0.533315	0.280889	2	-0.00213964	40	4.4704	0.000149802
2	1	0	1	1	74.5344	0.538565	0.538238	0.288751	2	-0.00206827	40	4.7202	0.000155417
2	1	0	1	1	74.7843	0.543564	0.543061	0.295931	2	-0.00199499	40	4.9701	0.000160708
2	1	0	1	1	75.0342	0.548562	0.54837	0.302397	2	-0.00192	40	5.22	0.000165825
2	1	0	1	1	75.2841	0.553559	0.553404	0.308145	2	-0.00184354	40	5.4699	0.000170528
2	1	0	1	1	75.534	0.558557	0.558042	0.313464	2	-0.00176568	40	5.7198	0.000174926
2	1	0	1	1	75.7839	0.563555	0.563211	0.318447	2	-0.00168654	40	5.9697	0.000179353
2	1	0	1	1	76.0337	0.568552	0.568212	0.323019	2	-0.00160625	40	6.2195	0.000183543
2	1	0	1	1	76.2836	0.57355	0.573256	0.327447	2	-0.0015248	40	6.4694	0.000187711
2	1	0	1	1	76.5335	0.578548	0.578137	0.331349	2	-0.00144231	40	6.7193	0.000191565
2	1	0	1	1	76.7834	0.583545	0.583265	0.335002	2	-0.00135893	40	6.9692	0.000195395
2	1	0	1	1	77.0333	0.588543	0.588229	0.338669	2	-0.00127463	40	7.2191	0.000199215
2	1	0	1	1	77.2832	0.593542	0.593144	0.341255	2	-0.00118954	40	7.469	0.000202414
2	1	0	1	1	77.533	0.598538	0.598064	0.344237	2	-0.0011038	40	7.7188	0.000205876
2	1	0	1	1	77.7829	0.603536	0.603228	0.346902	2	-0.00101736	40	7.9687	0.000209261
2	1	0	1	1	78.0328	0.608533	0.608116	0.349766	2	-0.000930206	40	8.2186	0.000212698
2	1	0	1	1	78.2827	0.613531	0.613207	0.352526	2	-0.000842368	40	8.4685	0.000216171
2	1	0	1	1	78.5326	0.618529	0.618198	0.354785	2	-0.000753902	40	8.7184	0.000219327
2	1	0	1	1	78.7824	0.623526	0.623048	0.357558	2	-0.000664851	40	8.9682	0.000222776
2	1	0	1	1	79.0323	0.628524	0.628253	0.360072	2	-0.000575097	40	9.2181	0.000226216
2	1	0	1	1	79.2822	0.633521	0.633269	0.362009	2	-0.00048478	40	9.468	0.000229249
2	1	0	1	1	79.5321	0.638519	0.638072	0.363529	2	-0.000394076	40	9.7179	0.000231957
2	1	0	1	1	79.782	0.643517	0.643194	0.365491	2	-0.000302915	40	9.9678	0.000235082
2	1	0	1	1	80.0318	0.648514	0.648302	0.367696	2	-0.000211283	40	10.2176	0.000238378
2	1	0	1	1	80.2817	0.653512	0.65329	0.370082	2	-0.000119049	40	10.4675	0.000241771
2	1	0	1	1	80.5316	0.65851	0.658117	0.372067	2	-2.62495e-05	40	10.7174	0.000244863
2	1	0	1	1	80.7815	0.663507	0.663134	0.374017	2	6.70054e-05	40	10.9673	0.000248024
2	1	0	1	1	81.0314	0.668505	0.6684	0.376341	2	0.000160842	40	11.2172	0.000251546
2	1	0	1	1	81.2812	0.673502	0.673138	0.378388	2	0.000255208	40	11.467	0.000254707
2	1	0	1	1	81.5311	0.6785	0.678355	0.380093	2	0.000350013	40	11.7169	0.000257838
2	1	0	1	1	81.781	0.683498	0.683156	0.382706	2	0.000445385	40	11.9668	0.000261448
2	1	0	1	1	82.0309	0.688495	0.688263	0.384641	2	0.000541317	40	12.2167	0.000264734
2	1	0	1	1	82.2808	0.693493	0.693349	0.38741	2	0.000637867	40	12.4666	0.00026861
2	1	0	1	1	82.5306	0.698489	0.698088	0.390102	2	0.000734996	40	12.7164	0.000272326
2	1	0	1	1	82.7461	0.697241	0.696977	0.388101	2	0.000818952	40	12.9319	0.000270498
2	1	0	1	1	82.996	0.692244	0.692071	0.385915	2	0.000915622	40	13.1818	0.000267081
2	1	0	1	1	83.2459	0.687246	0.687045	0.383833	2	0.00101178	40	13.4317	0.00026371
2	1	0	1	1	83.4958	0.682248	0.681716	0.382201	2	0.00110747	40	13.6816	0.000260552
2	1	0	1	1	83.7456	0.677251	0.67693	0.380693	2	0.00120272	40	13.9314	0.000257703
2	1	0	1	1	83.9955	0.672253	0.671984	0.378889	2	0.00129758	40	14.1813	0.000254607
2	1	0	1	1	84.2454	0.667255	0.666925	0.377586	2	0.00139205	40	14.4312	0.000251822
2	1	0	1	1	84.4953	0.662258	0.661904	0.376674	2	0.00148624	40	14.6811	0.000249322
2	1	0	1	1	84.7452	0.65726	0.656874	0.375247	2	0.00158017	40	14.931	0.00024649
2	1	0	1	1	84.995	0.652263	0.651994	0.373879	2	0.00167369	40	15.1808	0.000243767
2	1	0	1	1	85.2449	0.647265	0.647046	0.372265	2	0.00176689	40	15.4307	0.000240873
2	1	0	1	1	85.4948	0.642267	0.641863	0.370909	2	0.0018597	40	15.6806	0.000238072
2	1	0	1	1	85.7447	0.63727	0.636872	0.368923	2	0.0019521	40	15.9305	0.000234957
2	1	0	1	1	85.9946	0.632272	0.63197	0.367405	2	0.00204402	40	16.1804	0.000232189
2	1	0	1	1	86.2444	0.627276	0.626913	0.366117	2	0.0021356	40	16.4302	0.000229523
2	1	0	1	1	86.4943	0.622277	0.621973	0.364465	2	0.00222682	40	16.6801	0.000226687
2	1	0	1	1	86.7442	0.617279	0.616983	0.362987	2	0.00231766	40	16.93	0.000223957
2	1	0	1	1	86.9941	0.612282	0.611676	0.360681	2	0.002408	40	17.1799	0.00022062
2	1	0	1	1	87.244	0.607284	0.606869	0.358333	2	0.00249772	40	17.4298	0.000217461
2	1	0	1	1	87.4939	0.602286	0.602021	0.356457	2	0.00258696	40	17.6797	0.000214595
2	1	0	1	1	87.7437	0.597289	0.596994	0.35376	2	0.00267561	40	17.9295	0.000211192
2	1	0	1	1	87.9936	0.592291	0.591824	0.350779	2	0.00276354	40	18.1794	0.000207599
2	1	0	1	1	88.2435	0.587293	0.586843	0.348354	2	0.00285078	40	18.4293	0.000204429
2	1	0	1	1	88.4934	0.582296	0.582131	0.345476	2	0.00293738	40	18.6792	0.000201112
2	1	0	1	1	88.7433	0.577298	0.577047	0.341509	2	0.00302309	40	18.9291	0.000197067
2	1	0	1	1	88.9932	0.572299	0.572042	0.337605	2	0.0031078	40	19.179	0.000193124
2	1	0	1	1	89.243	0.567303	0.566967	0.333765	2	0.00319152	40	19.4288	0.000189234
2	1	0	1	1	89.4929	0.562305	0.562148	0.3289	2	0.00327416	40	19.6787	0.00018489
2	1	0	1	1	89.7428	0.557308	0.556917	0.323787	2	0.00335556	40	19.9286	0.000180323
2	1	0	1	1	89.9927	0.55231	0.551867	0.317925	2	0.00343555	40	20.1785	0.000175452
2	1	0	1	1	90.2426	0.547312	0.546915	0.311546	2	0.00351402	40	20.4284	0.000170389
2	1	0	1	1	90.4924	0.542315	0.542011	0.304775	2	0.0035908	40	20.6782	0.000165191
2	1	0	1	1	90.7423	0.537317	0.536818	0.296943	2	0.00366582	40	20.9281	0.000159404
2	1	0	1	1	90.9922	0.53232	0.531737	0.288606	2	0.00373877	40	21.178	0.000153463
2	1	0	1	1	91.2421	0.527322	0.52698	0.278965	2	0.00380946	40	21.4279	0.000147009
2	1	0	1	1	91.492	0.522324	0.521871	0.268605	2	0.00387767	40	21.6778	0.000140177
2	1	0	1	1	91.7418	0.517327	0.517135	0.257255	2	0.00394314	40	21.9276	0.000133035
2	1	0	1	1	91.9917	0.512329	0.511928	0.244604	2	0.00400564	40	22.1775	0.00012522
2	1	0	1	1	92.2416	0.507331	0.506988	0.230897	2	0.00406486	40	22.4274	0.000117062
2	1	0	1	1	92.4915	0.502334	0.502085	0.215583	2	0.00412047	40	22.6773	0.000108241
2	1	0	1	1	92.7414	0.497336	0.497037	0.19937	2	0.00417213	40	22.9272	9.9094e-05
2	1	0	1	1	92.9912	0.492339	0.492073	0.182141	2	0.00421957	40	23.177	8.96267e-05
2	1	0	1	1	93.2411	0.487341	0.487032	0.163581	2	0.00426257	40	23.4269	7.9669e-05
2	1	0	1	1	93.491	0.482343	0.482157	0.143833	2	0.00430079	40	23.6768	6.935e-05
2	1	0	1	1	93.7409	0.477346	0.477046	0.12301	2	0.00433394	40	23.9267	5.86814e-05
2	1	0	1	1	93.9908	0.472348	0.471888	0.101735	2	0.00436181	40	24.1766	4.80077e-05
2	1	0	1	1	94.2406	0.467352	0.467132	0.0799857	2	0.00438429	40	24.4264	3.73639e-05
2	1	0	1	1	94.4905	0.462353	0.462093	0.0578566	2	0.00440128	40	24.6763	2.67352e-05
2	1	0	1	1	94.7704	0.456755	0.456553	0.0323365	2	0.00441383	41	24.9562	1.47634e-05
2	1	0	1	1	95.0203	0.451758	0.45157	0.010532	2	0.00441916	41	25.2061	4.75592e-06
2	0	0	1	1	95.2702	0.44676	0.446472	-0.0107312	2	0.00441911	41	0.1	-4.79119e-06
2	0	0	1	1	95.52	0.441763	0.441577	-0.0310343	2	0.00441385	41	0.3498	-1.37041e-05
2	0	0	1	1	95.7699	0.436765	0.436388	-0.0505698	2	0.00440361	41	0.5997	-2.20681e-05
2	0	0	1	1	96.0198	0.431767	0.431379	-0.0689928	2	0.00438864	41	0.8496	-2.9762e-05
2	0	0	1	1	96.2697	0.42677	0.426612	-0.0860791	2	0.00436923	41	1.0995	-3.67223e-05
2	0	0	1	1	96.5196	0.421772	0.421456	-0.101873	2	0.0043457	41	1.3494	-4.29351e-05
2	0	0	1	1	96.7994	0.416175	0.415717	-0.117097	2	0.00431491	40	1.6292	-4.86793e-05
2	0	0	1	1	97.0493	0.411177	0.410914	-0.13024	2	0.00428372	40	1.8791	-5.35177e-05
2	0	0	1	1	97.2992	0.406179	0.405963	-0.142257	2	0.00424938	40	2.129	-5.7751e-05
2	0	0	1	1	97.5491	0.401182	0.400952	-0.152912	2	0.00421221	40	2.3789	-6.13103e-05
2	0	0	1	1	97.799	0.396184	0.395894	-0.162723	2	0.0041725	40	2.6288	-6.44211e-05
2	0	0	1	1	98.0488	0.391187	0.390779	-0.171443	2	0.00413048	40	2.8786	-6.69965e-05
2	0	0	1	1	98.2987	0.386189	0.38565	-0.178949	2	0.00408639	40	3.1285	-6.90116e-05
2	0	0	1	1	98.5486	0.381191	0.380934	-0.186087	2	0.00404049	40	3.3784	-7.08871e-05
2	0	0	1	1	98.7985	0.376194	0.375898	-0.192095	2	0.00399297	40	3.6283	-7.22081e-05
2	0	0	1	1	99.0484	0.371196	0.370771	-0.197754	2	0.00394398	40	3.8782	-7.33215e-05
2	0	0	1	1	99.2982	0.3662	0.366063	-0.202767	2	0.00389367	40	4.128	-7.42257e-05
2	0	0	1	1	99.5481	0.361201	0.360873	-0.206933	2	0.0038422	40	4.3779	-7.46764e-05
2	0	0	1	1	99.798	0.356203	0.355711	-0.210969	2	0.0037897	40	4.6278	-7.50439e-05
2	0	0	1	1	100.048	0.351206	0.350782	-0.214432	2	0.00373628	40	4.8777	-7.52189e-05
2	0	0	1	1	100.298	0.346208	0.34622	-0.21808	2	0.00368196	40	5.1276	-7.55037e-05
2	0	0	1	1	100.548	0.34121	0.341036	-0.221228	2	0.00362681	40	5.3775	-7.54469e-05
2	0	0	1	1	100.797	0.336213	0.335909	-0.223817	2	0.0035709	40	5.6273	-7.51821e-05
2	0	0	1	1	101.047	0.331215	0.330906	-0.225621	2	0.00351448	40	5.8772	-7.46593e-05
2	0	0	1	1	101.297	0.326217	0.325945	-0.227814	2	0.00345755	40	6.1271	-7.4255e-05
2	0	0	1	1	101.547	0.32122	0.320732	-0.229927	2	0.00340009	40	6.377	-7.37448e-05
2	0	0	1	1	101.797	0.316222	0.315962	-0.231804	2	0.00334211	40	6.6269	-7.32411e-05
2	0	0	1	1	102.047	0.311223	0.310866	-0.233663	2	0.0032837	40	6.8768	-7.26381e-05
2	0	0	1	1	102.297	0.306227	0.305867	-0.235133	2	0.00322489	40	7.1266	-7.19194e-05
2	0	0	1	1	102.547	0.301229	0.300913	-0.23671	2	0.00316565	40	7.3765	-7.1229e-05
2	0	0	1	1	102.797	0.296232	0.295943	-0.238209	2	0.003106	40	7.6264	-7.04963e-05
2	0	0	1	1	103.046	0.291234	0.290773	-0.239593	2	0.003046	40	7.8763	-6.96672e-05
2	0	0	1	1	103.296	0.286236	0.285872	-0.240669	2	0.00298571	40	8.1262	-6.88006e-05
2	0	0	1	1	103.546	0.281239	0.28115	-0.241736	2	0.00292518	40	8.376	-6.79639e-05
2	0	0	1	1	103.796	0.276241	0.275913	-0.243038	2	0.00286433	40	8.6259	-6.70574e-05
2	0	0	1	1	104.046	0.271244	0.270801	-0.243769	2	0.0028032	40	8.8758	-6.60128e-05
2	0	0	1	1	104.296	0.266246	0.265898	-0.244664	2	0.00274187	40	9.1257	-6.50557e-05
2	0	0	1	1	104.546	0.261248	0.261136	-0.245444	2	0.00268033	40	9.3756	-6.40943e-05
2	0	0	1	1	104.796	0.256251	0.256049	-0.246427	2	0.00261861	40	9.6254	-6.30974e-05
2	0	0	1	1	105.045	0.251253	0.250831	-0.247339	2	0.00255662	40	9.8753	-6.20403e-05
2	0	0	1	1	105.295	0.246255	0.245832	-0.247957	2	0.00249441	40	10.1252	-6.09559e-05
2	0	0	1	1	105.545	0.241258	0.240962	-0.248795	2	0.00243204	40	10.3751	-5.99503e-05
2	0	0	1	1	105.795	0.23626	0.235988	-0.249004	2	0.00236952	40	10.625	-5.87621e-05
2	0	0	1	1	106.045	0.231263	0.231092	-0.249536	2	0.00230695	40	10.8748	-5.76657e-05
2	0	0	1	1	106.295	0.226265	0.226115	-0.249853	2	0.0022442	40	11.1247	-5.64955e-05
2	0	0	1	1	106.545	0.221267	0.221006	-0.250916	2	0.00218128	40	11.3746	-5.54539e-05
2	0	0	1	1	106.795	0.21627	0.21589	-0.251643	2	0.00211816	40	11.6245	-5.43272e-05
2	0	0	1	1	107.045	0.211272	0.211017	-0.252579	2	0.00205486	40	11.8744	-5.32986e-05
2	0	0	1	1	107.294	0.206276	0.205846	-0.252775	2	0.00199136	40	12.1242	-5.20327e-05
2	0	0	1	1	107.544	0.201277	0.200885	-0.253205	2	0.00192779	40	12.3741	-5.08652e-05
2	0	0	1	1	107.794	0.196279	0.195975	-0.253726	2	0.00186409	40	12.624	-4.9724e-05
2	0	0	1	1	108.044	0.191282	0.190973	-0.253983	2	0.00180025	40	12.8739	-4.85039e-05
2	0	0	1	1	108.294	0.186284	0.185995	-0.254171	2	0.00173641	40	13.1238	-4.72747e-05
2	0	0	1	1	108.544	0.181286	0.181105	-0.254627	2	0.00167247	40	13.3737	-4.61142e-05
2	0	0	1	1	108.794	0.176289	0.176203	-0.255286	2	0.00160836	40	13.6235	-4.49821e-05
2	0	0	1	1	109.044	0.171291	0.170883	-0.255473	2	0.00154413	40	13.8734	-4.36561e-05
2	0	0	1	1	109.293	0.166294	0.166073	-0.255629	2	0.00147991	40	14.1233	-4.2453e-05
2	0	0	1	1	109.543	0.161296	0.161039	-0.256045	2	0.0014156	40	14.3732	-4.12333e-05
2	0	0	1	1	109.793	0.156298	0.155976	-0.256919	2	0.0013511	40	14.6231	-4.00731e-05
2	0	0	1	1	110.043	0.151299	0.151057	-0.256835	2	0.0012865	40	14.873	-3.87966e-05
2	0	0	1	1	110.293	0.146303	0.146226	-0.257459	2	0.00122189	40	15.1228	-3.76472e-05
2	0	0	1	1	110.543	0.141305	0.140969	-0.257541	2	0.00115716	40	15.3727	-3.63053e-05
2	0	0	1	1	110.793	0.136308	0.136082	-0.2573	2	0.00109245	40	15.6226	-3.5014e-05
2	0	0	1	1	111.043	0.13131	0.130822	-0.25776	2	0.00102769	40	15.8725	-3.37207e-05
2	0	0	1	1	111.293	0.126312	0.126301	-0.25779	2	0.000962879	40	16.1224	-3.25592e-05
2	0	0	1	1	111.542	0.121315	0.121051	-0.258178	2	0.000898047	40	16.3722	-3.12528e-05
2	0	0	1	1	111.792	0.116317	0.115908	-0.258425	2	0.000833096	40	16.6221	-2.99535e-05
2	0	0	1	1	112.042	0.11132	0.111036	-0.258777	2	0.000768105	40	16.872	-2.87336e-05
2	0	0	1	1	112.292	0.106322	0.105888	-0.258688	2	0.000703068	40	17.1219	-2.73919e-05
2	0	0	1	1	112.542	0.101324	0.100967	-0.25907	2	0.000637967	40	17.3718	-2.61576e-05
2	0	0	1	1	112.792	0.0963267	0.0960609	-0.259684	2	0.000572777	40	17.6216	-2.49455e-05
2	0	0	1	1	113.042	0.0913291	0.0911431	-0.259208	2	0.000507525	40	17.8715	-2.3625e-05
2	0	0	1	1	113.292	0.0863315	0.0858851	-0.259914	2	0.00044221	40	18.1214	-2.23228e-05
2	0	0	1	1	113.541	0.0813339	0.0810629	-0.259814	2	0.000376891	40	18.3713	-2.10612e-05
2	0	0	1	1	113.791	0.0763362	0.0759696	-0.260037	2	0.000311559	40	18.6212	-1.97549e-05
2	0	0	1	1	114.041	0.0713395	0.0710532	-0.259645	2	0.000246256	40	18.871	-1.84486e-05
2	0	0	1	1	114.291	0.066341	0.066069	-0.259589	2	0.00018101	40	19.1209	-1.71508e-05
2	0	0	1	1	114.541	0.0613434	0.0609775	-0.260407	2	0.000115673	40	19.3708	-1.5879e-05
2	0	0	1	1	114.791	0.0563457	0.0562418	-0.260858	2	5.01772e-05	40	19.6207	-1.46711e-05
2	0	0	1	1	115.041	0.0513481	0.0511838	-0.260551	2	-1.53474e-05	40	19.8706	-1.3336e-05
2	0	0	1	1	115.291	0.0463523	0.0460913	-0.260926	2	-8.08545e-05	40	20.1204	-1.20264e-05
2	0	0	1	1	115.54	0.0413529	0.0410533	-0.260676	2	-0.000146427	40	20.3703	-1.07016e-05
2	0	0	1	1	115.79	0.0363552	0.0360636	-0.260513	2	-0.000211913	40	20.6202	-9.39506e-06
2	0	0	1	1	116.04	0.0313576	0.0309353	-0.260946	2	-0.000277401	40	20.8701	-8.07245e-06
2	0	0	1	1	116.29	0.02636	0.0260902	-0.261424	2	-0.000343039	40	21.12	-6.8206e-06
2	0	0	1	1	116.54	0.0213624	0.0211635	-0.260893	2	-0.000408628	40	21.3699	-5.5214e-06
2	0	0	1	1	116.79	0.0163647	0.0160064	-0.261099	2	-0.000474176	40	21.6197	-4.17924e-06
2	0	0	1	1	117.04	0.0113671	0.011054	-0.260857	2	-0.000539767	40	21.8696	-2.88351e-06
2	0	0	1	1	117.29	0.00636949	0.00603584	-0.261261	2	-0.000605307	40	22.1195	-1.57693e-06
2	0	0	1	1	117.54	0.00137187	0.00116703	-0.261474	2	-0.000670959	40	22.3694	-3.05149e-07
2	0	0	1	0	117.747	0.0027712	0.00239394	-0.262253	2	-0.000725418	40	22.5773	-6.27819e-07
2	0	0	1	0	117.997	0.00776883	0.00748618	-0.262326	2	-0.00079063	40	22.8272	-1.96382e-06
2	0	0	1	0	118.247	0.0127665	0.0123421	-0.261874	2	-0.00085575	40	23.077	-3.23206e-06
2	0	0	1	0	118.497	0.0177641	0.0172923	-0.262101	2	-0.000920903	40	23.3269	-4.53234e-06
2	0	0	1	0	118.747	0.0227617	0.022383	-0.261832	2	-0.000986028	40	23.5768	-5.86058e-06
2	0	0	1	0	118.997	0.0277593	0.0275332	-0.261962	2	-0.00105114	40	23.8267	-7.21265e-06
2	0	0	1	0	119.247	0.032757	0.0326596	-0.261882	2	-0.00111626	40	24.0766	-8.55295e-06
2	0	0	1	0	119.497	0.0377541	0.0373197	-0.262075	2	-0.00118136	40	24.3264	-9.78054e-06
2	0	0	1	0	119.746	0.0427522	0.0424034	-0.261943	2	-0.00124655	40	24.5763	-1.11073e-05
2	0	0	1	0	119.996	0.0477498	0.0475083	-0.260781	2	-0.00131156	40	24.8262	-1.23893e-05
2	0	0	1	0	120.246	0.0527475	0.05241	-0.26044	2	-0.00137633	40	25.0761	-1.36497e-05
2	0	0	1	0	120.496	0.0577451	0.0572751	-0.260303	2	-0.00144103	40	25.326	-1.49089e-05
2	0	0	1	0	120.746	0.0627409	0.0624372	-0.260815	2	-0.00150572	40	25.5758	-1.62846e-05
2	0	0	1	0	120.996	0.0677403	0.0673623	-0.260358	2	-0.00157054	40	25.8257	-1.75383e-05
2	0	0	1	0	121.246	0.072738	0.0723676	-0.259719	2	-0.00163518	40	26.0756	-1.87952e-05
2	0	0	1	0	121.496	0.0777356	0.0773496	-0.259766	2	-0.00169974	40	26.3255	-2.00928e-05
2	0	0	1	0	121.746	0.0827332	0.082522	-0.259604	2	-0.00176427	40	26.5754	-2.14231e-05
2	0	0	1	0	121.995	0.0877308	0.0873974	-0.259118	2	-0.00182874	40	26.8253	-2.26462e-05
2	0	0	1	0	122.245	0.0927285	0.0925082	-0.259347	2	-0.00189314	40	27.0751	-2.39917e-05
2	0	0	1	0	122.495	0.0977261	0.0974038	-0.258603	2	-0.00195748	40	27.325	-2.5189e-05
2	0	0	1	0	122.745	0.102724	0.102403	-0.258055	2	-0.00202169	40	27.5749	-2.64255e-05
2	0	0	1	0	122.995	0.107721	0.107343	-0.257864	2	-0.00208582	40	27.8248	-2.76799e-05
2	0	0	1	0	123.245	0.112719	0.112447	-0.257383	2	-0.00214985	40	28.0747	-2.8942e-05
2	0	0	1	0	123.495	0.117718	0.117374	-0.257155	2	-0.00221385	40	28.3246	-3.01832e-05
2	0	0	1	0	123.745	0.122714	0.122577	-0.256984	2	-0.0022777	40	28.5744	-3.15002e-05
2	0	0	1	0	123.994	0.127712	0.127374	-0.256015	2	-0.00234147	40	28.8243	-3.26096e-05
2	0	0	1	0	124.244	0.132709	0.132461	-0.2556	2	-0.00240506	40	29.0742	-3.38569e-05
2	0	0	1	0	124.494	0.137707	0.137161	-0.254959	2	-0.00246854	40	29.3241	-3.49704e-05
2	0	0	1	0	124.744	0.142705	0.142507	-0.254312	2	-0.00253181	40	29.574	-3.62413e-05
2	0	0	1	0	124.994	0.147702	0.14746	-0.253689	2	-0.00259493	40	29.8238	-3.74089e-05
2	0	0	1	0	125.244	0.1527	0.152396	-0.252922	2	-0.0026579	40	30.0737	-3.85443e-05
2	0	0	1	0	125.494	0.157698	0.157323	-0.252857	2	-0.00272076	40	30.3236	-3.97803e-05
2	0	0	1	0	125.744	0.162695	0.162324	-0.252005	2	-0.00278348	40	30.5735	-4.09065e-05
2	0	0	1	0	125.994	0.167693	0.167298	-0.251297	2	-0.00284601	40	30.8234	-4.20417e-05
2	0	0	1	0	126.243	0.17269	0.172467	-0.250473	2	-0.00290832	40	31.0732	-4.31983e-05
2	0	0	1	0	126.493	0.177688	0.177271	-0.249703	2	-0.00297047	40	31.3231	-4.4265e-05
2	0	0	1	0	126.743	0.182686	0.182253	-0.248849	2	-0.00303241	40	31.573	-4.53535e-05
2	0	0	1	0	126.993	0.187683	0.187437	-0.24774	2	-0.0030941	40	31.8229	-4.64357e-05
2	0	0	1	0	127.243	0.192681	0.192336	-0.246707	2	-0.00315556	40	32.0728	-4.74506e-05
2	0	0	1	0	127.493	0.197678	0.197507	-0.24583	2	-0.00321677	40	32.3226	-4.85532e-05
2	0	0	1	0	127.743	0.202676	0.202284	-0.244354	2	-0.00327771	40	32.5725	-4.94289e-05
2	0	0	1	0	127.993	0.207674	0.207159	-0.243189	2	-0.00333827	40	32.8224	-5.03788e-05
2	0	0	1	0	128.242	0.212671	0.212327	-0.242109	2	-0.00339857	40	33.0723	-5.14063e-05
2	0	0	1	0	128.492	0.217669	0.217537	-0.240484	2	-0.00345853	40	33.3222	-5.23142e-05
2	0	0	1	0	128.742	0.222667	0.22236	-0.239104	2	-0.00351813	40	33.5721	-5.31673e-05
2	0	0	1	0	128.992	0.227664	0.227491	-0.237802	2	-0.00357737	40	33.8219	-5.40979e-05
2	0	0	1	0	129.242	0.232662	0.232187	-0.236215	2	-0.00363627	40	34.0718	-5.4846e-05
2	0	0	1	0	129.492	0.23766	0.237233	-0.234528	2	-0.00369474	40	34.3217	-5.56376e-05
2	0	0	1	0	129.742	0.242657	0.242313	-0.23281	2	-0.00375282	40	34.5716	-5.64131e-05
2	0	0	1	0	129.992	0.247655	0.247108	-0.230884	2	-0.00381045	40	34.8215	-5.70533e-05
2	0	0	1	0	130.241	0.252652	0.252423	-0.229218	2	-0.00386758	40	35.0713	-5.78597e-05
2	0	0	1	0	130.491	0.25765	0.257341	-0.227363	2	-0.00392429	40	35.3212	-5.85099e-05
2	0	0	1	0	130.741	0.262648	0.262472	-0.225522	2	-0.00398053	40	35.5711	-5.91933e-05
2	0	0	1	0	130.991	0.267645	0.267321	-0.22343	2	-0.0040363	40	35.821	-5.97276e-05
2	0	0	1	0	131.241	0.272643	0.272273	-0.221667	2	-0.00409162	40	36.0709	-6.03539e-05
2	0	0	1	0	131.491	0.277641	0.277463	-0.220218	2	-0.00414652	40	36.3208	-6.11022e-05
2	0	0	1	0	131.741	0.282638	0.282283	-0.218443	2	-0.00420099	40	36.5706	-6.16628e-05
2	0	0	1	0	131.991	0.287636	0.287501	-0.216962	2	-0.00425507	40	36.8205	-6.2377e-05
2	0	0	1	0	132.241	0.292633	0.292333	-0.215548	2	-0.00430877	40	37.0704	-6.30119e-05
2	0	0	1	0	132.49	0.297631	0.297302	-0.214421	2	-0.00436221	40	37.3203	-6.37478e-05
2	0	0	1	0	132.74	0.302629	0.302337	-0.213597	2	-0.00441539	40	37.5702	-6.45784e-05
2	0	0	1	0	132.99	0.307626	0.307137	-0.212744	2	-0.00446837	40	37.82	-6.53416e-05
2	0	0	1	0	133.24	0.312624	0.312234	-0.211519	2	-0.00452111	40	38.0699	-6.60434e-05
2	0	0	1	0	133.49	0.317622	0.317258	-0.210293	2	-0.00457357	40	38.3198	-6.67173e-05
2	0	0	1	0	133.74	0.322619	0.322332	-0.209078	2	-0.00462574	40	38.5697	-6.73924e-05
2	0	0	1	0	133.99	0.327617	0.32727	-0.2078	2	-0.00467757	40	38.8196	-6.80066e-05
2	0	0	1	0	134.24	0.332614	0.332169	-0.206307	2	-0.00472906	40	39.0694	-6.85287e-05
2	0	0	1	0	134.489	0.337612	0.337229	-0.204503	2	-0.00478013	40	39.3193	-6.89642e-05
2	0	0	1	0	134.739	0.34261	0.342272	-0.202475	2	-0.00483075	40	39.5692	-6.93016e-05
2	0	0	1	0	134.989	0.347607	0.347329	-0.199735	2	-0.00488077	40	39.8191	-6.93739e-05
2	0	0	1	0	135.239	0.352605	0.352404	-0.19687	2	-0.00493007	40	40.069	-6.93778e-05
2	0	0	1	0	135.489	0.357601	0.35716	-0.193452	2	-0.00497857	40	40.3188	-6.90932e-05
2	0	0	1	0	135.739	0.3626	0.362212	-0.189594	2	-0.00502615	40	40.5687	-6.86732e-05
2	0	0	1	0	135.989	0.367598	0.367355	-0.184914	2	-0.00507265	40	40.8186	-6.79289e-05
2	0	0	1	0	136.239	0.372595	0.372166	-0.179452	2	-0.0051179	40	41.0685	-6.6786e-05
2	0	0	1	0	136.489	0.377593	0.377341	-0.173441	2	-0.00516173	40	41.3184	-6.54464e-05
2	0	0	1	0	136.738	0.382591	0.382263	-0.166465	2	-0.0052039	40	41.5683	-6.36333e-05
2	0	0	1	0	136.988	0.387588	0.387225	-0.158431	2	-0.00524423	40	41.8181	-6.13483e-05
2	0	0	1	0	137.238	0.392586	0.392396	-0.149675	2	-0.00528249	40	42.068	-5.8732e-05
2	0	0	1	0	137.488	0.397584	0.397226	-0.139848	2	-0.00531843	40	42.3179	-5.55512e-05
2	0	0	1	0	137.738	0.402581	0.402251	-0.128953	2	-0.00535177	40	42.5678	-5.18714e-05
2	0	0	1	0	137.988	0.407579	0.40726	-0.117013	2	-0.00538225	40	42.8177	-4.76545e-05
2	0	0	1	0	138.238	0.412578	0.412365	-0.104201	2	-0.00540964	40	43.0676	-4.29687e-05
2	0	0	1	0	138.488	0.417574	0.417325	-0.0901406	2	-0.00543367	40	43.3174	-3.76179e-05
2	0	0	1	0	138.737	0.422572	0.422158	-0.0752774	2	-0.00545411	40	43.5673	-3.1779e-05
2	0	0	1	0	138.987	0.427569	0.427343	-0.0588993	2	-0.00547066	40	43.8172	-2.51702e-05
2	0	0	1	0	139.237	0.432567	0.43224	-0.0418165	2	-0.00548303	40	44.0671	-1.80748e-05
2	0	0	1	0	139.517	0.438164	0.437667	-0.0207049	2	-0.00549171	41	44.3469	-9.06184e-06
2	0	0	1	0	139.767	0.443162	0.442884	-0.00175068	2	-0.00549451	41	44.5968	-7.75346e-07
2	1	0	1	0	139.917	0.446186	0.445427	0.0103177	2	-0.00549389	41	0.1004	4.59579e-06