File: Python/Data/GoldElectrode/240313/240313-CVEIS_PostActivation-Fe2Fe3_5mM-HCl1M-1225RPM-Ag_AgCl_BLF8-Au_RDE_02_PEIS_C15.mpt
EC-Lab ASCII FILE
Nb header lines : 66

Potentio Electrochemical Impedance Spectroscopy

Run on channel : 15 (SN 19485)
User :
Electrode connection : standard
Potential control : Ewe
Ewe ctrl range : min = -1.00 V, max = 1.00 V
Ewe,I filtering : <None>
Safety Limits :
	Do not start on E overload
Channel : Floating
Acquisition started on : 03/13/2024 17:49:36.773
Loaded Setting File :  NONE
Saved on :
	File : 240313-CVEIS_PostActivation-Fe2Fe3_5mM-HCl1M-1225RPM-Ag_AgCl_BLF8-Au_RDE_02_PEIS_C15.mpr
	Directory : C:\Data\mathias\GoldElectrode\
	Host : 192.168.0.1
Device : VMP-300 (SN 0826)
Address : USB
EC-Lab for windows v11.52 (software)
Internet server v11.52 (firmware)
Command interpretor v11.52 (firmware)
Electrode material :
Initial state :
Electrolyte :
Comments :
Cable : special
Electrode surface area : 0.001 cm²
Characteristic mass : 0.001 g
Equivalent Weight : 0.000 g/eq.
Density : 0.000 g/cm3
Volume (V) : 0.001 cm³
Record EIS quality indicators
Cycle Definition : Charge/Discharge alternance
Mode                Single sine
E (V)               0.0000
vs.                 Eoc
tE (h:m:s)          0:01:0.0000
record              0
dI                  0.000
unit dI             mA
dt (s)              0.000
fi                  400.000
unit fi             kHz
ff                  100.000
unit ff             mHz
Nd                  10
Points              per decade
spacing             Logarithmic
Va (mV)             5.0
pw                  0.10
Na                  3
corr                0
E range min (V)     -1.000
E range max (V)     1.000
I Range             Auto
Bandwidth           8
nc cycles           0
goto Ns'            0
nr cycles           0
inc. cycle          1

freq/Hz	Re(Z)/Ohm	-Im(Z)/Ohm	|Z|/Ohm	Phase(Z)/deg	time/s	<Ewe>/V	<I>/mA	Cs/µF	Cp/µF	cycle number	I Range	|Ewe|/V	|I|/A	Ns	(Q-Qo)/mA.h	THD Ewe/%	NSD Ewe/%	NSR Ewe/%	|Ewe h2|/V	|Ewe h3|/V	|Ewe h4|/V	|Ewe h5|/V	|Ewe h6|/V	|Ewe h7|/V	THD I/%	NSD I/%	NSR I/%	|I h2|/A	|I h3|/A	|I h4|/A	|I h5|/A	|I h6|/A	|I h7|/A	Re(Y)/Ohm-1	Im(Y)/Ohm-1	|Y|/Ohm-1	Phase(Y)/deg	Re(C)/nF	Im(C)/nF	|C|/nF	Phase(C)/deg	Re(M)	Im(M)	|M|	Phase(M)/deg	Re(Permittivity)	Im(Permittivity)	|Permittivity|	Phase(Permittivity)/deg	Re(Resistivity)/Ohm.cm	Im(Resistivity)/Ohm.cm	|Resistivity|/Ohm.cm	Phase(Resistivity)/deg	Re(Conductivity)/mS/cm	Im(Conductivity)/mS/cm	|Conductivity|/mS/cm	Phase(Conductivity)/deg	Tan(Delta)	Loss Angle(Delta)/deg	dq/mA.h
399996	3.25484	1.38311	3.53652	-23.0225	203.253	0.442854	-0.00470171	0.287679	0.0440015	1	38	0.00497277	0.00140612	0	3.56758e-05	-1	-1	-1	0	0	0	0	0	0	-1	-1	-1	0	0	0	0	0	0	0.260242	0.110587	0.282764	23.0225	44.0015	103.548	112.509	-66.9775	0.0000000E+000	0.0000000E+000	0.0000000E+000	66.9775	0.0000000E+000	0.0000000E+000	0.0000000E+000	-66.9775	0.0000000E+000	0.0000000E+000	0.0000000E+000	-23.0225	0.0000000E+000	0.0000000E+000	0.0000000E+000	23.0225	2.35328	66.9775	3.56758e-05
317705	3.21099	1.12153	3.40122	-19.2533	204.4	0.442855	0.00514239	0.446667	0.0485667	1	38	0.00514142	0.00151164	0	4.04279e-05	-1	-1	-1	0	0	0	0	0	0	-1	-1	-1	0	0	0	0	0	0	0.277568	0.096949	0.294012	19.2533	48.5667	139.048	147.286	-70.7467	0.0000000E+000	0.0000000E+000	0.0000000E+000	70.7467	0.0000000E+000	0.0000000E+000	0.0000000E+000	-70.7467	0.0000000E+000	0.0000000E+000	0.0000000E+000	-19.2533	0.0000000E+000	0.0000000E+000	0.0000000E+000	19.2533	2.86303	70.7467	4.75212e-06
252347	3.18133	0.935592	3.31605	-16.388	205.547	0.442869	0.00475139	0.674116	0.0536618	1	38	0.0051421	0.00155067	0	4.09187e-05	-1	-1	-1	0	0	0	0	0	0	-1	-1	-1	0	0	0	0	0	0	0.289312	0.0850832	0.301564	16.388	53.6618	182.468	190.195	-73.612	0.0000000E+000	0.0000000E+000	0.0000000E+000	73.612	0.0000000E+000	0.0000000E+000	0.0000000E+000	-73.612	0.0000000E+000	0.0000000E+000	0.0000000E+000	-16.388	0.0000000E+000	0.0000000E+000	0.0000000E+000	16.388	3.40034	73.612	4.9078e-07
200434	3.24396	0.311479	3.25888	-5.48462	207.13	0.442829	0.0154071	2.54929	0.0232885	1	37	0.00470768	0.00144457	0	4.508e-05	-1	-1	-1	0	0	0	0	0	0	-1	-1	-1	0	0	0	0	0	0	0.305449	0.0293287	0.306854	5.48462	23.2885	242.542	243.658	-84.5154	0.0000000E+000	0.0000000E+000	0.0000000E+000	84.5154	0.0000000E+000	0.0000000E+000	0.0000000E+000	-84.5154	0.0000000E+000	0.0000000E+000	0.0000000E+000	-5.48462	0.0000000E+000	0.0000000E+000	0.0000000E+000	5.48462	10.4147	84.5154	4.16134e-06
159201	3.22553	0.307733	3.24017	-5.44984	208.278	0.442862	0.016654	3.24864	0.0293031	1	37	0.00513704	0.00158542	0	4.82867e-05	-1	-1	-1	0	0	0	0	0	0	-1	-1	-1	0	0	0	0	0	0	0.30723	0.0293115	0.308625	5.44984	29.3031	307.142	308.537	-84.5502	0.0000000E+000	0.0000000E+000	0.0000000E+000	84.5502	0.0000000E+000	0.0000000E+000	0.0000000E+000	-84.5502	0.0000000E+000	0.0000000E+000	0.0000000E+000	-5.44984	0.0000000E+000	0.0000000E+000	0.0000000E+000	5.44984	10.4816	84.5502	3.20667e-06
126447	3.20285	0.357662	3.22276	-6.37182	209.426	0.44287	0.0219768	3.51914	0.0433439	1	37	0.00520856	0.00161618	0	5.50372e-05	-1	-1	-1	0	0	0	0	0	0	-1	-1	-1	0	0	0	0	0	0	0.308376	0.0344364	0.310293	6.37182	43.3439	388.143	390.555	-83.6282	0.0000000E+000	0.0000000E+000	0.0000000E+000	83.6282	0.0000000E+000	0.0000000E+000	0.0000000E+000	-83.6282	0.0000000E+000	0.0000000E+000	0.0000000E+000	-6.37182	0.0000000E+000	0.0000000E+000	0.0000000E+000	6.37182	8.95495	83.6282	6.75049e-06
100431	3.23353	0.385072	3.25638	-6.79122	210.574	0.442843	0.012057	4.1154	0.0575477	1	37	0.00517434	0.00158899	0	6.24088e-05	1.17665	0.532613	19.2321	1.96189e-05	3.08326e-05	1.30686e-05	1.64326e-05	2.50853e-05	2.26108e-05	0.544119	0.271992	11.0099	2.73056e-06	4.44229e-06	2.7587e-06	2.66929e-06	4.17814e-06	3.03902e-06	0.304935	0.0363139	0.30709	6.79122	57.5477	483.239	486.654	-83.2088	0.0000000E+000	0.0000000E+000	0.0000000E+000	83.2088	0.0000000E+000	0.0000000E+000	0.0000000E+000	-83.2088	0.0000000E+000	0.0000000E+000	0.0000000E+000	-6.79122	0.0000000E+000	0.0000000E+000	0.0000000E+000	6.79122	8.3972	83.2088	7.37161e-06
79767.3	3.25712	0.428663	3.2852	-7.49751	211.722	0.44287	0.0152023	4.65456	0.0792478	1	37	0.00518271	0.00157759	0	6.80339e-05	0.924003	0.48647	19.2423	1.49219e-05	2.11592e-05	1.24422e-05	1.90515e-05	2.66735e-05	9.14643e-06	0.573727	0.390643	11.0371	3.58197e-06	4.73546e-06	2.29773e-06	2.88114e-06	3.85534e-06	2.85601e-06	0.301793	0.0397184	0.304395	7.49751	79.2479	602.149	607.342	-82.5025	0.0000000E+000	0.0000000E+000	0.0000000E+000	82.5025	0.0000000E+000	0.0000000E+000	0.0000000E+000	-82.5025	0.0000000E+000	0.0000000E+000	0.0000000E+000	-7.49751	0.0000000E+000	0.0000000E+000	0.0000000E+000	7.49751	7.5983	82.5025	5.62513e-06
63362.9	3.29481	0.465885	3.32758	-8.04825	212.87	0.44286	0.0145882	5.39146	0.105683	1	37	0.00517588	0.00155545	0	7.38247e-05	1.03802	0.65407	19.5171	2.77775e-05	1.08329e-05	2.15119e-05	1.75768e-05	1.35408e-05	2.2069e-05	0.569478	0.248969	11.3451	2.12651e-06	4.45406e-06	1.31704e-06	3.38533e-06	4.07738e-06	3.91774e-06	0.297559	0.0420747	0.300518	8.04825	105.683	747.407	754.842	-81.9518	0.0000000E+000	0.0000000E+000	0.0000000E+000	81.9518	0.0000000E+000	0.0000000E+000	0.0000000E+000	-81.9518	0.0000000E+000	0.0000000E+000	0.0000000E+000	-8.04825	0.0000000E+000	0.0000000E+000	0.0000000E+000	8.04825	7.07215	81.9518	5.79079e-06
50326.6	3.32626	0.518588	3.36644	-8.86148	214.018	0.442855	0.0206741	6.09818	0.144711	1	37	0.0051599	0.00153275	0	8.05151e-05	0.97528	0.769411	19.8741	1.52321e-05	1.54171e-05	1.87011e-05	2.06014e-05	2.16e-05	2.21196e-05	0.533284	0.494114	11.4887	2.95102e-06	9.38244e-07	3.25225e-06	2.93462e-06	4.0267e-06	3.77757e-06	0.293504	0.0457593	0.297049	8.86148	144.711	928.188	939.401	-81.1385	0.0000000E+000	0.0000000E+000	0.0000000E+000	81.1385	0.0000000E+000	0.0000000E+000	0.0000000E+000	-81.1385	0.0000000E+000	0.0000000E+000	0.0000000E+000	-8.86148	0.0000000E+000	0.0000000E+000	0.0000000E+000	8.86148	6.41407	81.1385	6.69041e-06
39971.8	3.37692	0.595465	3.42902	-10.0004	215.167	0.442865	0.0206927	6.68668	0.201643	1	37	0.00516126	0.00150517	0	8.73101e-05	1.06997	0.697529	19.3889	3.21255e-05	1.01975e-05	2.07919e-05	1.52926e-05	2.01606e-05	2.26146e-05	0.652529	0.325724	11.8123	3.93032e-06	4.44336e-06	3.48599e-06	3.92755e-06	2.78979e-06	3.14103e-06	0.287198	0.0506427	0.291629	10.0004	201.643	1143.53	1161.17	-79.9996	0.0000000E+000	0.0000000E+000	0.0000000E+000	79.9996	0.0000000E+000	0.0000000E+000	0.0000000E+000	-79.9996	0.0000000E+000	0.0000000E+000	0.0000000E+000	-10.0004	0.0000000E+000	0.0000000E+000	0.0000000E+000	10.0004	5.67106	79.9996	6.79496e-06
31751	3.42941	0.676348	3.49547	-11.1567	216.315	0.442866	0.0225352	7.41126	0.277474	1	37	0.00514071	0.00147068	0	9.43664e-05	1.04438	0.619427	20.0704	2.43488e-05	2.39161e-05	2.86167e-05	1.24068e-05	1.73029e-05	1.32474e-05	0.542562	0.393188	11.9688	3.71433e-06	3.53129e-06	2.7526e-06	2.94928e-06	1.82929e-06	3.03606e-06	0.280678	0.0553554	0.286085	11.1567	277.474	1406.93	1434.03	-78.8433	0.0000000E+000	0.0000000E+000	0.0000000E+000	78.8433	0.0000000E+000	0.0000000E+000	0.0000000E+000	-78.8433	0.0000000E+000	0.0000000E+000	0.0000000E+000	-11.1567	0.0000000E+000	0.0000000E+000	0.0000000E+000	11.1567	5.07048	78.8433	7.05634e-06
25219	3.48084	0.782939	3.56781	-12.6765	217.463	0.442876	0.0174171	8.06055	0.388166	1	37	0.0051288	0.00143752	0	0.00010036	0.851246	0.43729	19.469	1.60153e-05	1.98528e-05	1.50261e-05	1.7031e-05	2.10665e-05	1.16057e-05	0.747967	0.336988	12.2487	2.23134e-06	6.48206e-06	3.69197e-06	4.79266e-06	3.47031e-06	3.07389e-06	0.273452	0.061507	0.280284	12.6765	388.166	1725.73	1768.85	-77.3235	0.0000000E+000	0.0000000E+000	0.0000000E+000	77.3235	0.0000000E+000	0.0000000E+000	0.0000000E+000	-77.3235	0.0000000E+000	0.0000000E+000	0.0000000E+000	-12.6765	0.0000000E+000	0.0000000E+000	0.0000000E+000	12.6765	4.44587	77.3235	5.99383e-06
20032.3	3.52953	0.899904	3.64245	-14.3036	218.611	0.442873	0.0164121	8.82864	0.538889	1	37	0.00520451	0.00142885	0	0.000104792	1.03052	0.657299	19.4575	1.39623e-05	2.66453e-05	8.00836e-06	2.19125e-05	3.01585e-05	1.82617e-05	0.647646	0.304399	12.3451	2.64077e-06	4.34076e-06	3.43859e-06	2.89036e-06	3.16349e-06	4.09086e-06	0.26603	0.0678281	0.274541	14.3036	538.889	2113.59	2181.2	-75.6964	0.0000000E+000	0.0000000E+000	0.0000000E+000	75.6964	0.0000000E+000	0.0000000E+000	0.0000000E+000	-75.6964	0.0000000E+000	0.0000000E+000	0.0000000E+000	-14.3036	0.0000000E+000	0.0000000E+000	0.0000000E+000	14.3036	3.92212	75.6964	4.43189e-06
15912.6	3.58892	1.03746	3.73587	-16.1231	219.759	0.442855	0.0130807	9.64067	0.743475	1	37	0.00509917	0.00136492	0	0.000107812	1.10917	0.589757	20.0243	1.13737e-05	2.40483e-05	1.67577e-05	3.13037e-05	2.04102e-05	1.95974e-05	0.712009	0.499731	12.901	6.78164e-06	2.16304e-06	3.46675e-06	3.29244e-06	1.71589e-06	3.55814e-06	0.257147	0.0743342	0.267676	16.1231	743.475	2571.93	2677.24	-73.8769	0.0000000E+000	0.0000000E+000	0.0000000E+000	73.8769	0.0000000E+000	0.0000000E+000	0.0000000E+000	-73.8769	0.0000000E+000	0.0000000E+000	0.0000000E+000	-16.1231	0.0000000E+000	0.0000000E+000	0.0000000E+000	16.1231	3.45934	73.8769	3.02e-06
12637.3	3.64638	1.24147	3.85193	-18.802	220.907	0.442875	0.0177707	10.1444	1.05377	1	37	0.00515137	0.00133735	0	0.000114185	1.14258	0.514389	19.561	1.7222e-05	1.89694e-05	3.13413e-05	2.20616e-05	1.88962e-05	1.49845e-05	0.628535	0.415291	13.2614	1.55458e-06	4.17144e-06	3.13869e-06	2.76608e-06	3.99932e-06	2.50132e-06	0.245757	0.0836722	0.25961	18.802	1053.77	3095.07	3269.54	-71.198	0.0000000E+000	0.0000000E+000	0.0000000E+000	71.198	0.0000000E+000	0.0000000E+000	0.0000000E+000	-71.198	0.0000000E+000	0.0000000E+000	0.0000000E+000	-18.802	0.0000000E+000	0.0000000E+000	0.0000000E+000	18.802	2.93714	71.198	6.37276e-06
10039.3	3.70935	1.48627	3.99603	-21.8351	222.056	0.442878	0.0218094	10.6664	1.47555	1	37	0.00497178	0.00124418	0	0.000118515	1.09458	0.602404	20.3673	2.34716e-05	8.90884e-06	1.94291e-05	3.46018e-05	1.99361e-05	9.58372e-06	0.796365	0.592859	14.3254	3.49479e-06	3.47787e-06	3.43313e-06	2.43087e-06	4.12347e-06	4.76153e-06	0.232295	0.0930763	0.250248	21.8351	1475.55	3682.6	3967.22	-68.1649	0.0000000E+000	0.0000000E+000	0.0000000E+000	68.1649	0.0000000E+000	0.0000000E+000	0.0000000E+000	-68.1649	0.0000000E+000	0.0000000E+000	0.0000000E+000	-21.8351	0.0000000E+000	0.0000000E+000	0.0000000E+000	21.8351	2.49575	68.1649	4.33024e-06
7967.67	3.77924	1.76454	4.17088	-25.028	223.233	0.442732	0.0173985	11.3203	2.02612	1	37	0.00507465	0.00121668	0	0.000123944	0.93224	0.492656	20.3174	1.75315e-05	2.08469e-05	1.64962e-05	2.11714e-05	1.83475e-05	1.14003e-05	0.756954	0.429328	14.6741	2.50121e-06	4.10629e-06	3.0219e-06	4.10919e-06	3.24714e-06	4.21322e-06	0.217244	0.101432	0.239757	25.028	2026.12	4339.48	4789.18	-64.972	0.0000000E+000	0.0000000E+000	0.0000000E+000	64.972	0.0000000E+000	0.0000000E+000	0.0000000E+000	-64.972	0.0000000E+000	0.0000000E+000	0.0000000E+000	-25.028	0.0000000E+000	0.0000000E+000	0.0000000E+000	25.028	2.14177	64.972	5.42848e-06
6332.63	3.88178	2.13687	4.43107	-28.8323	224.503	0.442734	0.0036398	11.7614	2.73525	1	38	0.0047722	0.00107699	0	0.000125626	1.15496	0.5789	20.3276	7.19992e-06	1.60631e-05	2.48537e-05	1.80987e-05	2.99486e-05	2.17174e-05	0.155412	0.0868509	2.69693	4.28978e-07	7.0892e-07	8.72229e-07	6.49842e-07	5.21431e-07	5.8473e-07	0.197703	0.108833	0.225679	28.8323	2735.25	4968.77	5671.88	-61.1677	0.0000000E+000	0.0000000E+000	0.0000000E+000	61.1677	0.0000000E+000	0.0000000E+000	0.0000000E+000	-61.1677	0.0000000E+000	0.0000000E+000	0.0000000E+000	-28.8323	0.0000000E+000	0.0000000E+000	0.0000000E+000	28.8323	1.81657	61.1677	1.68282e-06
5028.39	3.98217	2.60486	4.75847	-33.19	225.624	0.442728	0.00433244	12.1508	3.64118	1	38	0.0054835	0.00115237	0	0.000127451	1.06443	0.558921	17.7543	1.75967e-05	1.39123e-05	2.77068e-05	1.88592e-05	1.54108e-05	3.5991e-05	0.170011	0.0519682	2.66153	1.05249e-06	6.8273e-07	8.41312e-07	5.52017e-07	5.33287e-07	7.88648e-07	0.175868	0.115041	0.210152	33.19	3641.18	5566.44	6651.57	-56.81	0.0000000E+000	0.0000000E+000	0.0000000E+000	56.81	0.0000000E+000	0.0000000E+000	0.0000000E+000	-56.81	0.0000000E+000	0.0000000E+000	0.0000000E+000	-33.19	0.0000000E+000	0.0000000E+000	0.0000000E+000	33.19	1.52875	56.81	1.82444e-06
3993.72	4.10114	3.14899	5.17064	-37.5182	226.951	0.442755	0.0029062	12.6553	4.69381	1	38	0.00518891	0.00100353	0	0.000129182	1.07689	0.444281	18.9836	1.79437e-05	1.78955e-05	2.48335e-05	2.3108e-05	1.91885e-05	2.28709e-05	0.194003	0.108678	2.9538	1.03294e-06	4.98333e-07	5.78815e-07	1.04208e-06	7.01996e-07	6.13514e-07	0.153397	0.117783	0.1934	37.5182	4693.81	6113.07	7707.23	-52.4818	0.0000000E+000	0.0000000E+000	0.0000000E+000	52.4818	0.0000000E+000	0.0000000E+000	0.0000000E+000	-52.4818	0.0000000E+000	0.0000000E+000	0.0000000E+000	-37.5182	0.0000000E+000	0.0000000E+000	0.0000000E+000	37.5182	1.30237	52.4818	1.7309e-06
3171.96	4.26379	3.82051	5.72505	-41.8615	228.057	0.442752	0.00380737	13.1332	5.84865	1	38	0.0052757	0.000921511	0	0.000130929	0.932318	0.503512	18.5603	1.28698e-05	2.38152e-05	1.47869e-05	1.8328e-05	1.73442e-05	2.23964e-05	0.269795	0.118096	3.21394	1.71036e-06	7.53416e-07	4.01476e-07	1.20794e-06	5.71327e-07	5.55351e-07	0.130088	0.116564	0.174671	41.8615	5848.65	6527.24	8764.22	-48.1385	0.0000000E+000	0.0000000E+000	0.0000000E+000	48.1385	0.0000000E+000	0.0000000E+000	0.0000000E+000	-48.1385	0.0000000E+000	0.0000000E+000	0.0000000E+000	-41.8615	0.0000000E+000	0.0000000E+000	0.0000000E+000	41.8615	1.11603	48.1385	1.7474e-06
2519.19	4.4563	4.7044	6.47997	-46.5514	229.163	0.442739	0.00318548	13.4293	7.07811	1	38	0.00521987	0.000805539	0	0.0001313	0.894249	0.650632	18.492	2.07445e-05	9.07133e-06	1.93129e-05	1.53686e-05	2.22401e-05	1.53918e-05	0.356258	0.152417	3.68364	2.35435e-06	8.09532e-07	3.60092e-07	8.18148e-07	6.74514e-07	6.54353e-07	0.106128	0.112036	0.154322	46.5514	7078.11	6704.82	9749.58	-43.4486	0.0000000E+000	0.0000000E+000	0.0000000E+000	43.4486	0.0000000E+000	0.0000000E+000	0.0000000E+000	-43.4486	0.0000000E+000	0.0000000E+000	0.0000000E+000	-46.5514	0.0000000E+000	0.0000000E+000	0.0000000E+000	46.5514	0.947261	43.4486	3.70973e-07
2001.92	4.67492	5.74108	7.4037	-50.8443	230.266	0.442748	0.00286336	13.8478	8.32663	1	38	0.00507173	0.000685026	0	0.00013277	1.05003	0.515419	19.0559	1.37172e-05	1.02016e-05	2.9319e-05	1.55522e-05	2.63065e-05	2.05105e-05	0.351802	0.118782	4.21662	1.61654e-06	1.05396e-06	7.30769e-07	5.08463e-07	6.50888e-07	2.87195e-07	0.0852856	0.104736	0.135068	50.8443	8326.63	6780.31	10738	-39.1557	0.0000000E+000	0.0000000E+000	0.0000000E+000	39.1557	0.0000000E+000	0.0000000E+000	0.0000000E+000	-39.1557	0.0000000E+000	0.0000000E+000	0.0000000E+000	-50.8443	0.0000000E+000	0.0000000E+000	0.0000000E+000	50.8443	0.814292	39.1557	1.46965e-06
1589.49	5.04866	7.00766	8.63692	-54.2292	231.374	0.442731	0.00300673	14.2886	9.40627	1	38	0.00495442	0.000573633	0	0.000133194	1.18775	0.51203	21.2618	2.69486e-05	1.22105e-05	2.36716e-05	2.72792e-05	2.05257e-05	2.21786e-05	0.398946	0.0962583	5.07733	1.78885e-06	9.71398e-07	3.64709e-07	5.10003e-07	3.28552e-07	4.91677e-07	0.0676798	0.0939411	0.115782	54.2292	9406.27	6776.74	11593.2	-35.7708	0.0000000E+000	0.0000000E+000	0.0000000E+000	35.7708	0.0000000E+000	0.0000000E+000	0.0000000E+000	-35.7708	0.0000000E+000	0.0000000E+000	0.0000000E+000	-54.2292	0.0000000E+000	0.0000000E+000	0.0000000E+000	54.2292	0.720449	35.7708	4.24554e-07
1262.98	5.48674	8.57915	10.1836	-57.3993	232.48	0.442718	0.00350945	14.6886	10.4247	1	38	0.0048441	0.000475676	0	0.000133601	1.06352	0.740382	20.5685	1.06699e-05	1.43665e-05	2.2048e-05	2.02579e-05	2.37588e-05	2.56593e-05	0.568273	0.181796	6.18419	1.69994e-06	1.33221e-06	5.68995e-07	1.00795e-06	4.12178e-07	4.41124e-07	0.0529066	0.0827256	0.0981969	57.3993	10424.7	6667.06	12374.3	-32.6007	0.0000000E+000	0.0000000E+000	0.0000000E+000	32.6007	0.0000000E+000	0.0000000E+000	0.0000000E+000	-32.6007	0.0000000E+000	0.0000000E+000	0.0000000E+000	-57.3993	0.0000000E+000	0.0000000E+000	0.0000000E+000	57.3993	0.639544	32.6007	4.06513e-07
1002.75	6.11844	10.4551	12.1138	-59.6634	233.588	0.442756	0.0032674	15.1809	11.3082	1	38	0.00476073	0.000392999	0	0.000134255	1.08052	0.742342	21.1799	1.75085e-05	7.54663e-06	2.59344e-05	2.62709e-05	1.34215e-05	1.91068e-05	0.521	0.217234	7.49178	1.31362e-06	9.32077e-07	3.58605e-07	9.48938e-07	3.92953e-07	4.68038e-07	0.0416944	0.0712469	0.0825502	59.6634	11308.2	6617.66	13102.2	-30.3366	0.0000000E+000	0.0000000E+000	0.0000000E+000	30.3366	0.0000000E+000	0.0000000E+000	0.0000000E+000	-30.3366	0.0000000E+000	0.0000000E+000	0.0000000E+000	-59.6634	0.0000000E+000	0.0000000E+000	0.0000000E+000	59.6634	0.585209	30.3366	6.53922e-07
796.787	6.91765	12.7389	14.496	-61.4966	234.693	0.442732	0.00328974	15.68	12.1092	1	38	0.00470724	0.000324727	0	0.000135225	1.14514	0.612659	20.8334	1.589e-05	1.62162e-05	2.03229e-05	2.23137e-05	2.20521e-05	2.4552e-05	0.644703	0.202272	8.91333	1.22389e-06	9.17807e-07	6.14534e-07	9.82439e-07	3.91649e-07	4.82367e-07	0.0329203	0.060623	0.0689847	61.4966	12109.2	6575.69	13779.4	-28.5034	0.0000000E+000	0.0000000E+000	0.0000000E+000	28.5034	0.0000000E+000	0.0000000E+000	0.0000000E+000	-28.5034	0.0000000E+000	0.0000000E+000	0.0000000E+000	-61.4966	0.0000000E+000	0.0000000E+000	0.0000000E+000	61.4966	0.543034	28.5034	9.70537e-07
632.773	8.04504	15.5453	17.5037	-62.6375	235.801	0.442749	0.00547192	16.1798	12.7618	1	38	0.00468408	0.000267605	0	0.000136844	1.18308	0.499578	20.8414	1.35418e-05	2.78033e-05	2.1651e-05	1.21972e-05	2.16022e-05	2.41131e-05	0.91326	0.360426	10.8787	1.29438e-06	8.80001e-07	8.11716e-07	1.12122e-06	6.86486e-07	6.1183e-07	0.0262584	0.0507388	0.0571308	62.6375	12761.8	6604.51	14369.5	-27.3625	0.0000000E+000	0.0000000E+000	0.0000000E+000	27.3625	0.0000000E+000	0.0000000E+000	0.0000000E+000	-27.3625	0.0000000E+000	0.0000000E+000	0.0000000E+000	-62.6375	0.0000000E+000	0.0000000E+000	0.0000000E+000	62.6375	0.517522	27.3625	1.61871e-06
502.588	9.60287	18.6292	20.9586	-62.73	236.909	0.442779	0.00722959	16.9987	13.4301	1	38	0.00463274	0.000221043	0	0.000138509	1.30941	0.6644	21.0521	1.75825e-05	1.28818e-05	3.10169e-05	2.21547e-05	1.9704e-05	2.85782e-05	1.05634	0.462321	13.2754	1.45107e-06	9.40799e-07	7.64963e-07	1.05765e-06	5.91255e-07	2.51659e-07	0.0218614	0.0424102	0.0477132	62.73	13430.1	6922.88	15109.4	-27.27	0.0000000E+000	0.0000000E+000	0.0000000E+000	27.27	0.0000000E+000	0.0000000E+000	0.0000000E+000	-27.27	0.0000000E+000	0.0000000E+000	0.0000000E+000	-62.73	0.0000000E+000	0.0000000E+000	0.0000000E+000	62.73	0.515475	27.27	1.66462e-06
399.106	11.6774	22.5571	25.4005	-62.6303	238.017	0.442798	0.00666356	17.6786	13.9422	1	38	0.00463442	0.000182454	0	0.000140313	1.38325	0.760395	21.288	3.27842e-05	2.52069e-05	2.17132e-05	1.89615e-05	1.85876e-05	1.4242e-05	1.19143	0.328958	15.8976	1.4156e-06	1.05905e-06	6.98347e-07	7.97881e-07	4.45764e-07	2.7789e-07	0.0180992	0.0349623	0.0393693	62.6303	13942.2	7217.59	15699.6	-27.3697	0.0000000E+000	0.0000000E+000	0.0000000E+000	27.3697	0.0000000E+000	0.0000000E+000	0.0000000E+000	-27.3697	0.0000000E+000	0.0000000E+000	0.0000000E+000	-62.6303	0.0000000E+000	0.0000000E+000	0.0000000E+000	62.6303	0.517679	27.3697	1.80461e-06
316.927	14.3541	26.9437	30.5287	-61.9538	239.372	0.442756	0.00317923	18.6382	14.5178	1	39	0.00478189	0.000156636	0	0.00014165	1.25947	0.414318	22.0129	1.58293e-05	2.42045e-05	3.58398e-05	1.51537e-05	2.79679e-05	1.81112e-05	0.841649	0.236891	8.19417	8.81939e-07	3.48886e-07	3.51842e-07	6.9856e-07	3.10372e-07	3.32334e-07	0.0154013	0.0289095	0.032756	61.9538	14517.8	7734.27	16449.5	-28.0462	0.0000000E+000	0.0000000E+000	0.0000000E+000	28.0462	0.0000000E+000	0.0000000E+000	0.0000000E+000	-28.0462	0.0000000E+000	0.0000000E+000	0.0000000E+000	-61.9538	0.0000000E+000	0.0000000E+000	0.0000000E+000	61.9538	0.532743	28.0462	1.33719e-06
251.853	18.2094	31.7069	36.5638	-60.1311	240.474	0.442743	0.00328901	19.9305	14.9873	1	39	0.00472487	0.000129223	0	0.000142661	1.17532	0.624551	21.6994	2.76503e-05	1.62776e-05	1.40822e-05	3.06871e-05	2.23079e-05	1.24027e-05	1.03582	0.347375	9.68327	9.19248e-07	3.00012e-07	1.0783e-07	7.37567e-07	3.57466e-07	2.57428e-07	0.0136205	0.0237166	0.0273495	60.1311	14987.3	8607.25	17283.1	-29.8689	0.0000000E+000	0.0000000E+000	0.0000000E+000	29.8689	0.0000000E+000	0.0000000E+000	0.0000000E+000	-29.8689	0.0000000E+000	0.0000000E+000	0.0000000E+000	-60.1311	0.0000000E+000	0.0000000E+000	0.0000000E+000	60.1311	0.574302	29.8689	1.01066e-06
199.936	22.8909	36.5387	43.1169	-57.9336	241.582	0.442727	0.00325248	21.7859	15.6454	1	39	0.00465305	0.000107917	0	0.000143779	1.34097	0.568993	23.1115	2.28715e-05	2.83213e-05	3.02871e-05	2.67139e-05	1.69152e-05	1.9401e-05	1.07549	0.432462	12.2737	4.43884e-07	3.05232e-07	5.81136e-07	7.17103e-07	2.78016e-07	1.54121e-07	0.0123131	0.0196543	0.0231927	57.9336	15645.4	9801.55	18462.1	-32.0664	0.0000000E+000	0.0000000E+000	0.0000000E+000	32.0664	0.0000000E+000	0.0000000E+000	0.0000000E+000	-32.0664	0.0000000E+000	0.0000000E+000	0.0000000E+000	-57.9336	0.0000000E+000	0.0000000E+000	0.0000000E+000	57.9336	0.626482	32.0664	1.11743e-06
158.831	28.9123	41.7626	50.7941	-55.3051	242.693	0.44274	0.00303777	23.9938	16.2199	1	39	0.00463835	9.13168e-05	0	0.000144598	1.08863	0.727893	22.9756	1.53709e-05	1.43019e-05	1.80442e-05	2.75611e-05	2.24237e-05	1.77528e-05	0.873934	0.379306	13.8903	4.8984e-07	3.00981e-07	1.86853e-07	3.66112e-07	2.91815e-07	1.41184e-07	0.0112062	0.0161868	0.0196873	55.3051	16219.9	11229	19727.5	-34.6949	0.0000000E+000	0.0000000E+000	0.0000000E+000	34.6949	0.0000000E+000	0.0000000E+000	0.0000000E+000	-34.6949	0.0000000E+000	0.0000000E+000	0.0000000E+000	-55.3051	0.0000000E+000	0.0000000E+000	0.0000000E+000	55.3051	0.692302	34.6949	8.1987e-07
126.171	36.2774	47.0071	59.3777	-52.3411	243.793	0.442737	0.00321464	26.8347	16.8181	1	39	0.00463572	7.80717e-05	0	0.000145626	1.03888	0.540074	23.1129	1.25139e-05	2.64215e-05	2.11473e-05	1.72369e-05	1.46935e-05	1.38806e-05	0.741326	0.351804	16.7068	2.59702e-07	2.95265e-07	2.04897e-07	2.1327e-07	1.15885e-07	1.85514e-07	0.0102894	0.0133326	0.0168413	52.3411	16818.1	12979.2	21244	-37.6589	0.0000000E+000	0.0000000E+000	0.0000000E+000	37.6589	0.0000000E+000	0.0000000E+000	0.0000000E+000	-37.6589	0.0000000E+000	0.0000000E+000	0.0000000E+000	-52.3411	0.0000000E+000	0.0000000E+000	0.0000000E+000	52.3411	0.771744	37.6589	1.02791e-06
100.224	44.5361	51.3893	68.0024	-49.0864	244.899	0.442733	0.00337138	30.9011	17.647	1	39	0.00461241	6.78272e-05	0	0.000146667	1.22695	0.642909	23.2267	1.88916e-05	3.32977e-05	1.19917e-05	1.89609e-05	1.86655e-05	1.99092e-05	1.20549	0.464151	19.1896	4.41057e-07	2.37232e-07	1.89981e-07	4.45147e-07	2.17541e-07	2.90811e-07	0.00963084	0.0111128	0.0147054	49.0864	17647	15293.6	23351.9	-40.9136	0.0000000E+000	0.0000000E+000	0.0000000E+000	40.9136	0.0000000E+000	0.0000000E+000	0.0000000E+000	-40.9136	0.0000000E+000	0.0000000E+000	0.0000000E+000	-49.0864	0.0000000E+000	0.0000000E+000	0.0000000E+000	49.0864	0.866642	40.9136	1.04077e-06
79.6177	53.5127	55.0613	76.7812	-45.8171	245.982	0.442744	0.003248	36.3048	18.6701	1	39	0.00460008	5.99115e-05	0	0.000147679	1.17714	0.734418	23.8071	3.07047e-05	1.75143e-05	2.30087e-05	2.10985e-05	1.21571e-05	1.39267e-05	1.39042	0.672328	22.1343	5.49444e-07	2.70555e-07	3.65677e-07	2.25764e-07	1.1192e-07	1.92361e-07	0.00907709	0.00933977	0.013024	45.8171	18670.1	18145	26034.9	-44.1829	0.0000000E+000	0.0000000E+000	0.0000000E+000	44.1829	0.0000000E+000	0.0000000E+000	0.0000000E+000	-44.1829	0.0000000E+000	0.0000000E+000	0.0000000E+000	-45.8171	0.0000000E+000	0.0000000E+000	0.0000000E+000	45.8171	0.971876	44.1829	1.0123e-06
63.2394	64.9271	58.0905	87.1208	-41.8191	247.063	0.442751	0.00332628	43.3238	19.2617	1	39	0.00461451	5.29668e-05	0	0.000148639	1.1118	0.576786	23.3584	1.20627e-05	1.80673e-05	1.7741e-05	2.8854e-05	2.17924e-05	1.72811e-05	0.997615	0.617574	24.6352	1.95417e-07	1.52221e-07	1.61828e-07	2.8468e-07	2.05134e-07	1.73376e-07	0.00855425	0.00765352	0.0114783	41.8191	19261.7	21528.5	28887.5	-48.1809	0.0000000E+000	0.0000000E+000	0.0000000E+000	48.1809	0.0000000E+000	0.0000000E+000	0.0000000E+000	-48.1809	0.0000000E+000	0.0000000E+000	0.0000000E+000	-41.8191	0.0000000E+000	0.0000000E+000	0.0000000E+000	41.8191	1.11769	48.1809	9.60083e-07
50.2089	74.6333	59.0604	95.1749	-38.356	248.128	0.442755	0.00332889	53.6715	20.6677	1	39	0.00459744	4.83052e-05	0	0.000149592	1.25487	0.621584	23.0678	2.10368e-05	1.70156e-05	2.68449e-05	2.79878e-05	1.75099e-05	2.14952e-05	1.45918	0.708709	26.5486	2.47888e-07	2.34251e-07	2.898e-07	3.2573e-07	3.17353e-07	2.16216e-07	0.00823925	0.00652006	0.010507	38.356	20667.7	26117.3	33305.6	-51.644	0.0000000E+000	0.0000000E+000	0.0000000E+000	51.644	0.0000000E+000	0.0000000E+000	0.0000000E+000	-51.644	0.0000000E+000	0.0000000E+000	0.0000000E+000	-38.356	0.0000000E+000	0.0000000E+000	0.0000000E+000	38.356	1.26368	51.644	9.52078e-07
39.8851	86.0167	59.6186	104.658	-34.726	249.197	0.442753	0.00333057	66.931	21.7194	1	39	0.00460118	4.3964e-05	0	0.000150652	1.05246	0.255491	22.6575	1.58703e-05	1.727e-05	2.21566e-05	1.78423e-05	2.23208e-05	1.65492e-05	1.34504	0.764802	28.3901	2.24071e-07	1.42331e-07	1.99341e-07	1.74907e-07	3.08234e-07	2.17216e-07	0.00785308	0.005443	0.00955495	34.726	21719.4	31336.4	38127.4	-55.274	0.0000000E+000	0.0000000E+000	0.0000000E+000	55.274	0.0000000E+000	0.0000000E+000	0.0000000E+000	-55.274	0.0000000E+000	0.0000000E+000	0.0000000E+000	-34.726	0.0000000E+000	0.0000000E+000	0.0000000E+000	34.726	1.44278	55.274	1.06048e-06
31.6723	96.4726	60.5075	113.878	-32.0959	250.238	0.442768	0.00310449	83.0485	23.4462	1	39	0.0046205	4.05743e-05	0	0.000151595	1.10669	0.923764	22.3105	1.5908e-05	2.9417e-05	1.208e-05	2.31027e-05	2.05291e-05	1.39856e-05	1.8863	1.10916	31.0709	2.65228e-07	2.52008e-07	2.52927e-07	4.20561e-07	3.44079e-07	2.31301e-07	0.00743921	0.00466587	0.00878135	32.0959	23446.2	37382.5	44126.8	-57.9041	0.0000000E+000	0.0000000E+000	0.0000000E+000	57.9041	0.0000000E+000	0.0000000E+000	0.0000000E+000	-57.9041	0.0000000E+000	0.0000000E+000	0.0000000E+000	-32.0959	0.0000000E+000	0.0000000E+000	0.0000000E+000	32.0959	1.59439	57.9041	9.42817e-07
25.1691	105.692	58.2498	120.681	-28.8604	251.304	0.442732	0.00343401	108.557	25.2913	1	39	0.00459958	3.81137e-05	0	0.000152662	0.934437	0.623819	22.0517	1.21916e-05	2.08578e-05	1.96786e-05	1.81864e-05	1.23059e-05	1.31427e-05	1.43867	0.73043	32.3378	1.91452e-07	3.13308e-07	1.73751e-07	2.14024e-07	1.40398e-07	2.19349e-07	0.00725716	0.00399963	0.00828634	28.8604	25291.3	45890.1	52398	-61.1396	0.0000000E+000	0.0000000E+000	0.0000000E+000	61.1396	0.0000000E+000	0.0000000E+000	0.0000000E+000	-61.1396	0.0000000E+000	0.0000000E+000	0.0000000E+000	-28.8604	0.0000000E+000	0.0000000E+000	0.0000000E+000	28.8604	1.81446	61.1396	1.06737e-06
19.9808	115.145	57.4461	128.68	-26.5147	252.372	0.442732	0.00346122	138.658	27.6343	1	39	0.00461225	3.58429e-05	0	0.000153626	1.28415	0.719445	22.4041	1.66526e-05	2.66191e-05	1.84839e-05	3.02216e-05	1.78952e-05	2.25681e-05	2.62382	1.29154	35.0567	3.00541e-07	5.2232e-07	4.09552e-07	4.0381e-07	1.9072e-07	2.77262e-07	0.00695386	0.0034693	0.00777124	26.5147	27634.3	55390.2	61900.9	-63.4853	0.0000000E+000	0.0000000E+000	0.0000000E+000	63.4853	0.0000000E+000	0.0000000E+000	0.0000000E+000	-63.4853	0.0000000E+000	0.0000000E+000	0.0000000E+000	-26.5147	0.0000000E+000	0.0000000E+000	0.0000000E+000	26.5147	2.0044	63.4853	9.6382e-07
15.879	122.206	54.6845	133.883	-24.1075	253.41	0.442751	0.00335461	183.287	30.578	1	39	0.00458352	3.42353e-05	0	0.000154716	0.950208	0.686228	22.601	2.09558e-05	9.91567e-06	1.05221e-05	1.5486e-05	1.6253e-05	1.29657e-05	1.7949	0.902127	36.8078	6.35932e-08	3.48178e-07	1.19357e-07	2.1452e-07	3.30404e-07	1.56053e-07	0.00681775	0.00305079	0.0074692	24.1075	30577.9	68333.9	74863.4	-65.8925	0.0000000E+000	0.0000000E+000	0.0000000E+000	65.8925	0.0000000E+000	0.0000000E+000	0.0000000E+000	-65.8925	0.0000000E+000	0.0000000E+000	0.0000000E+000	-24.1075	0.0000000E+000	0.0000000E+000	0.0000000E+000	24.1075	2.23475	65.8925	1.08997e-06
12.6144	131.358	54.8834	142.362	-22.676	254.87	0.442745	0.00321559	229.887	34.1669	1	40	0.00460871	3.23731e-05	0	0.000155661	1.61764	0.808476	29.53	1.52503e-05	3.40497e-05	2.53941e-05	2.77888e-05	2.73451e-05	3.22174e-05	0.379252	0.145832	5.55916	7.21078e-08	5.52839e-08	4.559e-08	4.55329e-08	3.11702e-08	2.29134e-08	0.00648135	0.00270801	0.00702433	22.676	34166.9	81775	88625.7	-67.324	0.0000000E+000	0.0000000E+000	0.0000000E+000	67.324	0.0000000E+000	0.0000000E+000	0.0000000E+000	-67.324	0.0000000E+000	0.0000000E+000	0.0000000E+000	-22.676	0.0000000E+000	0.0000000E+000	0.0000000E+000	22.676	2.3934	67.324	9.45012e-07
10.016	139.667	54.487	149.919	-21.3118	255.93	0.442736	0.00326091	291.629	38.5214	1	40	0.00463244	3.08996e-05	0	0.000156811	2.10678	1.09769	41.8499	4.4325e-05	3.22906e-05	3.0349e-05	2.05653e-05	4.87788e-05	4.02055e-05	0.48254	0.260678	8.2098	8.89148e-08	4.6296e-08	3.45267e-08	3.49125e-08	5.32986e-08	7.00675e-08	0.00621412	0.00242426	0.00667026	21.3118	38521.4	98742.5	105990	-68.6882	0.0000000E+000	0.0000000E+000	0.0000000E+000	68.6882	0.0000000E+000	0.0000000E+000	0.0000000E+000	-68.6882	0.0000000E+000	0.0000000E+000	0.0000000E+000	-21.3118	0.0000000E+000	0.0000000E+000	0.0000000E+000	21.3118	2.56331	68.6882	1.15001e-06
7.95573	146.05	53.086	155.399	-19.9751	257.137	0.442751	0.00325435	376.843	43.9769	1	40	0.00460299	2.96205e-05	0	0.0001578	1.47436	0.80516	30.1051	3.0764e-05	1.84922e-05	2.87463e-05	3.15229e-05	1.79232e-05	2.57291e-05	0.459964	0.188481	6.20904	8.39365e-08	2.71559e-08	4.6395e-08	7.03144e-08	3.78707e-08	3.55831e-08	0.00604793	0.00219829	0.00643505	19.9751	43976.9	120989	128734	-70.0249	0.0000000E+000	0.0000000E+000	0.0000000E+000	70.0249	0.0000000E+000	0.0000000E+000	0.0000000E+000	-70.0249	0.0000000E+000	0.0000000E+000	0.0000000E+000	-19.9751	0.0000000E+000	0.0000000E+000	0.0000000E+000	19.9751	2.7512	70.0249	9.89403e-07
6.31569	154.362	52.5289	163.055	-18.7933	258.52	0.442733	0.0033883	479.735	49.7888	1	40	0.00463347	2.84167e-05	0	0.000158877	1.62636	0.969568	29.4878	2.37711e-05	1.96446e-05	4.2527e-05	2.92608e-05	2.93926e-05	2.37142e-05	0.494587	0.31551	6.34863	8.00865e-08	5.48871e-08	5.58778e-08	4.54459e-08	4.5227e-08	3.28967e-08	0.00580595	0.00197575	0.00613291	18.7933	49788.8	146310	154549	-71.2067	0.0000000E+000	0.0000000E+000	0.0000000E+000	71.2067	0.0000000E+000	0.0000000E+000	0.0000000E+000	-71.2067	0.0000000E+000	0.0000000E+000	0.0000000E+000	-18.7933	0.0000000E+000	0.0000000E+000	0.0000000E+000	18.7933	2.93861	71.2067	1.07701e-06
5.01766	158.977	53.2197	167.649	-18.5086	260.137	0.442718	0.00336332	596	60.0607	1	40	0.00457564	2.7293e-05	0	0.000160359	1.42187	0.975651	24.7073	2.94894e-05	3.00643e-05	1.73968e-05	2.22308e-05	2.49938e-05	2.43946e-05	0.446348	0.309299	5.48267	5.64628e-08	3.87404e-08	5.96997e-08	3.95467e-08	3.67951e-08	2.71469e-08	0.00565632	0.00189353	0.00596485	18.5086	60060.7	179413	189199	-71.4914	0.0000000E+000	0.0000000E+000	0.0000000E+000	71.4914	0.0000000E+000	0.0000000E+000	0.0000000E+000	-71.4914	0.0000000E+000	0.0000000E+000	0.0000000E+000	-18.5086	0.0000000E+000	0.0000000E+000	0.0000000E+000	18.5086	2.98719	71.4914	1.48198e-06
3.98597	167.438	54.4155	176.059	-18.0036	262.058	0.442742	0.00338427	733.775	70.0961	1	40	0.00460783	2.61721e-05	0	0.000162503	1.18913	0.567314	21.7006	2.60938e-05	2.00407e-05	2.29179e-05	2.14949e-05	2.36778e-05	1.48496e-05	0.461324	0.205303	5.01229	8.80199e-08	3.82625e-08	3.61697e-08	4.0816e-08	2.92462e-08	2.92914e-08	0.00540182	0.00175553	0.00567992	18.0036	70096.1	215688	226792	-71.9964	0.0000000E+000	0.0000000E+000	0.0000000E+000	71.9964	0.0000000E+000	0.0000000E+000	0.0000000E+000	-71.9964	0.0000000E+000	0.0000000E+000	0.0000000E+000	-18.0036	0.0000000E+000	0.0000000E+000	0.0000000E+000	18.0036	3.07703	71.9964	2.1435e-06
3.16616	175.477	55.0014	183.895	-17.403	264.364	0.442754	0.00342734	913.931	81.7559	1	40	0.0046021	2.50256e-05	0	0.000164261	1.20097	0.512259	18.9956	3.33289e-05	1.81519e-05	2.24316e-05	1.97091e-05	1.12577e-05	1.91722e-05	0.391387	0.206062	4.70453	7.10983e-08	2.24998e-08	2.8949e-08	3.62665e-08	1.46806e-08	2.01277e-08	0.00518895	0.00162642	0.00543788	17.403	81755.9	260836	273348	-72.597	0.0000000E+000	0.0000000E+000	0.0000000E+000	72.597	0.0000000E+000	0.0000000E+000	0.0000000E+000	-72.597	0.0000000E+000	0.0000000E+000	0.0000000E+000	-17.403	0.0000000E+000	0.0000000E+000	0.0000000E+000	17.403	3.19042	72.597	1.75797e-06
2.51368	183.848	56.9481	192.466	-17.2107	267.165	0.442749	0.0034989	1111.81	97.3376	1	40	0.00459043	2.38506e-05	0	0.000166966	0.752923	0.419428	15.8319	1.10791e-05	1.09937e-05	1.20265e-05	1.18454e-05	2.04171e-05	1.17716e-05	0.422714	0.177611	4.14669	8.32973e-08	2.83267e-08	1.56402e-08	2.28092e-08	2.77969e-08	1.57697e-08	0.00496307	0.00153734	0.00519571	17.2107	97337.6	314240	328970	-72.7893	0.0000000E+000	0.0000000E+000	0.0000000E+000	72.7893	0.0000000E+000	0.0000000E+000	0.0000000E+000	-72.7893	0.0000000E+000	0.0000000E+000	0.0000000E+000	-17.2107	0.0000000E+000	0.0000000E+000	0.0000000E+000	17.2107	3.22835	72.7893	2.70471e-06
1.99783	194.552	58.9247	203.28	-16.8502	270.586	0.442751	0.00352004	1351.96	113.598	1	40	0.00460373	2.26472e-05	0	0.00017035	0.885319	0.451667	14.0782	1.16253e-05	1.00531e-05	1.54182e-05	2.29132e-05	1.7824e-05	1.47773e-05	0.431628	0.141015	3.96472	7.78336e-08	2.6371e-08	1.66258e-08	2.87205e-08	2.9087e-08	1.88787e-08	0.00470812	0.00142597	0.00491933	16.8502	113598	375068	391893	-73.1498	0.0000000E+000	0.0000000E+000	0.0000000E+000	73.1498	0.0000000E+000	0.0000000E+000	0.0000000E+000	-73.1498	0.0000000E+000	0.0000000E+000	0.0000000E+000	-16.8502	0.0000000E+000	0.0000000E+000	0.0000000E+000	16.8502	3.30171	73.1498	3.38477e-06
1.5871	205.442	60.0246	214.032	-16.2869	274.795	0.442759	0.00355131	1670.65	131.398	1	40	0.00459127	2.14513e-05	0	0.000175522	0.74287	0.332173	12.618	1.12694e-05	1.69746e-05	1.55126e-05	9.76225e-06	1.5546e-05	7.90232e-06	0.61505	0.395984	3.78186	1.19397e-07	2.57363e-08	2.53909e-08	3.03295e-08	2.13841e-08	1.39975e-08	0.00448471	0.00131031	0.00467221	16.2869	131398	449728	468530	-73.7131	0.0000000E+000	0.0000000E+000	0.0000000E+000	73.7131	0.0000000E+000	0.0000000E+000	0.0000000E+000	-73.7131	0.0000000E+000	0.0000000E+000	0.0000000E+000	-16.2869	0.0000000E+000	0.0000000E+000	0.0000000E+000	16.2869	3.42264	73.7131	5.17121e-06
1.25968	218.109	58.5651	225.835	-15.0301	280	0.442753	0.00364681	2157.36	145.083	1	40	0.00459702	2.03556e-05	0	0.000179683	0.687867	0.306234	10.6726	1.22229e-05	1.07953e-05	9.41473e-06	1.52712e-05	7.46958e-06	1.31119e-05	0.480974	0.290375	3.43767	8.8574e-08	1.98719e-08	1.72239e-08	1.51861e-08	1.3748e-08	1.69576e-08	0.00427653	0.0011483	0.00442801	15.0301	145083	540321	559461	-74.9699	0.0000000E+000	0.0000000E+000	0.0000000E+000	74.9699	0.0000000E+000	0.0000000E+000	0.0000000E+000	-74.9699	0.0000000E+000	0.0000000E+000	0.0000000E+000	-15.0301	0.0000000E+000	0.0000000E+000	0.0000000E+000	15.0301	3.72422	74.9699	4.16176e-06
1.00122	230.301	56.4182	237.111	-13.765	288.5	0.44275	0.00377189	2817.56	159.518	1	41	0.0045919	1.93661e-05	0	0.000189274	0.633789	0.37354	12.8069	8.27278e-06	1.32996e-05	9.4119e-06	8.78078e-06	1.13229e-05	1.32106e-05	0.503167	0.188101	0.771726	9.31157e-08	1.66726e-08	3.87398e-09	2.05175e-08	5.38312e-09	6.48521e-09	0.00409631	0.0010035	0.00421744	13.765	159518	651156	670411	-76.235	0.0000000E+000	0.0000000E+000	0.0000000E+000	76.235	0.0000000E+000	0.0000000E+000	0.0000000E+000	-76.235	0.0000000E+000	0.0000000E+000	0.0000000E+000	-13.765	0.0000000E+000	0.0000000E+000	0.0000000E+000	13.765	4.08203	76.235	9.59063e-06
0.79456	242.639	50.614	247.862	-11.7828	296.514	0.44275	0.00381345	3957.52	165.023	1	41	0.00460128	1.85639e-05	0	0.000196062	0.683154	0.321832	11.1205	1.26402e-05	1.52806e-05	1.33187e-05	9.10901e-06	9.9924e-06	1.42695e-05	0.488225	0.193996	0.757854	8.63619e-08	1.57164e-08	9.02282e-09	1.73246e-08	6.65945e-09	2.66691e-09	0.0039495	0.000823858	0.00403451	11.7828	165023	791107	808136	-78.2172	0.0000000E+000	0.0000000E+000	0.0000000E+000	78.2172	0.0000000E+000	0.0000000E+000	0.0000000E+000	-78.2172	0.0000000E+000	0.0000000E+000	0.0000000E+000	-11.7828	0.0000000E+000	0.0000000E+000	0.0000000E+000	11.7828	4.79391	78.2172	6.78839e-06
0.631645	252.273	45.2458	256.299	-10.168	306.501	0.442745	0.00391584	5568.9	173.553	1	41	0.00459518	1.7929e-05	0	0.000208559	0.537847	0.352645	9.88795	9.11776e-06	6.51917e-06	1.00856e-05	1.40148e-05	8.2886e-06	7.72998e-06	0.579541	0.395304	0.759865	9.54702e-08	2.65883e-08	1.93335e-08	1.10738e-08	1.40046e-08	5.99436e-09	0.00384042	0.000688788	0.0039017	10.168	173553	967667	983107	-79.832	0.0000000E+000	0.0000000E+000	0.0000000E+000	79.832	0.0000000E+000	0.0000000E+000	0.0000000E+000	-79.832	0.0000000E+000	0.0000000E+000	0.0000000E+000	-10.168	0.0000000E+000	0.0000000E+000	0.0000000E+000	10.168	5.57562	79.832	1.24963e-05
0.501541	260.325	38.8428	263.207	-8.48642	318.993	0.442749	0.00404445	8169.65	177.922	1	41	0.00460002	1.74768e-05	0	0.000222931	0.437072	0.226324	8.94263	7.60143e-06	5.92631e-06	9.81797e-06	6.98748e-06	9.85293e-06	5.88087e-06	0.537728	0.14436	0.721398	9.09852e-08	1.39123e-08	5.28735e-09	1.43297e-08	7.56343e-09	5.2544e-09	0.00375769	0.00056068	0.00379929	8.48642	177922	1.19244e+06	1.20564e+06	-81.5136	0.0000000E+000	0.0000000E+000	0.0000000E+000	81.5136	0.0000000E+000	0.0000000E+000	0.0000000E+000	-81.5136	0.0000000E+000	0.0000000E+000	0.0000000E+000	-8.48642	0.0000000E+000	0.0000000E+000	0.0000000E+000	8.48642	6.70202	81.5136	1.43724e-05
0.398211	266.767	32.2861	268.713	-6.90079	334.643	0.442762	0.00422316	12379.2	178.708	1	41	0.00459421	1.70971e-05	0	0.000238599	0.428703	0.170907	7.91276	6.95935e-06	9.53796e-06	1.00864e-05	4.49393e-06	6.91923e-06	3.26408e-06	0.492866	0.196231	0.730365	7.84574e-08	1.76066e-08	7.07401e-09	1.98291e-08	9.0117e-09	5.68795e-09	0.00369448	0.000447133	0.00372144	6.90079	178708	1.47659e+06	1.48736e+06	-83.0992	0.0000000E+000	0.0000000E+000	0.0000000E+000	83.0992	0.0000000E+000	0.0000000E+000	0.0000000E+000	-83.0992	0.0000000E+000	0.0000000E+000	0.0000000E+000	-6.90079	0.0000000E+000	0.0000000E+000	0.0000000E+000	6.90079	8.2626	83.0992	1.56675e-05
0.316193	272.881	26.4311	274.158	-5.53237	354.268	0.442748	0.00445912	19043.8	177.003	1	41	0.00459891	1.67747e-05	0	0.000261476	0.316546	0.2182	6.99005	4.51332e-06	8.62377e-06	7.56613e-06	4.51659e-06	3.15851e-06	4.56033e-06	0.545651	0.215332	0.693835	8.25722e-08	1.78824e-08	1.82151e-08	2.574e-08	7.28762e-09	9.55026e-09	0.00363054	0.000351651	0.00364753	5.53237	177003	1.82742e+06	1.83597e+06	-84.4676	0.0000000E+000	0.0000000E+000	0.0000000E+000	84.4676	0.0000000E+000	0.0000000E+000	0.0000000E+000	-84.4676	0.0000000E+000	0.0000000E+000	0.0000000E+000	-5.53237	0.0000000E+000	0.0000000E+000	0.0000000E+000	5.53237	10.3242	84.4676	2.28778e-05
0.251222	277.422	21.7401	278.273	-4.48081	378.887	0.442753	0.00473596	29140.8	177.862	1	41	0.00459599	1.65162e-05	0	0.000295598	0.301109	0.119671	6.08376	5.22951e-06	7.11214e-06	5.49429e-06	3.58541e-06	5.21837e-06	4.09286e-06	0.513871	0.252671	0.674283	7.8551e-08	1.52002e-08	1.60448e-08	1.72649e-08	9.40415e-09	8.06603e-09	0.00358261	0.000280751	0.0035936	4.48081	177862	2.26967e+06	2.27663e+06	-85.5192	0.0000000E+000	0.0000000E+000	0.0000000E+000	85.5192	0.0000000E+000	0.0000000E+000	0.0000000E+000	-85.5192	0.0000000E+000	0.0000000E+000	0.0000000E+000	-4.48081	0.0000000E+000	0.0000000E+000	0.0000000E+000	4.48081	12.7608	85.5192	3.41212e-05
0.199573	282.042	17.5166	282.585	-3.55386	409.796	0.442762	0.00511277	45526.9	174.931	1	41	0.00459609	1.62644e-05	0	0.000341662	0.377933	0.131626	5.77949	5.14848e-06	8.27357e-06	5.52443e-06	7.97284e-06	5.83167e-06	7.21302e-06	0.571555	0.445016	0.955051	8.15617e-08	1.90149e-08	2.07438e-08	2.52667e-08	1.26732e-08	1.33926e-08	0.00353195	0.000219356	0.00353875	3.55386	174931	2.81664e+06	2.82207e+06	-86.4461	0.0000000E+000	0.0000000E+000	0.0000000E+000	86.4461	0.0000000E+000	0.0000000E+000	0.0000000E+000	-86.4461	0.0000000E+000	0.0000000E+000	0.0000000E+000	-3.55386	0.0000000E+000	0.0000000E+000	0.0000000E+000	3.55386	16.1014	86.4461	4.60642e-05
0.158419	286.837	14.0845	287.182	-2.81113	448.652	0.442742	0.00547825	71329.9	171.569	1	41	0.00459923	1.6015e-05	0	0.000400012	0.326035	0.194012	5.11217	4.5878e-06	9.6362e-06	5.40964e-06	4.13674e-06	3.56423e-06	5.58964e-06	0.463567	0.33243	0.634984	7.005e-08	8.82553e-09	6.65697e-09	1.34995e-08	6.85473e-09	1.24391e-08	0.00347792	0.000170776	0.00348211	2.81113	171570	3.49408e+06	3.49829e+06	-87.1889	0.0000000E+000	0.0000000E+000	0.0000000E+000	87.1889	0.0000000E+000	0.0000000E+000	0.0000000E+000	-87.1889	0.0000000E+000	0.0000000E+000	0.0000000E+000	-2.81113	0.0000000E+000	0.0000000E+000	0.0000000E+000	2.81113	20.3654	87.1889	5.83506e-05
0.125939	291.74	10.8865	291.943	-2.13704	497.449	0.442749	0.00598197	116084	161.418	1	41	0.00459531	1.57404e-05	0	0.000474944	0.30804	0.164179	4.58342	5.70962e-06	6.73959e-06	4.00673e-06	7.49206e-06	5.45737e-06	3.71897e-06	0.428623	0.45675	0.603573	5.56056e-08	2.91315e-08	1.29199e-08	8.70065e-09	1.11713e-08	1.03414e-08	0.00342294	0.00012773	0.00342532	2.13704	161418	4.32574e+06	4.32875e+06	-87.863	0.0000000E+000	0.0000000E+000	0.0000000E+000	87.863	0.0000000E+000	0.0000000E+000	0.0000000E+000	-87.863	0.0000000E+000	0.0000000E+000	0.0000000E+000	-2.13704	0.0000000E+000	0.0000000E+000	0.0000000E+000	2.13704	26.7983	87.863	7.49312e-05
0.0999518	298.248	8.36415	298.365	-1.6064	558.851	0.442751	0.00664231	190374	149.608	1	41	0.00459505	1.54007e-05	0	0.000578883	0.276383	0.164548	4.94384	3.80422e-06	7.59042e-06	3.4211e-06	5.23034e-06	5.85594e-06	2.60995e-06	0.627251	0.397252	0.580799	9.04161e-08	9.08064e-09	1.5254e-08	2.37743e-08	6.97795e-09	1.17273e-08	0.00335028	9.39561e-05	0.0033516	1.6064	149608	5.33471e+06	5.3368e+06	-88.3936	0.0000000E+000	0.0000000E+000	0.0000000E+000	88.3936	0.0000000E+000	0.0000000E+000	0.0000000E+000	-88.3936	0.0000000E+000	0.0000000E+000	0.0000000E+000	-1.6064	0.0000000E+000	0.0000000E+000	0.0000000E+000	1.6064	35.6579	88.3936	0.000103939