File: Python/Data/GoldElectrode/240313/240313-CVEIS_PostActivation-Fe2Fe3_5mM-HCl1M-0000RPM-Ag_AgCl_BLF8-Au_RDE_01_CV_C15.mpt
EC-Lab ASCII FILE
Nb header lines : 60

Cyclic Voltammetry

Run on channel : 15 (SN 19485)
User :
Electrode connection : standard
Potential control : Ewe
Ewe ctrl range : min = -1.00 V, max = 1.00 V
Ewe,I filtering : <None>
Safety Limits :
	Do not start on E overload
Channel : Floating
Acquisition started on : 03/13/2024 16:38:30.802
Loaded Setting File :  C:\Data\mathias\GoldElectrode\240308-CVEIS_PostActivation-Fe2Fe3_5mM-HCl1M-0RPM-Ag_AgCl_BLF8-Au_RDE-C15.mps
Saved on :
	File : 240313-CVEIS_PostActivation-Fe2Fe3_5mM-HCl1M-0RPM-Ag_AgCl_BLF8-Au_RDE_01_CV_C15.mpr
	Directory : C:\Data\mathias\GoldElectrode\
	Host : 192.168.0.1
Device : VMP-300 (SN 0826)
Address : USB
EC-Lab for windows v11.52 (software)
Internet server v11.52 (firmware)
Command interpretor v11.52 (firmware)
Electrode material :
Initial state :
Electrolyte :
Comments :
Cable : special
Electrode surface area : 0.001 cm²
Characteristic mass : 0.001 g
Equivalent Weight : 0.000 g/eq.
Density : 0.000 g/cm3
Volume (V) : 0.001 cm³
Record EIS quality indicators
Cycle Definition : Charge/Discharge alternance
Ei (V)              0.000
vs.                 Eoc
dE/dt               20.000
dE/dt unit          mV/s
E1 (V)              0.700
vs.                 Ref
Step percent        50
N                   10
E range min (V)     -1.000
E range max (V)     1.000
I Range             Auto
I Range min         Unset
I Range max         Unset
I Range init        Unset
Bandwidth           8
E2 (V)              0.000
vs.                 Ref
nc cycles           1
Reverse Scan        1
Ef (V)              0.000
vs.                 Eoc

mode	ox/red	error	control changes	counter inc.	time/s	control/V	Ewe/V	<I>/mA	cycle number	(Q-Qo)/C	I Range	step time/s	P/W
2	1	0	0	0	0.000000000000000E+000	0.454032	0.453635	0.0225157	1	0.0000000E+000	41	0.000000000000000E+000	1.02139e-05
2	1	0	1	0	0.2387	0.458804	0.458417	0.0488993	1	8.88861e-06	41	0.2249	2.24163e-05
2	1	0	1	0	0.4886	0.463802	0.463485	0.0679007	1	2.35942e-05	41	0.4748	3.1471e-05
2	1	0	1	0	0.7384	0.4688	0.4684	0.0829582	1	4.25014e-05	41	0.7246	3.88576e-05
2	1	0	1	0	0.9883	0.473797	0.473627	0.0950471	1	6.47998e-05	41	0.9745	4.50168e-05
2	1	0	1	0	1.2382	0.478795	0.478413	0.104839	1	8.98402e-05	41	1.2244	5.01564e-05
2	1	0	1	0	1.5181	0.484392	0.484265	0.112234	1	0.000120371	40	1.5043	5.4351e-05
2	1	0	1	0	1.768	0.489391	0.489122	0.117521	1	0.000149307	40	1.7542	5.74821e-05
2	1	0	1	0	2.0178	0.494388	0.494225	0.12094	1	0.000179308	40	2.004	5.97717e-05
2	1	0	1	0	2.2677	0.499385	0.499199	0.122825	1	0.000209972	40	2.2539	6.13141e-05
2	1	0	1	0	2.5176	0.504383	0.503986	0.123235	1	0.000240905	40	2.5038	6.21089e-05
2	1	0	1	0	2.7675	0.50938	0.509025	0.122504	1	0.00027181	40	2.7537	6.23575e-05
2	1	0	1	0	3.0174	0.514378	0.514081	0.120954	1	0.000302436	40	3.0036	6.21804e-05
2	1	0	1	0	3.2672	0.519376	0.51905	0.118613	1	0.000332556	40	3.2534	6.15659e-05
2	1	0	1	0	3.5171	0.524373	0.52408	0.115821	1	0.000362072	40	3.5033	6.06994e-05
2	1	0	1	0	3.767	0.529371	0.52894	0.112855	1	0.000390859	40	3.7532	5.96935e-05
2	1	0	1	0	4.0169	0.534369	0.533924	0.109491	1	0.000418854	40	4.0031	5.84597e-05
2	1	0	1	0	4.2668	0.539366	0.539156	0.106173	1	0.000446039	40	4.253	5.7244e-05
2	1	0	1	0	4.5166	0.544364	0.54401	0.102745	1	0.00047237	40	4.5028	5.58944e-05
2	1	0	1	0	4.7665	0.549361	0.548962	0.0994227	1	0.000497893	40	4.7527	5.45792e-05
2	1	0	1	0	5.0164	0.554359	0.55413	0.0962642	1	0.000522607	40	5.0026	5.33429e-05
2	1	0	1	0	5.2663	0.559357	0.559178	0.0929701	1	0.000546539	40	5.2525	5.19869e-05
2	1	0	1	0	5.5162	0.564354	0.563969	0.0902445	1	0.000569723	40	5.5024	5.08951e-05
2	1	0	1	0	5.766	0.569351	0.568913	0.0873688	1	0.000592185	40	5.7522	4.97052e-05
2	1	0	1	0	6.0159	0.57435	0.574114	0.0848062	1	0.00061398	40	6.0021	4.86884e-05
2	1	0	1	0	6.2658	0.579347	0.578847	0.0824247	1	0.00063515	40	6.252	4.77113e-05
2	1	0	1	0	6.5157	0.584345	0.584009	0.0800693	1	0.000655729	40	6.5019	4.67612e-05
2	1	0	1	0	6.7656	0.589342	0.589062	0.0779555	1	0.00067575	40	6.7518	4.59206e-05
2	1	0	1	0	7.0155	0.59434	0.594172	0.0757365	1	0.000695248	40	7.0017	4.50005e-05
2	1	0	1	0	7.2653	0.599338	0.598939	0.0740951	1	0.000714254	40	7.2515	4.43784e-05
2	1	0	1	0	7.5152	0.604335	0.604089	0.0724018	1	0.000732817	40	7.5014	4.37371e-05
2	1	0	1	0	7.7651	0.609333	0.608975	0.0706686	1	0.000750954	40	7.7513	4.30354e-05
2	1	0	1	0	8.015	0.614331	0.613994	0.0693572	1	0.000768705	40	8.0012	4.2585e-05
2	1	0	1	0	8.2649	0.619328	0.619018	0.068104	1	0.000786095	40	8.2511	4.21576e-05
2	1	0	1	0	8.5148	0.624328	0.624017	0.066773	1	0.000803146	40	8.501	4.16675e-05
2	1	0	1	0	8.7646	0.629323	0.628917	0.0656464	1	0.000819878	40	8.7508	4.12862e-05
2	1	0	1	0	9.0145	0.634321	0.633873	0.0645168	1	0.000836329	40	9.0007	4.08955e-05
2	1	0	1	0	9.2644	0.639319	0.639103	0.0637207	1	0.00085252	40	9.2506	4.07241e-05
2	1	0	1	0	9.5143	0.644316	0.643828	0.0628127	1	0.00086847	40	9.5005	4.04406e-05
2	1	0	1	0	9.7642	0.649314	0.648823	0.0619604	1	0.000884205	40	9.7504	4.02013e-05
2	1	0	1	0	10.014	0.654312	0.654148	0.0612746	1	0.000899744	40	10.0002	4.00826e-05
2	1	0	1	0	10.2639	0.659309	0.658887	0.060702	1	0.00091512	40	10.2501	3.99958e-05
2	1	0	1	0	10.5138	0.664307	0.664129	0.0601571	1	0.00093035	40	10.5	3.99521e-05
2	1	0	1	0	10.7637	0.669304	0.669134	0.0599093	1	0.000945465	40	10.7499	4.00874e-05
2	1	0	1	0	11.0136	0.674302	0.674076	0.0596913	1	0.000960493	40	10.9998	4.02365e-05
2	1	0	1	0	11.2634	0.6793	0.678922	0.059529	1	0.000975463	40	11.2496	4.04156e-05
2	1	0	1	0	11.5133	0.684297	0.684017	0.0595331	1	0.000990423	40	11.4995	4.07217e-05
2	1	0	1	0	11.7632	0.689295	0.688972	0.0597749	1	0.00100541	40	11.7494	4.11833e-05
2	1	0	1	0	12.0131	0.694293	0.6938	0.0601366	1	0.00102045	40	11.9993	4.17228e-05
2	1	0	1	0	12.263	0.69929	0.699053	0.060738	1	0.00103561	40	12.2492	4.24591e-05
2	1	0	1	0	12.4884	0.696242	0.695921	0.0559278	1	0.0010487	40	12.4746	3.89213e-05
2	1	0	1	0	12.7382	0.691244	0.690981	0.0529334	1	0.00106221	40	12.7244	3.6576e-05
2	1	0	1	0	12.9881	0.686246	0.685778	0.0510604	1	0.00107511	40	12.9743	3.50161e-05
2	1	0	1	0	13.238	0.681249	0.681141	0.0494467	1	0.00108758	40	13.2242	3.36802e-05
2	1	0	1	0	13.4879	0.676251	0.676003	0.0484405	1	0.00109972	40	13.4741	3.27459e-05
2	1	0	1	0	13.7378	0.671253	0.670946	0.0474439	1	0.00111161	40	13.724	3.18323e-05
2	1	0	1	0	13.9876	0.666256	0.66611	0.046671	1	0.00112328	40	13.9738	3.1088e-05
2	1	0	1	0	14.2375	0.661258	0.660908	0.0461404	1	0.00113477	40	14.2237	3.04946e-05
2	1	0	1	0	14.4874	0.656261	0.655892	0.0455417	1	0.00114611	40	14.4736	2.98704e-05
2	1	0	1	0	14.7673	0.650663	0.650281	0.044508	1	0.00115866	41	14.7535	2.89427e-05
2	1	0	1	0	15.0172	0.645666	0.645284	0.0440186	1	0.00116971	41	15.0034	2.84045e-05
2	1	0	1	0	15.267	0.640668	0.640475	0.0435587	1	0.00118065	41	15.2532	2.78983e-05
2	1	0	1	0	15.5169	0.63567	0.635364	0.043131	1	0.00119147	41	15.5031	2.74039e-05
2	1	0	1	0	15.7668	0.630673	0.630315	0.0426747	1	0.00120219	41	15.753	2.68985e-05
2	1	0	1	0	16.0167	0.625675	0.625249	0.0422208	1	0.00121279	41	16.0029	2.63985e-05
2	1	0	1	0	16.2666	0.620678	0.620739	0.0417529	1	0.00122328	41	16.2528	2.59177e-05
2	1	0	1	0	16.5164	0.61568	0.615282	0.0412703	1	0.00123365	41	16.5026	2.53929e-05
2	1	0	1	0	16.7663	0.610682	0.610445	0.0407604	1	0.0012439	41	16.7525	2.4882e-05
2	1	0	1	0	17.0162	0.605685	0.605542	0.0402234	1	0.00125402	41	17.0024	2.43569e-05
2	1	0	1	0	17.2661	0.600687	0.60056	0.0396311	1	0.00126399	41	17.2523	2.38009e-05
2	1	0	1	0	17.516	0.595689	0.595089	0.0390025	1	0.00127381	41	17.5022	2.32099e-05
2	1	0	1	0	17.7658	0.590693	0.590327	0.0382794	1	0.00128345	41	17.752	2.25973e-05
2	1	0	1	0	18.0157	0.585694	0.585236	0.0374884	1	0.00129291	41	18.0019	2.19396e-05
2	1	0	1	0	18.2656	0.580697	0.580108	0.0365779	1	0.00130216	41	18.2518	2.12191e-05
2	1	0	1	0	18.5155	0.575699	0.57526	0.0355512	1	0.00131116	41	18.5017	2.04512e-05
2	1	0	1	0	18.7654	0.570701	0.570555	0.0343448	1	0.00131989	41	18.7516	1.95956e-05
2	1	0	1	0	19.0153	0.565704	0.56514	0.0329989	1	0.00132831	41	19.0015	1.8649e-05
2	1	0	1	0	19.2651	0.560706	0.560326	0.0313925	1	0.00133635	41	19.2513	1.759e-05
2	1	0	1	0	19.515	0.555708	0.555244	0.0295804	1	0.00134397	41	19.5012	1.64244e-05
2	1	0	1	0	19.7649	0.550711	0.550528	0.0274333	1	0.00135109	41	19.7511	1.51028e-05
2	1	0	1	0	20.0148	0.545713	0.545602	0.0249349	1	0.00135764	41	20.001	1.36045e-05
2	1	0	1	0	20.2647	0.540716	0.540226	0.0220497	1	0.00136351	41	20.2509	1.19118e-05
2	1	0	1	0	20.5146	0.535717	0.535524	0.0186003	1	0.00136859	41	20.5008	9.96094e-06
2	1	0	1	0	20.7644	0.53072	0.529869	0.0147341	1	0.00137276	41	20.7506	7.80717e-06
2	1	0	1	0	21.0143	0.525723	0.524873	0.0101191	1	0.00137586	41	21.0005	5.31126e-06
2	1	0	1	0	21.2642	0.520725	0.520636	0.0048154	1	0.00137773	41	21.2504	2.50707e-06
2	0	0	1	0	21.5441	0.515128	0.514787	-0.00197773	1	0.00137818	42	0.05	-1.01811e-06
2	0	0	1	0	21.7939	0.51013	0.509671	-0.00897443	1	0.00137683	42	0.2998	-4.57401e-06
2	0	0	1	0	22.0738	0.504533	0.504106	-0.0177688	1	0.00137313	41	0.5797	-8.95736e-06
2	0	0	1	0	22.3237	0.499535	0.499195	-0.0266162	1	0.00136758	41	0.8296	-1.32867e-05
2	0	0	1	0	22.5736	0.494538	0.49417	-0.0362915	1	0.00135973	41	1.0795	-1.79342e-05
2	0	0	1	0	22.8234	0.489541	0.489342	-0.0467853	1	0.00134936	41	1.3293	-2.2894e-05
2	0	0	1	0	23.0733	0.484542	0.483959	-0.0578955	1	0.00133628	41	1.5792	-2.80191e-05
2	0	0	1	0	23.3232	0.479545	0.479411	-0.0694807	1	0.00132037	41	1.8291	-3.33099e-05
2	0	0	1	0	23.5731	0.474547	0.474127	-0.0812851	1	0.00130152	41	2.079	-3.85394e-05
2	0	0	1	0	23.823	0.469549	0.469307	-0.0930754	1	0.00127972	41	2.3289	-4.36809e-05
2	0	0	1	0	24.0729	0.464552	0.464133	-0.10452	1	0.00125502	41	2.5788	-4.85113e-05
2	0	0	1	0	24.3527	0.458954	0.458611	-0.115913	1	0.00122414	40	2.8586	-5.31592e-05
2	0	0	1	0	24.6026	0.453957	0.453697	-0.125339	1	0.00119382	40	3.1085	-5.68657e-05
2	0	0	1	0	24.8525	0.448959	0.448592	-0.133878	1	0.00116127	40	3.3584	-6.00566e-05
2	0	0	1	0	25.1024	0.443962	0.443672	-0.140598	1	0.00112682	40	3.6083	-6.23795e-05
2	0	0	1	0	25.3522	0.438965	0.43856	-0.146001	1	0.00109086	40	3.8581	-6.40302e-05
2	0	0	1	0	25.6021	0.433966	0.433612	-0.149614	1	0.00105377	40	4.108	-6.48742e-05
2	0	0	1	0	25.852	0.428969	0.428755	-0.151732	1	0.00101596	40	4.3579	-6.5056e-05
2	0	0	1	0	26.1019	0.423971	0.423618	-0.152455	1	0.000977807	40	4.6078	-6.45828e-05
2	0	0	1	0	26.3518	0.418973	0.418739	-0.151701	1	0.000939648	40	4.8577	-6.35229e-05
2	0	0	1	0	26.6017	0.413976	0.413511	-0.149975	1	0.000901783	40	5.1076	-6.20161e-05
2	0	0	1	0	26.8515	0.408978	0.408913	-0.147459	1	0.00086447	40	5.3574	-6.0298e-05
2	0	0	1	0	27.1014	0.403981	0.403708	-0.144108	1	0.000827872	40	5.6073	-5.81777e-05
2	0	0	1	0	27.3513	0.398983	0.398731	-0.140418	1	0.000792154	40	5.8572	-5.59891e-05
2	0	0	1	0	27.6012	0.393985	0.393441	-0.136352	1	0.000757413	40	6.1071	-5.36463e-05
2	0	0	1	0	27.8511	0.388988	0.388718	-0.131997	1	0.000723725	40	6.357	-5.13098e-05
2	0	0	1	0	28.1009	0.38399	0.38378	-0.127782	1	0.000691121	40	6.6068	-4.90402e-05
2	0	0	1	0	28.3508	0.378992	0.378677	-0.123461	1	0.000659586	40	6.8567	-4.67519e-05
2	0	0	1	0	28.6007	0.373995	0.373919	-0.1192	1	0.000629121	40	7.1066	-4.45712e-05
2	0	0	1	0	28.8506	0.368997	0.368639	-0.114975	1	0.0005997	40	7.3565	-4.23842e-05
2	0	0	1	0	29.1005	0.364	0.363574	-0.111104	1	0.00057129	40	7.6064	-4.03944e-05
2	0	0	1	0	29.3504	0.359001	0.358673	-0.107298	1	0.000543849	40	7.8563	-3.84849e-05
2	0	0	1	0	29.6002	0.354004	0.353647	-0.103563	1	0.000517342	40	8.1061	-3.66246e-05
2	0	0	1	0	29.8501	0.349007	0.348575	-0.100183	1	0.000491694	40	8.356	-3.49213e-05
2	0	0	1	0	30.1	0.344009	0.343863	-0.0969945	1	0.000466878	40	8.6059	-3.33528e-05
2	0	0	1	0	30.3499	0.339011	0.338762	-0.0940343	1	0.000442835	40	8.8558	-3.18553e-05
2	0	0	1	0	30.5998	0.334014	0.333848	-0.0910277	1	0.000419529	40	9.1057	-3.03894e-05
2	0	0	1	0	30.8496	0.329016	0.328589	-0.0884768	1	0.000396916	40	9.3555	-2.90725e-05
2	0	0	1	0	31.0995	0.324019	0.32364	-0.0859447	1	0.000374946	40	9.6054	-2.78152e-05
2	0	0	1	0	31.3494	0.319021	0.318844	-0.0836217	1	0.000353579	40	9.8553	-2.66623e-05
2	0	0	1	0	31.5993	0.314023	0.313763	-0.0812073	1	0.000332787	40	10.1052	-2.54798e-05
2	0	0	1	0	31.8492	0.309026	0.308722	-0.0792022	1	0.000312533	40	10.3551	-2.44515e-05
2	0	0	1	0	32.099	0.304028	0.303696	-0.0772851	1	0.000292802	40	10.6049	-2.34712e-05
2	0	0	1	0	32.3489	0.29903	0.29875	-0.0753309	1	0.000273537	40	10.8548	-2.25051e-05
2	0	0	1	0	32.5988	0.294033	0.293794	-0.0736932	1	0.000254725	40	11.1047	-2.16507e-05
2	0	0	1	0	32.8487	0.289035	0.288692	-0.0718971	1	0.00023633	40	11.3546	-2.07561e-05
2	0	0	1	0	33.0986	0.284038	0.283583	-0.0702967	1	0.000218345	40	11.6045	-1.99349e-05
2	0	0	1	0	33.3484	0.279041	0.278745	-0.0689535	1	0.000200742	40	11.8543	-1.92204e-05
2	0	0	1	0	33.5983	0.274042	0.273601	-0.0675206	1	0.000183501	40	12.1042	-1.84737e-05
2	0	0	1	0	33.8482	0.269045	0.268889	-0.0662158	1	0.000166611	40	12.3541	-1.78047e-05
2	0	0	1	0	34.0981	0.264047	0.263599	-0.064704	1	0.000150052	40	12.604	-1.70559e-05
2	0	0	1	0	34.348	0.259049	0.258717	-0.0635208	1	0.000133799	40	12.8539	-1.64339e-05
2	0	0	1	0	34.5979	0.254052	0.253795	-0.06254	1	0.000117844	40	13.1038	-1.58723e-05
2	0	0	1	0	34.8477	0.249054	0.248871	-0.0613282	1	0.000102178	40	13.3536	-1.52628e-05
2	0	0	1	0	35.0976	0.244057	0.243596	-0.0601714	1	8.67781e-05	40	13.6035	-1.46575e-05
2	0	0	1	0	35.3475	0.239059	0.238956	-0.0590699	1	7.16341e-05	40	13.8534	-1.41151e-05
2	0	0	1	0	35.5974	0.234061	0.233856	-0.0581254	1	5.67385e-05	40	14.1033	-1.3593e-05
2	0	0	1	0	35.8473	0.229064	0.228945	-0.0572251	1	4.20852e-05	40	14.3532	-1.31014e-05
2	0	0	1	0	36.0972	0.224064	0.223557	-0.0563285	1	2.76623e-05	40	14.6031	-1.25926e-05
2	0	0	1	0	36.347	0.219068	0.218814	-0.0553402	1	1.34692e-05	40	14.8529	-1.21092e-05
2	0	0	1	0	36.5969	0.214071	0.213751	-0.0544227	1	-5.19699e-07	40	15.1028	-1.16329e-05
2	0	0	1	0	36.8468	0.209073	0.208794	-0.0538064	1	-1.43047e-05	40	15.3527	-1.12344e-05
2	0	0	1	0	37.0967	0.204076	0.203765	-0.0527707	1	-2.78947e-05	40	15.6026	-1.07528e-05
2	0	0	1	0	37.3466	0.199077	0.198623	-0.0520733	1	-4.12992e-05	40	15.8525	-1.0343e-05
2	0	0	1	0	37.5964	0.19408	0.193674	-0.0513349	1	-5.45093e-05	40	16.1023	-9.9422e-06
2	0	0	1	0	37.8463	0.189083	0.188803	-0.0505134	1	-6.75508e-05	40	16.3522	-9.5371e-06
2	0	0	1	0	38.0962	0.184085	0.183608	-0.0497656	1	-8.04288e-05	40	16.6021	-9.13735e-06
2	0	0	1	0	38.3461	0.179087	0.178689	-0.0492446	1	-9.31493e-05	40	16.852	-8.7995e-06
2	0	0	1	0	38.596	0.17409	0.173784	-0.0485977	1	-0.000105705	40	17.1019	-8.44548e-06
2	0	0	1	0	38.8458	0.169092	0.168794	-0.0478509	1	-0.000118101	40	17.3517	-8.07696e-06
2	0	0	1	0	39.0957	0.164095	0.163801	-0.047276	1	-0.000130353	40	17.6016	-7.74386e-06
2	0	0	1	0	39.3456	0.159097	0.158643	-0.0467102	1	-0.000142462	40	17.8515	-7.41025e-06
2	0	0	1	0	39.5955	0.154099	0.153752	-0.046224	1	-0.000154432	40	18.1014	-7.10701e-06
2	0	0	1	0	39.8454	0.149102	0.148756	-0.0455387	1	-0.000166275	40	18.3513	-6.77416e-06
2	0	0	1	0	40.0952	0.144104	0.143647	-0.0449569	1	-0.000177973	40	18.6011	-6.45792e-06
2	0	0	1	0	40.3451	0.139106	0.138975	-0.0445507	1	-0.000189547	40	18.851	-6.19142e-06
2	0	0	1	0	40.595	0.134109	0.13386	-0.0438815	1	-0.000200998	40	19.1009	-5.87396e-06
2	0	0	1	0	40.8449	0.129111	0.128885	-0.0437874	1	-0.000212336	40	19.3508	-5.64355e-06
2	0	0	1	0	41.1248	0.123514	0.123365	-0.0446365	1	-0.000224907	41	19.6307	-5.50656e-06
2	0	0	1	0	41.3746	0.118516	0.118111	-0.044199	1	-0.000236006	41	19.8805	-5.22041e-06
2	0	0	1	0	41.6245	0.113519	0.11314	-0.0437313	1	-0.000247	41	20.1304	-4.94775e-06
2	0	0	1	0	41.8744	0.108521	0.108463	-0.043335	1	-0.000257887	41	20.3803	-4.70026e-06
2	0	0	1	0	42.1243	0.103523	0.103293	-0.0429381	1	-0.000268671	41	20.6302	-4.43521e-06
2	0	0	1	0	42.3742	0.0985257	0.0982684	-0.0425635	1	-0.000279355	41	20.8801	-4.18265e-06
2	0	0	1	0	42.624	0.0935281	0.093362	-0.042173	1	-0.000289935	41	21.1299	-3.93736e-06
2	0	0	1	0	42.8739	0.0885304	0.0883484	-0.0417739	1	-0.000300425	41	21.3798	-3.69066e-06
2	0	0	1	0	43.1238	0.0835328	0.0833394	-0.0414166	1	-0.000310823	41	21.6297	-3.45164e-06
2	0	0	1	0	43.3737	0.0785352	0.078144	-0.0410301	1	-0.000321129	41	21.8796	-3.20626e-06
2	0	0	1	0	43.6236	0.0735376	0.0731561	-0.0406882	1	-0.000331347	41	22.1295	-2.97659e-06
2	0	0	1	0	43.8734	0.0685413	0.0682716	-0.0403612	1	-0.000341474	41	22.3793	-2.75552e-06
2	0	0	1	0	44.1233	0.0635423	0.0632552	-0.0400429	1	-0.000351522	41	22.6292	-2.53292e-06
2	0	0	1	0	44.3732	0.0585447	0.0584012	-0.0397269	1	-0.000361491	41	22.8791	-2.3201e-06
2	0	0	1	0	44.6231	0.0535471	0.0533118	-0.0393844	1	-0.00037138	41	23.129	-2.09965e-06
2	0	0	1	0	44.873	0.0485494	0.0484466	-0.0390817	1	-0.000381192	41	23.3789	-1.89338e-06
2	0	0	1	0	45.1229	0.0435518	0.0432088	-0.0387991	1	-0.000390929	41	23.6288	-1.67647e-06
2	0	0	1	0	45.3727	0.0385542	0.0380479	-0.0385384	1	-0.000400591	41	23.8786	-1.4663e-06
2	0	0	1	0	45.6226	0.0335566	0.0334451	-0.0382273	1	-0.000410186	41	24.1285	-1.27852e-06
2	0	0	1	0	45.8725	0.0285589	0.0280455	-0.0379703	1	-0.00041971	41	24.3784	-1.0649e-06
2	0	0	1	0	46.1224	0.0235613	0.0232368	-0.0376909	1	-0.000429168	41	24.6283	-8.75818e-07
2	0	0	1	0	46.3723	0.0185637	0.0181579	-0.0374401	1	-0.000438561	41	24.8782	-6.79835e-07
2	0	0	1	0	46.6222	0.0135643	0.0132479	-0.0371792	1	-0.00044789	41	25.1281	-4.92547e-07
2	0	0	1	0	46.872	0.00856845	0.00807682	-0.0369413	1	-0.000457153	41	25.3779	-2.98368e-07
2	0	0	1	0	47.1219	0.00357082	0.00324633	-0.0367134	1	-0.000466359	41	25.6278	-1.19184e-07
2	0	0	1	1	47.3397	0.000772154	0.000554136	-0.035612	1	-0.000474301	41	25.8456	-1.97339e-08
2	0	0	1	1	47.5895	0.00576978	0.00557081	-0.0352312	1	-0.000483135	41	26.0954	-1.96266e-07
2	0	0	1	1	47.8394	0.0107674	0.0105742	-0.0349235	1	-0.000491891	41	26.3453	-3.69287e-07
2	0	0	1	1	48.0893	0.015765	0.0154341	-0.0346388	1	-0.000500577	41	26.5952	-5.3462e-07
2	0	0	1	1	48.3392	0.0207627	0.0206579	-0.0344131	1	-0.0005092	41	26.8451	-7.10901e-07
2	0	0	1	1	48.5891	0.0257603	0.0253193	-0.034161	1	-0.000517763	41	27.095	-8.64932e-07
2	0	0	1	1	48.8389	0.0307579	0.030466	-0.0339567	1	-0.000526267	41	27.3448	-1.03453e-06
2	0	0	1	1	49.0888	0.0357555	0.0356128	-0.0337475	1	-0.00053472	41	27.5947	-1.20184e-06
2	0	0	1	1	49.3387	0.0407532	0.0406322	-0.0335369	1	-0.00054312	41	27.8446	-1.36268e-06
2	0	0	1	1	49.5886	0.0457508	0.0455974	-0.0333015	1	-0.000551466	41	28.0945	-1.51846e-06
2	0	0	1	1	49.8385	0.0507484	0.0505316	-0.0331225	1	-0.000559762	41	28.3444	-1.67373e-06
2	0	0	1	1	50.0884	0.0557469	0.0552577	-0.032903	1	-0.000568006	41	28.5943	-1.81814e-06
2	0	0	1	1	50.3382	0.0607437	0.0604645	-0.0327102	1	-0.000576197	41	28.8441	-1.9778e-06
2	0	0	1	1	50.5881	0.0657413	0.0654416	-0.0325259	1	-0.000584344	41	29.094	-2.12855e-06
2	0	0	1	1	50.838	0.0707389	0.0706961	-0.032336	1	-0.000592441	41	29.3439	-2.28603e-06
2	0	0	1	1	51.0879	0.0757365	0.0754911	-0.0321567	1	-0.000600493	41	29.5938	-2.42754e-06
2	0	0	1	1	51.3378	0.0807342	0.0805013	-0.0319835	1	-0.0006085	41	29.8437	-2.57472e-06
2	0	0	1	1	51.5876	0.0857318	0.0856787	-0.0318131	1	-0.00061646	41	30.0935	-2.7257e-06
2	0	0	1	1	51.8375	0.0907294	0.0902334	-0.0316262	1	-0.000624382	41	30.3434	-2.85374e-06
2	0	0	1	1	52.0874	0.095727	0.0954236	-0.031484	1	-0.000632262	41	30.5933	-3.00432e-06
2	0	0	1	1	52.3373	0.100725	0.100571	-0.0313325	1	-0.000640105	41	30.8432	-3.15113e-06
2	0	0	1	1	52.5872	0.105722	0.105639	-0.0311984	1	-0.000647908	41	31.0931	-3.29575e-06
2	0	0	1	1	52.837	0.11072	0.110496	-0.0310207	1	-0.000655673	41	31.3429	-3.42768e-06
2	0	0	1	1	53.0869	0.115718	0.115327	-0.0308891	1	-0.000663403	41	31.5928	-3.56236e-06
2	0	0	1	1	53.3368	0.120715	0.120352	-0.0307382	1	-0.000671094	41	31.8427	-3.6994e-06
2	0	0	1	1	53.5867	0.125713	0.125615	-0.0305958	1	-0.00067875	41	32.0926	-3.84328e-06
2	0	0	1	1	53.8366	0.13071	0.130605	-0.0304523	1	-0.000686372	41	32.3425	-3.97723e-06
2	0	0	1	1	54.0864	0.135707	0.135689	-0.030304	1	-0.000693956	41	32.5923	-4.11191e-06
2	0	0	1	1	54.3363	0.140706	0.140392	-0.0302084	1	-0.000701512	41	32.8422	-4.24103e-06
2	0	0	1	1	54.5862	0.145703	0.145593	-0.03008	1	-0.000709037	41	33.0921	-4.37944e-06
2	0	0	1	1	54.8361	0.150701	0.150337	-0.0300493	1	-0.000716539	41	33.342	-4.51752e-06
2	0	0	1	1	55.086	0.155699	0.155325	-0.0298452	1	-0.000724005	41	33.5919	-4.63572e-06
2	0	0	1	1	55.3359	0.160696	0.16038	-0.0297454	1	-0.000731449	41	33.8418	-4.77057e-06
2	0	0	1	1	55.5857	0.165694	0.165738	-0.0295999	1	-0.000738863	41	34.0916	-4.90582e-06
2	0	0	1	1	55.8356	0.170691	0.170652	-0.0295432	1	-0.00074625	41	34.3415	-5.04159e-06
2	0	0	1	1	56.0855	0.175689	0.175495	-0.0294471	1	-0.000753606	41	34.5914	-5.16781e-06
2	0	0	1	1	56.3354	0.180687	0.180397	-0.0293425	1	-0.000760935	41	34.8413	-5.29329e-06
2	0	0	1	1	56.5853	0.185684	0.185048	-0.0291588	1	-0.00076824	41	35.0912	-5.39577e-06
2	0	0	1	1	56.8352	0.190684	0.190346	-0.0290602	1	-0.00077552	41	35.3411	-5.53148e-06
2	0	0	1	1	57.085	0.19568	0.195236	-0.0289993	1	-0.000782775	41	35.5909	-5.66171e-06
2	0	0	1	1	57.3349	0.200677	0.200368	-0.0289618	1	-0.000790012	41	35.8408	-5.80303e-06
2	0	0	1	1	57.5848	0.205675	0.205157	-0.0287678	1	-0.000797228	41	36.0907	-5.90192e-06
2	0	0	1	1	57.8347	0.210672	0.210116	-0.028887	1	-0.00080441	41	36.3406	-6.06961e-06
2	0	0	1	1	58.0846	0.21567	0.215381	-0.0285875	1	-0.00081157	41	36.5905	-6.15719e-06
2	0	0	1	1	58.3344	0.220668	0.220562	-0.0284939	1	-0.0008187	41	36.8403	-6.28467e-06
2	0	0	1	1	58.5843	0.225665	0.225798	-0.0283279	1	-0.000825809	41	37.0902	-6.3964e-06
2	0	0	1	1	58.8342	0.230663	0.230338	-0.0282991	1	-0.000832885	41	37.3401	-6.51835e-06
2	0	0	1	1	59.0841	0.235661	0.235243	-0.0281727	1	-0.000839927	41	37.59	-6.62744e-06
2	0	0	1	1	59.334	0.240658	0.240391	-0.0280302	1	-0.000846937	41	37.8399	-6.7382e-06
2	0	0	1	1	59.5838	0.245656	0.245441	-0.0278566	1	-0.000853916	41	38.0897	-6.83717e-06
2	0	0	1	1	59.8337	0.250653	0.250273	-0.027723	1	-0.000860865	41	38.3396	-6.93832e-06
2	0	0	1	1	60.0836	0.255651	0.255335	-0.0276286	1	-0.000867782	41	38.5895	-7.05455e-06
2	0	0	1	1	60.3335	0.260649	0.260547	-0.0274831	1	-0.000874668	41	38.8394	-7.16064e-06
2	0	0	1	1	60.5834	0.265646	0.265051	-0.0273715	1	-0.000881522	41	39.0893	-7.25483e-06
2	0	0	1	1	60.8332	0.270643	0.270296	-0.0272579	1	-0.000888339	41	39.3391	-7.3677e-06
2	0	0	1	1	61.0831	0.275642	0.275357	-0.0271196	1	-0.000895124	41	39.589	-7.46757e-06
2	0	0	1	1	61.333	0.280639	0.280519	-0.0269334	1	-0.000901868	41	39.8389	-7.55534e-06
2	0	0	1	1	61.5829	0.285637	0.285349	-0.0266964	1	-0.00090857	41	40.0888	-7.61779e-06
2	0	0	1	1	61.8328	0.290634	0.290186	-0.0265069	1	-0.000915223	41	40.3387	-7.69192e-06
2	0	0	1	1	62.0826	0.29563	0.295361	-0.0262837	1	-0.000921816	41	40.5885	-7.76319e-06
2	0	0	1	1	62.3325	0.30063	0.300502	-0.0260433	1	-0.000928346	41	40.8384	-7.82608e-06
2	0	0	1	1	62.5824	0.305627	0.305465	-0.0257426	1	-0.000934806	41	41.0883	-7.86346e-06
2	0	0	1	1	62.8323	0.310625	0.310468	-0.0253649	1	-0.000941188	41	41.3382	-7.87499e-06
2	0	0	1	1	63.0822	0.315623	0.315124	-0.0249698	1	-0.000947484	41	41.5881	-7.86858e-06
2	0	0	1	1	63.3321	0.32062	0.320354	-0.0245987	1	-0.000953679	41	41.838	-7.8803e-06
2	0	0	1	1	63.5819	0.325618	0.325289	-0.0241034	1	-0.000959756	41	42.0878	-7.84057e-06
2	0	0	1	1	63.8318	0.330615	0.33043	-0.0235851	1	-0.000965703	41	42.3377	-7.79323e-06
2	0	0	1	1	64.0817	0.335613	0.335301	-0.0228604	1	-0.000971501	41	42.5876	-7.66512e-06
2	0	0	1	1	64.3316	0.340611	0.340306	-0.0221103	1	-0.000977124	41	42.8375	-7.52429e-06
2	0	0	1	1	64.5815	0.345608	0.345129	-0.0212728	1	-0.000982546	41	43.0874	-7.34185e-06
2	0	0	1	1	64.8314	0.350607	0.350526	-0.020236	1	-0.000987732	41	43.3373	-7.09325e-06
2	0	0	1	1	65.0812	0.355604	0.355397	-0.0191223	1	-0.000992643	41	43.5871	-6.79599e-06
2	0	0	1	1	65.3311	0.360601	0.360479	-0.0177322	1	-0.000997241	41	43.837	-6.39209e-06
2	0	0	1	1	65.581	0.365599	0.365209	-0.0161006	1	-0.00100147	41	44.0869	-5.88007e-06
2	0	0	1	1	65.8309	0.370596	0.370516	-0.0141901	1	-0.00100526	41	44.3368	-5.25765e-06
2	0	0	1	1	66.0808	0.375594	0.375468	-0.0119566	1	-0.00100852	41	44.5867	-4.48934e-06
2	0	0	1	1	66.3306	0.380592	0.380404	-0.00924515	1	-0.00101117	41	44.8365	-3.5169e-06
2	0	0	1	1	66.5805	0.385589	0.385512	-0.00606931	1	-0.0010131	41	45.0864	-2.33979e-06
2	0	0	1	1	66.8604	0.391187	0.39098	-0.00197302	1	-0.00101425	42	45.3663	-7.71413e-07
2	1	0	1	1	67.1103	0.396184	0.395838	0.00248117	1	-0.0010142	42	0.1	9.8214e-07
2	1	0	1	1	67.3602	0.401184	0.400613	0.00758931	1	-0.00101296	42	0.3499	3.04038e-06
2	1	0	1	1	67.64	0.406779	0.406733	0.0141901	1	-0.00100994	41	0.6297	5.77158e-06
2	1	0	1	1	67.8899	0.411777	0.411266	0.0211276	1	-0.00100554	41	0.8796	8.68907e-06
2	1	0	1	1	68.1398	0.416774	0.416341	0.0287917	1	-0.000999311	41	1.1295	1.19872e-05
2	1	0	1	1	68.3897	0.421772	0.421599	0.0374015	1	-0.000991052	41	1.3794	1.57684e-05
2	1	0	1	1	68.6395	0.42677	0.426279	0.0468359	1	-0.000980541	41	1.6292	1.99652e-05
2	1	0	1	1	68.8894	0.431767	0.431631	0.0570576	1	-0.000967562	41	1.8791	2.46278e-05
2	1	0	1	1	69.1393	0.436765	0.436286	0.0679447	1	-0.000951945	41	2.129	2.96434e-05
2	1	0	1	1	69.3892	0.441763	0.440998	0.0792844	1	-0.000933542	41	2.3789	3.49643e-05
2	1	0	1	1	69.6391	0.44676	0.446415	0.090848	1	-0.000912276	41	2.6288	4.05559e-05
2	1	0	1	1	69.8802	0.451583	0.451173	0.101899	1	-0.000889029	41	2.8699	4.59739e-05
2	1	0	1	1	70.1288	0.456556	0.456345	0.112289	2	-0.000862302	40	3.1185	5.12424e-05
2	1	0	1	1	70.3787	0.461553	0.461423	0.122845	2	-0.000832726	40	3.3684	5.66835e-05
2	1	0	1	1	70.6286	0.466551	0.466462	0.132203	2	-0.000800657	40	3.6183	6.16676e-05
2	1	0	1	1	70.8785	0.471548	0.471291	0.140367	2	-0.000766372	40	3.8682	6.61537e-05
2	1	0	1	1	71.1284	0.476546	0.476238	0.147121	2	-0.000730233	40	4.1181	7.00644e-05
2	1	0	1	1	71.3782	0.481544	0.481022	0.152371	2	-0.000692632	40	4.3679	7.32938e-05
2	1	0	1	1	71.6281	0.486541	0.486293	0.155801	2	-0.000653959	40	4.6178	7.5765e-05
2	1	0	1	1	71.878	0.491539	0.491101	0.157776	2	-0.000614611	40	4.8677	7.74838e-05
2	1	0	1	1	72.1279	0.496537	0.496252	0.158067	2	-0.000574975	40	5.1176	7.84413e-05
2	1	0	1	1	72.3778	0.501534	0.501131	0.157092	2	-0.0005354	40	5.3675	7.87238e-05
2	1	0	1	1	72.6276	0.506532	0.50636	0.15522	2	-0.000496198	40	5.6173	7.85973e-05
2	1	0	1	1	72.8775	0.511529	0.511202	0.152324	2	-0.000457574	40	5.8672	7.78685e-05
2	1	0	1	1	73.1274	0.516527	0.516113	0.148856	2	-0.000419742	40	6.1171	7.68264e-05
2	1	0	1	1	73.3773	0.521525	0.521166	0.144874	2	-0.000382841	40	6.367	7.55037e-05
2	1	0	1	1	73.6272	0.526522	0.526101	0.140598	2	-0.00034697	40	6.6169	7.39688e-05
2	1	0	1	1	73.877	0.531519	0.531272	0.135993	2	-0.000312204	40	6.8667	7.22493e-05
2	1	0	1	1	74.1269	0.536517	0.536136	0.131536	2	-0.000278548	40	7.1166	7.05211e-05
2	1	0	1	1	74.3768	0.541515	0.541262	0.126982	2	-0.000246011	40	7.3665	6.87303e-05
2	1	0	1	1	74.6267	0.546513	0.546059	0.122351	2	-0.000214586	40	7.6164	6.6811e-05
2	1	0	1	1	74.8766	0.55151	0.551147	0.118205	2	-0.000184238	40	7.8663	6.51486e-05
2	1	0	1	1	75.1265	0.556508	0.556202	0.114235	2	-0.000154924	40	8.1162	6.35379e-05
2	1	0	1	1	75.3763	0.561506	0.561351	0.110462	2	-0.000126606	40	8.366	6.20082e-05
2	1	0	1	1	75.6262	0.566503	0.566223	0.10673	2	-9.92078e-05	40	8.6159	6.04328e-05
2	1	0	1	1	75.8761	0.571501	0.571247	0.103137	2	-7.26957e-05	40	8.8658	5.89165e-05
2	1	0	1	1	76.126	0.576499	0.576263	0.100102	2	-4.70089e-05	40	9.1157	5.76849e-05
2	1	0	1	1	76.3759	0.581496	0.581265	0.0971224	2	-2.21067e-05	40	9.3656	5.64539e-05
2	1	0	1	1	76.6257	0.586494	0.586147	0.0943007	2	2.05743e-06	40	9.6154	5.52741e-05
2	1	0	1	1	76.8756	0.591491	0.590995	0.091539	2	2.55433e-05	40	9.8653	5.40991e-05
2	1	0	1	1	77.1255	0.596489	0.596299	0.0891593	2	4.83894e-05	40	10.1152	5.31655e-05
2	1	0	1	1	77.3754	0.601487	0.601296	0.0870179	2	7.06435e-05	40	10.3651	5.23235e-05
2	1	0	1	1	77.6253	0.606484	0.606292	0.0847744	2	9.23404e-05	40	10.615	5.1398e-05
2	1	0	1	1	77.8752	0.611483	0.611131	0.0827663	2	0.000113518	40	10.8649	5.05811e-05
2	1	0	1	1	78.125	0.61648	0.616186	0.0810615	2	0.000134201	40	11.1147	4.9949e-05
2	1	0	1	1	78.3749	0.621477	0.621198	0.079439	2	0.000154445	40	11.3646	4.93473e-05
2	1	0	1	1	78.6248	0.626475	0.625929	0.0777269	2	0.000174274	40	11.6145	4.86515e-05
2	1	0	1	1	78.8747	0.631472	0.63095	0.0762887	2	0.000193713	40	11.8644	4.81343e-05
2	1	0	1	1	79.1246	0.63647	0.63619	0.0750018	2	0.000212793	40	12.1143	4.77154e-05
2	1	0	1	1	79.3744	0.641468	0.641266	0.0737658	2	0.000231533	40	12.3641	4.73035e-05
2	1	0	1	1	79.6243	0.646465	0.646214	0.0725973	2	0.000249983	40	12.614	4.69134e-05
2	1	0	1	1	79.8742	0.651463	0.651311	0.0718123	2	0.000268156	40	12.8639	4.67722e-05
2	1	0	1	1	80.1241	0.656461	0.65628	0.0708216	2	0.000286084	40	13.1138	4.64788e-05
2	1	0	1	1	80.374	0.661458	0.661038	0.0700835	2	0.0003038	40	13.3637	4.63279e-05
2	1	0	1	1	80.6238	0.666455	0.666056	0.0693559	2	0.000321323	40	13.6135	4.61949e-05
2	1	0	1	1	80.8737	0.671453	0.67124	0.0688537	2	0.000338701	40	13.8634	4.62174e-05
2	1	0	1	1	81.1236	0.676451	0.676252	0.0685252	2	0.00035596	40	14.1133	4.63403e-05
2	1	0	1	1	81.3735	0.681449	0.681	0.0682664	2	0.000373136	40	14.3632	4.64894e-05
2	1	0	1	1	81.6234	0.686446	0.685978	0.0683305	2	0.000390277	40	14.6131	4.68732e-05
2	1	0	1	1	81.8732	0.691443	0.691076	0.0683536	2	0.000407406	40	14.8629	4.72375e-05
2	1	0	1	1	82.1231	0.696442	0.696258	0.0686509	2	0.000424587	40	15.1128	4.77987e-05
2	1	0	1	1	82.341	0.69924	0.698954	0.0672626	2	0.000439575	40	15.3307	4.70134e-05
2	1	0	1	1	82.5909	0.694243	0.693768	0.0627276	2	0.000455662	40	15.5806	4.35184e-05
2	1	0	1	1	82.8408	0.689245	0.688865	0.0601469	2	0.000470919	40	15.8305	4.14331e-05
2	1	0	1	1	83.0907	0.684247	0.6837	0.0582873	2	0.000485623	40	16.0804	3.9851e-05
2	1	0	1	1	83.3406	0.67925	0.678887	0.0567856	2	0.000499914	40	16.3303	3.8551e-05
2	1	0	1	1	83.5904	0.674252	0.673839	0.0557444	2	0.00051387	40	16.5801	3.75628e-05
2	1	0	1	1	83.8403	0.669255	0.668806	0.0546474	2	0.000527572	40	16.83	3.65485e-05
2	1	0	1	1	84.0902	0.664257	0.664047	0.0537943	2	0.000541045	40	17.0799	3.57219e-05
2	1	0	1	1	84.3401	0.659259	0.658742	0.05326	2	0.000554326	40	17.3298	3.50846e-05
2	1	0	1	1	84.59	0.654262	0.653925	0.0526179	2	0.000567438	40	17.5797	3.44082e-05
2	1	0	1	1	84.8398	0.649264	0.648961	0.052035	2	0.000580389	40	17.8295	3.37687e-05
2	1	0	1	1	85.0897	0.644266	0.643788	0.0515236	2	0.000593202	40	18.0794	3.31702e-05
2	1	0	1	1	85.3396	0.639269	0.63895	0.0509588	2	0.000605879	40	18.3293	3.25601e-05
2	1	0	1	1	85.5895	0.634271	0.634151	0.0504418	2	0.000618421	40	18.5792	3.19877e-05
2	1	0	1	1	85.8394	0.629273	0.629201	0.0499936	2	0.00063083	40	18.8291	3.1456e-05
2	1	0	1	1	86.0892	0.624277	0.623764	0.0496124	2	0.00064311	40	19.0789	3.09464e-05
2	1	0	1	1	86.3391	0.619278	0.619204	0.0490082	2	0.000655256	40	19.3288	3.03461e-05
2	1	0	1	1	86.589	0.614281	0.614004	0.0486546	2	0.000667268	40	19.5787	2.98741e-05
2	1	0	1	1	86.8389	0.609283	0.608924	0.0480433	2	0.000679135	40	19.8286	2.92547e-05
2	1	0	1	1	87.0888	0.604285	0.604022	0.0474713	2	0.000690849	40	20.0785	2.86737e-05
2	1	0	1	1	87.3387	0.599288	0.599153	0.0468928	2	0.000702408	40	20.3284	2.80959e-05
2	1	0	1	1	87.5885	0.59429	0.594011	0.0461586	2	0.000713795	40	20.5782	2.74187e-05
2	1	0	1	1	87.8684	0.588693	0.588484	0.0442952	2	0.00072633	41	20.8581	2.6067e-05
2	1	0	1	1	88.1183	0.583695	0.583482	0.0434282	2	0.000737291	41	21.108	2.53396e-05
2	1	0	1	1	88.3682	0.578697	0.578354	0.0424342	2	0.000748016	41	21.3579	2.4542e-05
2	1	0	1	1	88.618	0.573701	0.573234	0.0413311	2	0.000758471	41	21.6077	2.36924e-05
2	1	0	1	1	88.8679	0.568702	0.568377	0.0400182	2	0.000768632	41	21.8576	2.27454e-05
2	1	0	1	1	89.1178	0.563705	0.563406	0.0385269	2	0.000778445	41	22.1075	2.17063e-05
2	1	0	1	1	89.3677	0.558707	0.558177	0.0368597	2	0.000787861	41	22.3574	2.05743e-05
2	1	0	1	1	89.6176	0.553709	0.553389	0.0348729	2	0.000796818	41	22.6073	1.92983e-05
2	1	0	1	1	89.8675	0.548712	0.548473	0.0325447	2	0.00080524	41	22.8572	1.78499e-05
2	1	0	1	1	90.1173	0.543714	0.543371	0.0298884	2	0.000813038	41	23.107	1.62405e-05
2	1	0	1	1	90.3672	0.538717	0.538358	0.0267656	2	0.000820118	41	23.3569	1.44095e-05
2	1	0	1	1	90.6171	0.533719	0.533549	0.0231297	2	0.000826359	41	23.6068	1.23408e-05
2	1	0	1	1	90.867	0.528721	0.528145	0.0189432	2	0.000831624	41	23.8567	1.00047e-05
2	1	0	1	1	91.1169	0.523724	0.523379	0.0140412	2	0.000835756	41	24.1066	7.34887e-06
2	1	0	1	1	91.3667	0.518726	0.518374	0.00853688	2	0.000838588	41	24.3564	4.4253e-06
2	1	0	1	1	91.6466	0.513129	0.51278	0.00138558	2	0.00084001	42	24.6363	7.10498e-07
2	0	0	1	1	91.8965	0.508131	0.507859	-0.0059496	2	0.000839445	42	0.1749	-3.02156e-06
2	0	0	1	1	92.1764	0.502534	0.502159	-0.0150842	2	0.00083654	41	0.4548	-7.57467e-06
2	0	0	1	1	92.4262	0.497536	0.496966	-0.0243234	2	0.000831623	41	0.7046	-1.20879e-05
2	0	0	1	1	92.6761	0.492538	0.492127	-0.0342656	2	0.000824306	41	0.9545	-1.6863e-05
2	0	0	1	1	92.926	0.487541	0.487363	-0.0449779	2	0.000814399	41	1.2044	-2.19205e-05
2	0	0	1	1	93.1759	0.482543	0.482138	-0.0562602	2	0.000801737	41	1.4543	-2.71252e-05
2	0	0	1	1	93.4258	0.477546	0.477182	-0.0680746	2	0.000786189	41	1.7042	-3.2484e-05
2	0	0	1	1	93.6756	0.472548	0.472159	-0.0797824	2	0.000767716	41	1.954	-3.767e-05
2	0	0	1	1	93.9255	0.46755	0.46745	-0.0913809	2	0.0007463	41	2.2039	-4.27161e-05
2	0	0	1	1	94.1754	0.462553	0.462463	-0.102729	2	0.000722008	41	2.4538	-4.75085e-05
2	0	0	1	1	94.4553	0.456955	0.456732	-0.113462	2	0.000691662	40	2.7337	-5.18217e-05
2	0	0	1	1	94.7052	0.451958	0.451643	-0.122754	2	0.000661975	40	2.9836	-5.54409e-05
2	0	0	1	1	94.955	0.44696	0.446524	-0.130454	2	0.000630171	40	3.2334	-5.8251e-05
2	0	0	1	1	95.2049	0.441963	0.441395	-0.136636	2	0.000596608	40	3.4833	-6.03103e-05
2	0	0	1	1	95.4548	0.436965	0.436424	-0.141408	2	0.000561674	40	3.7332	-6.17137e-05
2	0	0	1	1	95.7047	0.431967	0.431679	-0.144359	2	0.000525777	40	3.9831	-6.23166e-05
2	0	0	1	1	95.9546	0.42697	0.426311	-0.145719	2	0.00048931	40	4.233	-6.21215e-05
2	0	0	1	1	96.2044	0.421972	0.421702	-0.146154	2	0.000452655	40	4.4828	-6.16332e-05
2	0	0	1	1	96.4543	0.416974	0.416714	-0.145097	2	0.000416093	40	4.7327	-6.04638e-05
2	0	0	1	1	96.7042	0.411977	0.411706	-0.142841	2	0.000379928	40	4.9826	-5.88083e-05
2	0	0	1	1	96.9541	0.406979	0.406605	-0.140308	2	0.000344377	40	5.2325	-5.70499e-05
2	0	0	1	1	97.204	0.401981	0.401696	-0.136786	2	0.000309614	40	5.4824	-5.49465e-05
2	0	0	1	1	97.4538	0.396985	0.396459	-0.132689	2	0.000275788	40	5.7322	-5.26058e-05
2	0	0	1	1	97.7037	0.391986	0.391976	-0.128734	2	0.000242958	40	5.9821	-5.04607e-05
2	0	0	1	1	97.9536	0.386989	0.386642	-0.124326	2	0.000211173	40	6.232	-4.80695e-05
2	0	0	1	1	98.2035	0.381991	0.381793	-0.119995	2	0.000180468	40	6.4819	-4.58133e-05
2	0	0	1	1	98.4534	0.376993	0.376729	-0.115675	2	0.000150837	40	6.7318	-4.35781e-05
2	0	0	1	1	98.7033	0.371996	0.371848	-0.111544	2	0.000122261	40	6.9817	-4.14772e-05
2	0	0	1	1	98.9531	0.366998	0.366728	-0.107467	2	9.47185e-05	40	7.2315	-3.94112e-05
2	0	0	1	1	99.203	0.362001	0.361456	-0.103625	2	6.81574e-05	40	7.4814	-3.7456e-05
2	0	0	1	1	99.4529	0.357003	0.356839	-0.0999049	2	4.253e-05	40	7.7313	-3.565e-05
2	0	0	1	1	99.7028	0.352005	0.351817	-0.096518	2	1.77898e-05	40	7.9812	-3.39567e-05
2	0	0	1	1	99.9527	0.347008	0.346821	-0.0933534	2	-6.10353e-06	40	8.2311	-3.23769e-05
2	0	0	1	1	100.203	0.342009	0.341746	-0.0903088	2	-2.92067e-05	40	8.481	-3.08627e-05
2	0	0	1	1	100.452	0.337012	0.336752	-0.0873171	2	-5.15526e-05	40	8.7308	-2.94042e-05
2	0	0	1	1	100.702	0.332015	0.331764	-0.0844965	2	-7.3205e-05	40	8.9807	-2.80329e-05
2	0	0	1	1	100.952	0.327017	0.326509	-0.0820192	2	-9.42013e-05	40	9.2306	-2.678e-05
2	0	0	1	1	101.202	0.32202	0.321835	-0.0796458	2	-0.000114574	40	9.4805	-2.56328e-05
2	0	0	1	1	101.452	0.317021	0.316494	-0.077245	2	-0.000134368	40	9.7304	-2.44476e-05
2	0	0	1	1	101.702	0.312024	0.311617	-0.0752404	2	-0.000153608	40	9.9802	-2.34462e-05
2	0	0	1	1	101.952	0.307027	0.30669	-0.0733295	2	-0.000172341	40	10.2301	-2.24894e-05
2	0	0	1	1	102.202	0.302029	0.301724	-0.0714041	2	-0.000190607	40	10.48	-2.15444e-05
2	0	0	1	1	102.451	0.297031	0.296801	-0.0695329	2	-0.000208413	40	10.7299	-2.06374e-05
2	0	0	1	1	102.701	0.292034	0.29167	-0.0679575	2	-0.000225794	40	10.9798	-1.98212e-05
2	0	0	1	1	102.951	0.287036	0.286629	-0.0663829	2	-0.000242765	40	11.2296	-1.90273e-05
2	0	0	1	1	103.201	0.282039	0.281734	-0.0649884	2	-0.000259364	40	11.4795	-1.83094e-05
2	0	0	1	1	103.451	0.277041	0.276634	-0.0634578	2	-0.000275608	40	11.7294	-1.75546e-05
2	0	0	1	1	103.701	0.272043	0.271661	-0.0621746	2	-0.000291509	40	11.9793	-1.68904e-05
2	0	0	1	1	103.951	0.267046	0.266653	-0.0610706	2	-0.000307093	40	12.2292	-1.62847e-05
2	0	0	1	1	104.201	0.262048	0.261781	-0.0597586	2	-0.000322369	40	12.479	-1.56436e-05
2	0	0	1	1	104.45	0.25705	0.256923	-0.0584569	2	-0.000337362	40	12.7289	-1.50189e-05
2	0	0	1	1	104.7	0.252053	0.251619	-0.0575424	2	-0.000352078	40	12.9788	-1.44788e-05
2	0	0	1	1	104.95	0.247055	0.246725	-0.0564839	2	-0.000366534	40	13.2287	-1.3936e-05
2	0	0	1	1	105.2	0.242057	0.241706	-0.0555107	2	-0.000380742	40	13.4786	-1.34173e-05
2	0	0	1	1	105.45	0.237062	0.236741	-0.0545092	2	-0.000394704	40	13.7284	-1.29045e-05
2	0	0	1	1	105.7	0.232062	0.231647	-0.0534835	2	-0.000408443	40	13.9783	-1.23893e-05
2	0	0	1	1	105.95	0.227065	0.226634	-0.0526672	2	-0.000421969	40	14.2282	-1.19362e-05
2	0	0	1	1	106.2	0.222067	0.221767	-0.0519984	2	-0.000435293	40	14.4781	-1.15315e-05
2	0	0	1	1	106.45	0.217069	0.216712	-0.0510666	2	-0.000448423	40	14.728	-1.10667e-05
2	0	0	1	1	106.699	0.212072	0.211697	-0.0501714	2	-0.000461363	40	14.9779	-1.06211e-05
2	0	0	1	1	106.949	0.207074	0.206665	-0.0494795	2	-0.000474122	40	15.2277	-1.02257e-05
2	0	0	1	1	107.199	0.202077	0.201827	-0.0489395	2	-0.000486719	40	15.4776	-9.87731e-06
2	0	0	1	1	107.449	0.197079	0.196804	-0.048266	2	-0.000499142	40	15.7275	-9.49894e-06
2	0	0	1	1	107.699	0.192081	0.191986	-0.0474847	2	-0.000511404	40	15.9774	-9.11642e-06
2	0	0	1	1	107.949	0.187084	0.186803	-0.0470235	2	-0.000523512	40	16.2273	-8.78415e-06
2	0	0	1	1	108.199	0.182085	0.181689	-0.0463379	2	-0.000535475	40	16.4772	-8.41911e-06
2	0	0	1	1	108.449	0.177088	0.176619	-0.0457477	2	-0.000547291	40	16.727	-8.07989e-06
2	0	0	1	1	108.698	0.172091	0.171831	-0.0451057	2	-0.000558975	40	16.9769	-7.75058e-06
2	0	0	1	1	108.948	0.167093	0.166899	-0.0446336	2	-0.000570527	40	17.2268	-7.44932e-06
2	0	0	1	1	109.198	0.162095	0.161836	-0.0440309	2	-0.000581949	40	17.4767	-7.1258e-06
2	0	0	1	1	109.448	0.157098	0.156835	-0.0435177	2	-0.000593253	40	17.7266	-6.82509e-06
2	0	0	1	1	109.728	0.151501	0.151287	-0.0444535	2	-0.00060577	41	18.0064	-6.72522e-06
2	0	0	1	1	109.978	0.146503	0.14613	-0.0439793	2	-0.000616825	41	18.2563	-6.42669e-06
2	0	0	1	1	110.228	0.141505	0.141214	-0.0435257	2	-0.000627769	41	18.5062	-6.14643e-06
2	0	0	1	1	110.478	0.136508	0.136107	-0.0431086	2	-0.000638604	41	18.7561	-5.8674e-06
2	0	0	1	1	110.728	0.131509	0.131432	-0.0427309	2	-0.000649335	41	19.006	-5.61622e-06
2	0	0	1	1	110.977	0.126512	0.12626	-0.0423411	2	-0.000659959	41	19.2558	-5.34597e-06
2	0	0	1	1	111.227	0.121515	0.121066	-0.0419051	2	-0.000670487	41	19.5057	-5.07327e-06
2	0	0	1	1	111.477	0.116517	0.116275	-0.0415184	2	-0.000680919	41	19.7556	-4.82757e-06
2	0	0	1	1	111.727	0.11152	0.111174	-0.0411462	2	-0.000691256	41	20.0055	-4.5744e-06
2	0	0	1	1	111.977	0.106521	0.106215	-0.0408434	2	-0.000701507	41	20.2554	-4.3382e-06
2	0	0	1	1	112.227	0.101524	0.101429	-0.0405035	2	-0.000711668	41	20.5052	-4.10822e-06
2	0	0	1	1	112.477	0.0965267	0.0962399	-0.0401478	2	-0.000721751	41	20.7551	-3.86382e-06
2	0	0	1	1	112.727	0.091529	0.0910666	-0.0398551	2	-0.000731755	41	21.005	-3.62947e-06
2	0	0	1	1	112.976	0.0865314	0.0862642	-0.0395501	2	-0.00074168	41	21.2549	-3.41176e-06
2	0	0	1	1	113.226	0.0815338	0.0812976	-0.0392489	2	-0.00075153	41	21.5048	-3.19084e-06
2	0	0	1	1	113.476	0.0765361	0.0761571	-0.0389673	2	-0.000761305	41	21.7546	-2.96763e-06
2	0	0	1	1	113.726	0.0715385	0.0714226	-0.038726	2	-0.000771019	41	22.0045	-2.76591e-06
2	0	0	1	1	113.976	0.0665409	0.0663844	-0.0384714	2	-0.000780667	41	22.2544	-2.5539e-06
2	0	0	1	1	114.226	0.0615433	0.0611596	-0.0382248	2	-0.000790256	41	22.5043	-2.33781e-06
2	0	0	1	1	114.476	0.0565456	0.0563781	-0.0380339	2	-0.000799786	41	22.7542	-2.14428e-06
2	0	0	1	1	114.726	0.0515485	0.0512191	-0.037762	2	-0.000809256	41	23.004	-1.93414e-06
2	0	0	1	1	114.975	0.0465504	0.0460487	-0.0375681	2	-0.000818677	41	23.2539	-1.72996e-06
2	0	0	1	1	115.225	0.0415528	0.0414367	-0.037352	2	-0.000828045	41	23.5038	-1.54775e-06
2	0	0	1	1	115.475	0.0365551	0.0362683	-0.0371566	2	-0.000837363	41	23.7537	-1.34761e-06
2	0	0	1	1	115.725	0.0315575	0.0311476	-0.0369677	2	-0.000846634	41	24.0036	-1.15145e-06
2	0	0	1	1	115.975	0.0265617	0.0263705	-0.0368252	2	-0.000855855	41	24.2534	-9.71098e-07
2	0	0	1	1	116.225	0.0215623	0.0212169	-0.0366243	2	-0.000865035	41	24.5033	-7.77054e-07
2	0	0	1	1	116.475	0.0165646	0.016137	-0.0364688	2	-0.000874171	41	24.7532	-5.88496e-07
2	0	0	1	1	116.725	0.011567	0.0113331	-0.0363021	2	-0.000883265	41	25.0031	-4.11416e-07
2	0	0	1	1	116.975	0.0065694	0.00626142	-0.0361421	2	-0.000892321	41	25.253	-2.26301e-07
2	0	0	1	1	117.224	0.00157177	0.000925695	-0.0359589	2	-0.00090134	41	25.5029	-3.3287e-08
2	0	0	1	0	117.442	0.0027712	0.00250693	-0.0349234	2	-0.000909034	41	25.7206	-8.75506e-08
2	0	0	1	0	117.692	0.00776883	0.00758644	-0.0346471	2	-0.000917714	41	25.9705	-2.62848e-07
2	0	0	1	0	117.942	0.0127665	0.0124118	-0.0344633	2	-0.000926345	41	26.2204	-4.27751e-07
2	0	0	1	0	118.192	0.0177623	0.0174513	-0.0343125	2	-0.00093493	41	26.4702	-5.988e-07
2	0	0	1	0	118.442	0.0227617	0.0224873	-0.0341769	2	-0.000943482	41	26.7201	-7.68546e-07
2	0	0	1	0	118.692	0.0277593	0.0274898	-0.0340566	2	-0.000951997	41	26.97	-9.36209e-07
2	0	0	1	0	118.941	0.032757	0.032649	-0.0339116	2	-0.000960479	41	27.2199	-1.10718e-06
2	0	0	1	0	119.191	0.0377546	0.0374675	-0.0337962	2	-0.000968931	41	27.4698	-1.26626e-06
2	0	0	1	0	119.441	0.0427522	0.0426349	-0.033691	2	-0.000977356	41	27.7197	-1.43641e-06
2	0	0	1	0	119.691	0.0477498	0.0476043	-0.0336138	2	-0.000985753	41	27.9695	-1.60016e-06
2	0	0	1	0	119.941	0.0527475	0.0524315	-0.0335067	2	-0.000994131	41	28.2194	-1.75681e-06
2	0	0	1	0	120.191	0.0577451	0.0575793	-0.0334224	2	-0.00100249	41	28.4693	-1.92444e-06
2	0	0	1	0	120.441	0.0627427	0.062556	-0.0333325	2	-0.00101082	41	28.7192	-2.08515e-06
2	0	0	1	0	120.691	0.0677403	0.0675258	-0.0332175	2	-0.00101913	41	28.9691	-2.24304e-06
2	0	0	1	0	120.941	0.0727393	0.0724981	-0.0331134	2	-0.00102741	41	29.219	-2.40065e-06
2	0	0	1	0	121.19	0.0777356	0.0774491	-0.0330528	2	-0.00103567	41	29.4688	-2.55991e-06
2	0	0	1	0	121.44	0.0827332	0.0825714	-0.0329998	2	-0.00104392	41	29.7187	-2.72484e-06
2	0	0	1	0	121.69	0.0877308	0.0875534	-0.0329405	2	-0.00105216	41	29.9686	-2.88405e-06
2	0	0	1	0	121.94	0.0927285	0.0925988	-0.0328731	2	-0.00106037	41	30.2185	-3.04401e-06
2	0	0	1	0	122.19	0.0977265	0.0973352	-0.0327842	2	-0.00106857	41	30.4684	-3.19105e-06
2	0	0	1	0	122.44	0.102724	0.10228	-0.0327486	2	-0.00107675	41	30.7182	-3.34951e-06
2	0	0	1	0	122.69	0.107721	0.10757	-0.0327126	2	-0.00108492	41	30.9681	-3.51889e-06
2	0	0	1	0	122.94	0.112719	0.112407	-0.0326325	2	-0.00109308	41	31.218	-3.66811e-06
2	0	0	1	0	123.189	0.117717	0.1175	-0.0326211	2	-0.00110123	41	31.4679	-3.83299e-06
2	0	0	1	0	123.439	0.122714	0.122591	-0.0325513	2	-0.00110937	41	31.7178	-3.99051e-06
2	0	0	1	0	123.689	0.127712	0.127224	-0.0325126	2	-0.00111749	41	31.9676	-4.1364e-06
2	0	0	1	0	123.939	0.132709	0.132275	-0.0324855	2	-0.00112561	41	32.2175	-4.29703e-06
2	0	0	1	0	124.189	0.137707	0.137389	-0.0324451	2	-0.00113372	41	32.4674	-4.45758e-06
2	0	0	1	0	124.439	0.142705	0.142297	-0.0323939	2	-0.00114182	41	32.7173	-4.60956e-06
2	0	0	1	0	124.689	0.147702	0.147744	-0.0323794	2	-0.00114991	41	32.9672	-4.78386e-06
2	0	0	1	0	124.939	0.152699	0.152488	-0.0323554	2	-0.00115799	41	33.217	-4.9338e-06
2	0	0	1	0	125.188	0.157698	0.157466	-0.0323412	2	-0.00116606	41	33.4669	-5.09263e-06
2	0	0	1	0	125.438	0.162695	0.162622	-0.0323349	2	-0.00117414	41	33.7168	-5.25836e-06
2	0	0	1	0	125.688	0.167693	0.167507	-0.0322994	2	-0.0011822	41	33.9667	-5.41038e-06
2	0	0	1	0	125.938	0.17269	0.172623	-0.0322704	2	-0.00119026	41	34.2166	-5.57061e-06
2	0	0	1	0	126.188	0.177686	0.177469	-0.0322022	2	-0.00119831	41	34.4664	-5.71488e-06
2	0	0	1	0	126.438	0.182686	0.182103	-0.0322026	2	-0.00120635	41	34.7163	-5.86419e-06
2	0	0	1	0	126.688	0.187683	0.187473	-0.0322029	2	-0.00121439	41	34.9662	-6.03719e-06
2	0	0	1	0	126.938	0.192681	0.192663	-0.0321531	2	-0.00122242	41	35.2161	-6.1947e-06
2	0	0	1	0	127.188	0.197679	0.197487	-0.0321018	2	-0.00123045	41	35.466	-6.33969e-06
2	0	0	1	0	127.437	0.202676	0.202485	-0.0321242	2	-0.00123847	41	35.7159	-6.50466e-06
2	0	0	1	0	127.687	0.207674	0.207298	-0.0320975	2	-0.00124649	41	35.9657	-6.65376e-06
2	0	0	1	0	127.937	0.212671	0.212056	-0.0320472	2	-0.0012545	41	36.2156	-6.7958e-06
2	0	0	1	0	128.187	0.217669	0.217379	-0.0320358	2	-0.00126251	41	36.4655	-6.96389e-06
2	0	0	1	0	128.437	0.222667	0.222297	-0.0320364	2	-0.0012705	41	36.7154	-7.12159e-06
2	0	0	1	0	128.687	0.227664	0.22708	-0.0319783	2	-0.0012785	41	36.9653	-7.26164e-06
2	0	0	1	0	128.937	0.232663	0.232513	-0.0319373	2	-0.00128648	41	37.2152	-7.42582e-06
2	0	0	1	0	129.187	0.23766	0.237109	-0.0318802	2	-0.00129445	41	37.465	-7.5591e-06
2	0	0	1	0	129.436	0.242657	0.242639	-0.0318639	2	-0.00130241	41	37.7149	-7.73141e-06
2	0	0	1	0	129.686	0.247655	0.247513	-0.0318093	2	-0.00131036	41	37.9648	-7.87322e-06
2	0	0	1	0	129.936	0.252652	0.252222	-0.0317619	2	-0.0013183	41	38.2147	-8.01105e-06
2	0	0	1	0	130.186	0.25765	0.25765	-0.031704	2	-0.00132623	41	38.4646	-8.16855e-06
2	0	0	1	0	130.436	0.262648	0.26257	-0.0316686	2	-0.00133413	41	38.7144	-8.31521e-06
2	0	0	1	0	130.686	0.267645	0.267242	-0.0315407	2	-0.00134203	41	38.9643	-8.42901e-06
2	0	0	1	0	130.936	0.272643	0.272457	-0.0314606	2	-0.0013499	41	39.2142	-8.57166e-06
2	0	0	1	0	131.186	0.277641	0.277719	-0.0313378	2	-0.00135774	41	39.4641	-8.70309e-06
2	0	0	1	0	131.436	0.282638	0.28251	-0.0312422	2	-0.00136555	41	39.714	-8.82624e-06
2	0	0	1	0	131.685	0.287636	0.287297	-0.0310626	2	-0.00137333	41	39.9638	-8.92421e-06
2	0	0	1	0	131.935	0.292633	0.292469	-0.0308965	2	-0.00138107	41	40.2137	-9.03628e-06
2	0	0	1	0	132.185	0.297631	0.297417	-0.0307088	2	-0.00138876	41	40.4636	-9.13332e-06
2	0	0	1	0	132.435	0.302629	0.302404	-0.0304842	2	-0.0013964	41	40.7135	-9.21854e-06
2	0	0	1	0	132.685	0.307626	0.30722	-0.0301837	2	-0.00140397	41	40.9634	-9.27304e-06
2	0	0	1	0	132.935	0.312623	0.312326	-0.0298658	2	-0.00141147	41	41.2132	-9.32785e-06
2	0	0	1	0	133.185	0.317622	0.317562	-0.0295084	2	-0.00141889	41	41.4631	-9.37074e-06
2	0	0	1	0	133.435	0.322619	0.32227	-0.0290607	2	-0.0014262	41	41.713	-9.36539e-06
2	0	0	1	0	133.684	0.327617	0.327079	-0.0285498	2	-0.0014334	41	41.9629	-9.33806e-06
2	0	0	1	0	133.934	0.332614	0.332136	-0.0279728	2	-0.00144046	41	42.2128	-9.29078e-06
2	0	0	1	0	134.184	0.337612	0.337133	-0.0272934	2	-0.00144737	41	42.4627	-9.2015e-06
2	0	0	1	0	134.434	0.34261	0.3422	-0.0265221	2	-0.0014541	41	42.7125	-9.07585e-06
2	0	0	1	0	134.684	0.347607	0.347487	-0.025635	2	-0.00146062	41	42.9624	-8.90781e-06
2	0	0	1	0	134.934	0.352605	0.35229	-0.024589	2	-0.00146689	41	43.2123	-8.66244e-06
2	0	0	1	0	135.184	0.357603	0.357341	-0.0233362	2	-0.00147288	41	43.4622	-8.33899e-06
2	0	0	1	0	135.434	0.3626	0.362528	-0.0219283	2	-0.00147853	41	43.7121	-7.94964e-06
2	0	0	1	0	135.684	0.3676	0.367343	-0.0202205	2	-0.00148379	41	43.962	-7.42785e-06
2	0	0	1	0	135.933	0.372595	0.372195	-0.0181982	2	-0.00148859	41	44.2118	-6.77326e-06
2	0	0	1	0	136.183	0.377593	0.377148	-0.0157535	2	-0.00149284	41	44.4617	-5.94141e-06
2	0	0	1	0	136.433	0.382591	0.38255	-0.0129566	2	-0.00149643	41	44.7116	-4.95654e-06
2	0	0	1	0	136.683	0.387588	0.387099	-0.00964295	2	-0.00149926	41	44.9615	-3.73278e-06
2	0	0	1	0	136.933	0.392587	0.39226	-0.00567841	2	-0.00150118	41	45.2114	-2.22741e-06
2	0	0	1	0	137.213	0.398183	0.398042	-0.000497443	2	-0.00150208	42	45.4912	-1.98003e-07
2	1	0	1	0	137.463	0.403181	0.402956	0.00488857	2	-0.00150155	42	0.1999	1.96988e-06
2	1	0	1	0	137.728	0.408478	0.40806	0.0113738	2	-0.0014994	42	0.4648	4.64118e-06
2	1	0	1	0	137.992	0.413775	0.413182	0.0190428	2	-0.00149539	41	0.7296	7.86813e-06
2	1	0	1	0	138.242	0.418774	0.418227	0.027136	2	-0.00148963	41	0.9795	1.1349e-05
2	1	0	1	0	138.492	0.423771	0.423288	0.0359955	2	-0.00148175	41	1.2294	1.52365e-05
2	1	0	1	0	138.742	0.428769	0.428351	0.0457741	2	-0.00147153	41	1.4793	1.96074e-05
2	1	0	1	0	138.992	0.433766	0.433582	0.0562442	2	-0.00145878	41	1.7292	2.43864e-05
2	1	0	1	0	139.242	0.438762	0.438519	0.0672431	2	-0.00144336	41	1.979	2.94874e-05
2	1	0	1	0	139.492	0.443762	0.443621	0.0786749	2	-0.00142512	41	2.2289	3.49019e-05
2	1	0	1	0	139.742	0.448759	0.448582	0.0901036	2	-0.00140403	41	2.4788	4.04188e-05
2	1	0	0	0	139.886	0.451683	0.450623	0.0968826	2	-0.00139057	41	2.6228	4.36575e-05