File: Python/Data/GoldElectrode/240313/240313-CVEIS_Activation-0p5H2SO4-Ag_AgCl_BLF8-Au_RDE-80cycles_08_PEIS_C15.mpt
EC-Lab ASCII FILE
Nb header lines : 66

Potentio Electrochemical Impedance Spectroscopy

Run on channel : 15 (SN 19485)
User :
Electrode connection : standard
Potential control : Ewe
Ewe ctrl range : min = -2.50 V, max = 2.50 V
Ewe,I filtering : 50 kHz
Safety Limits :
	Do not start on E overload
Channel : Floating
Acquisition started on : 03/13/2024 15:25:11.595
Loaded Setting File :  C:\Data\mathias\GoldElectrode\240308-CVEIS_Activation-0p5H2SO4-Ag_AgCl_BLF8-Au_RDE-80cycles-C15.mps
Saved on :
	File : 240313-CVEIS_Activation-0p5H2SO4-Ag_AgCl_BLF8-Au_RDE-80cycles_08_PEIS_C15.mpr
	Directory : C:\Data\mathias\GoldElectrode\
	Host : 192.168.0.1
Device : VMP-300 (SN 0826)
Address : USB
EC-Lab for windows v11.52 (software)
Internet server v11.52 (firmware)
Command interpretor v11.52 (firmware)
Electrode material :
Initial state :
Electrolyte :
Comments :
Cable : special
Electrode surface area : 0.001 cm²
Characteristic mass : 0.001 g
Equivalent Weight : 0.000 g/eq.
Density : 0.000 g/cm3
Volume (V) : 0.001 cm³
Record EIS quality indicators
Cycle Definition : Charge/Discharge alternance
Mode                Single sine
E (V)               0.0000
vs.                 Eoc
tE (h:m:s)          0:00:0.0000
record              0
dI                  0.000
unit dI             mA
dt (s)              0.000
fi                  100.000
unit fi             kHz
ff                  100.000
unit ff             Hz
Nd                  10
Points              per decade
spacing             Logarithmic
Va (mV)             5.0
pw                  0.10
Na                  2
corr                0
E range min (V)     -2.500
E range max (V)     2.500
I Range             Auto
Bandwidth           8
nc cycles           0
goto Ns'            0
nr cycles           0
inc. cycle          0

freq/Hz	Re(Z)/Ohm	-Im(Z)/Ohm	|Z|/Ohm	Phase(Z)/deg	time/s	<Ewe>/V	<I>/mA	Cs/µF	Cp/µF	cycle number	I Range	|Ewe|/V	|I|/A	Ns	(Q-Qo)/mA.h	THD Ewe/%	NSD Ewe/%	NSR Ewe/%	|Ewe h2|/V	|Ewe h3|/V	|Ewe h4|/V	|Ewe h5|/V	|Ewe h6|/V	|Ewe h7|/V	THD I/%	NSD I/%	NSR I/%	|I h2|/A	|I h3|/A	|I h4|/A	|I h5|/A	|I h6|/A	|I h7|/A	Re(Y)/Ohm-1	Im(Y)/Ohm-1	|Y|/Ohm-1	Phase(Y)/deg	Re(C)/nF	Im(C)/nF	|C|/nF	Phase(C)/deg	Re(M)	Im(M)	|M|	Phase(M)/deg	Re(Permittivity)	Im(Permittivity)	|Permittivity|	Phase(Permittivity)/deg	Re(Resistivity)/Ohm.cm	Im(Resistivity)/Ohm.cm	|Resistivity|/Ohm.cm	Phase(Resistivity)/deg	Re(Conductivity)/mS/cm	Im(Conductivity)/mS/cm	|Conductivity|/mS/cm	Phase(Conductivity)/deg	Tan(Delta)	Loss Angle(Delta)/deg	dq/mA.h
100004	7.42831	0.649007	7.4566	-4.99322	1163.72	0.448435	-0.0190777	2.45219	0.0185768	1	38	0.00484518	0.000649783	0	-5.7318e-06	2.61235	1.34419	51.6468	5.3975e-05	5.11574e-05	5.72473e-05	1.81133e-05	3.81121e-05	6.03053e-05	0.321008	0.19264	5.92382	7.49394e-07	8.68602e-07	7.86504e-07	8.2892e-07	5.97795e-07	6.39997e-07	0.1336	0.0116726	0.134109	4.99322	18.5768	212.624	213.434	-85.0068	0.0000000E+000	0.0000000E+000	0.0000000E+000	85.0068	0.0000000E+000	0.0000000E+000	0.0000000E+000	-85.0068	0.0000000E+000	0.0000000E+000	0.0000000E+000	-4.99322	0.0000000E+000	0.0000000E+000	0.0000000E+000	4.99322	11.4457	85.0068	-5.7318e-06
79433.3	7.41001	0.617753	7.43571	-4.76558	1164.53	0.448451	-0.00921501	3.24342	0.0223866	1	38	0.00506959	0.00068179	0	-8.56424e-06	2.07883	1.12526	46.8917	3.79086e-05	4.77791e-05	4.35353e-05	1.67691e-05	2.04021e-05	5.91509e-05	0.242666	0.149964	5.62674	7.76718e-07	7.61836e-07	6.08997e-07	1.15729e-07	9.25377e-07	3.45698e-07	0.134021	0.011173	0.134486	4.76558	22.3866	268.529	269.46	-85.2344	0.0000000E+000	0.0000000E+000	0.0000000E+000	85.2344	0.0000000E+000	0.0000000E+000	0.0000000E+000	-85.2344	0.0000000E+000	0.0000000E+000	0.0000000E+000	-4.76558	0.0000000E+000	0.0000000E+000	0.0000000E+000	4.76558	11.9951	85.2344	-2.83245e-06
63093.8	7.49687	0.575299	7.51891	-4.3882	1165.34	0.448458	-0.0102987	4.3847	0.0256695	1	38	0.00514233	0.00068392	0	-1.16125e-05	3.79258	1.80134	46.6317	0.000155295	4.93801e-05	4.98071e-05	3.80275e-05	5.51041e-05	5.81098e-05	0.442531	0.200408	5.62255	2.70745e-06	5.48455e-07	5.73719e-07	8.8559e-07	2.94877e-07	5.08837e-07	0.132608	0.0101762	0.132998	4.3882	25.6695	334.506	335.489	-85.6118	0.0000000E+000	0.0000000E+000	0.0000000E+000	85.6118	0.0000000E+000	0.0000000E+000	0.0000000E+000	-85.6118	0.0000000E+000	0.0000000E+000	0.0000000E+000	-4.3882	0.0000000E+000	0.0000000E+000	0.0000000E+000	4.3882	13.0312	85.6118	-3.04822e-06
50122.5	7.48956	0.531865	7.50842	-4.06199	1166.16	0.448434	-0.009269	5.97016	0.0299566	1	38	0.00505174	0.00067281	0	-1.55031e-05	1.87847	1.12343	45.957	4.22155e-05	4.42207e-05	5.15547e-05	1.96567e-05	1.96001e-05	1.07731e-05	0.267954	0.224603	5.59201	7.4867e-07	6.43907e-07	4.96195e-07	4.494e-07	7.62157e-07	1.02592e-06	0.132849	0.00943418	0.133184	4.06199	29.9566	421.839	422.901	-85.938	0.0000000E+000	0.0000000E+000	0.0000000E+000	85.938	0.0000000E+000	0.0000000E+000	0.0000000E+000	-85.938	0.0000000E+000	0.0000000E+000	0.0000000E+000	-4.06199	0.0000000E+000	0.0000000E+000	0.0000000E+000	4.06199	14.0817	85.938	-3.89069e-06
39814.1	7.51502	0.534646	7.53401	-4.06937	1166.97	0.448463	-0.00941424	7.47683	0.0376528	1	38	0.00511726	0.000679221	0	-1.73368e-05	1.93706	0.957519	45.0365	3.20266e-05	2.59527e-05	7.28465e-05	2.28247e-05	3.01159e-05	2.46482e-05	0.312679	0.141686	5.67142	8.27598e-07	6.51574e-07	4.50744e-07	1.20381e-06	9.58796e-07	5.17827e-07	0.132397	0.00941919	0.132731	4.06937	37.6528	529.25	530.588	-85.9306	0.0000000E+000	0.0000000E+000	0.0000000E+000	85.9306	0.0000000E+000	0.0000000E+000	0.0000000E+000	-85.9306	0.0000000E+000	0.0000000E+000	0.0000000E+000	-4.06937	0.0000000E+000	0.0000000E+000	0.0000000E+000	4.06937	14.0561	85.9306	-1.83363e-06
31621.1	7.5301	0.576675	7.55215	-4.37932	1167.79	0.448483	-0.00860616	8.72793	0.0508901	1	38	0.00516127	0.000683417	0	-1.85802e-05	2.26967	1.48056	44.7451	5.32793e-05	2.50466e-05	6.79721e-05	1.82996e-05	2.39038e-05	6.35253e-05	0.293728	0.164456	5.44836	4.19631e-07	9.10279e-07	8.68714e-07	5.77573e-07	6.80942e-07	9.66132e-07	0.132026	0.0101109	0.132413	4.37932	50.8901	664.511	666.457	-85.6207	0.0000000E+000	0.0000000E+000	0.0000000E+000	85.6207	0.0000000E+000	0.0000000E+000	0.0000000E+000	-85.6207	0.0000000E+000	0.0000000E+000	0.0000000E+000	-4.37932	0.0000000E+000	0.0000000E+000	0.0000000E+000	4.37932	13.0578	85.6207	-1.24345e-06
25116.9	7.56485	0.78434	7.6054	-5.9194	1168.6	0.448478	-0.00873277	8.07885	0.0859239	1	38	0.0051882	0.000682172	0	-2.00358e-05	2.77354	1.30413	46.4026	6.9878e-05	5.49377e-05	3.69742e-05	5.55357e-05	5.48708e-05	1.93083e-05	0.321956	0.340293	5.54768	7.60249e-07	1.17883e-06	5.67637e-07	1.10271e-06	7.05713e-07	8.20359e-07	0.130784	0.01356	0.131485	5.9194	85.9239	828.724	833.166	-84.0806	0.0000000E+000	0.0000000E+000	0.0000000E+000	84.0806	0.0000000E+000	0.0000000E+000	0.0000000E+000	-84.0806	0.0000000E+000	0.0000000E+000	0.0000000E+000	-5.9194	0.0000000E+000	0.0000000E+000	0.0000000E+000	5.9194	9.64486	84.0806	-1.45554e-06
19948.8	7.63353	0.819796	7.67743	-6.12973	1169.41	0.448479	-0.00906978	9.7319	0.110963	1	38	0.00511559	0.000666316	0	-2.16738e-05	5.87624	2.1328	45.5283	6.21673e-05	4.58462e-05	0.000268115	4.96841e-05	5.47367e-05	7.54714e-05	0.630893	0.161883	5.72175	6.98942e-07	6.27941e-07	3.97225e-06	5.41873e-07	4.07258e-07	5.65632e-07	0.129507	0.0139083	0.130252	6.12973	110.963	1033.23	1039.17	-83.8703	0.0000000E+000	0.0000000E+000	0.0000000E+000	83.8703	0.0000000E+000	0.0000000E+000	0.0000000E+000	-83.8703	0.0000000E+000	0.0000000E+000	0.0000000E+000	-6.12973	0.0000000E+000	0.0000000E+000	0.0000000E+000	6.12973	9.3115	83.8703	-1.63801e-06
15847.7	7.61206	0.899156	7.66498	-6.73671	1170.23	0.448502	-0.00785393	11.1691	0.153698	1	38	0.00509854	0.000665173	0	-2.44981e-05	2.73308	0.99544	46.7605	4.62897e-05	4.58151e-05	6.74063e-05	3.56276e-05	4.57637e-05	7.81876e-05	0.317843	0.163223	5.5211	1.17914e-06	8.2109e-07	6.34479e-07	8.8398e-07	3.71262e-07	9.04569e-07	0.129563	0.0153043	0.130464	6.73671	153.698	1301.17	1310.22	-83.2633	0.0000000E+000	0.0000000E+000	0.0000000E+000	83.2633	0.0000000E+000	0.0000000E+000	0.0000000E+000	-83.2633	0.0000000E+000	0.0000000E+000	0.0000000E+000	-6.73671	0.0000000E+000	0.0000000E+000	0.0000000E+000	6.73671	8.46578	83.2633	-2.82433e-06
12590.9	7.71012	1.07555	7.78477	-7.94144	1171.04	0.448511	-0.00887986	11.7525	0.224337	1	38	0.00508841	0.000653637	0	-2.6886e-05	2.91619	1.55007	47.3639	5.24144e-05	6.9259e-05	5.90229e-05	3.00493e-05	9.88773e-06	9.16841e-05	0.264565	0.299936	5.95188	7.27311e-07	3.682e-07	2.35377e-07	5.14318e-07	4.01208e-07	1.13833e-06	0.127224	0.0177476	0.128456	7.94144	224.337	1608.17	1623.74	-82.0586	0.0000000E+000	0.0000000E+000	0.0000000E+000	82.0586	0.0000000E+000	0.0000000E+000	0.0000000E+000	-82.0586	0.0000000E+000	0.0000000E+000	0.0000000E+000	-7.94144	0.0000000E+000	0.0000000E+000	0.0000000E+000	7.94144	7.16852	82.0586	-2.38792e-06
10002.2	7.70105	1.21211	7.79586	-8.94473	1171.86	0.448447	-0.0082617	13.1275	0.31735	1	38	0.00502445	0.000644503	0	-2.94712e-05	2.6578	1.05326	46.5564	2.53083e-05	3.15317e-05	5.21128e-05	8.96091e-05	5.33024e-05	2.2963e-05	0.226686	0.121811	5.96424	3.37977e-07	4.48731e-07	6.07719e-07	1.01389e-06	5.63383e-07	2.03881e-07	0.126713	0.0199441	0.128273	8.94473	317.35	2016.26	2041.08	-81.0553	0.0000000E+000	0.0000000E+000	0.0000000E+000	81.0553	0.0000000E+000	0.0000000E+000	0.0000000E+000	-81.0553	0.0000000E+000	0.0000000E+000	0.0000000E+000	-8.94473	0.0000000E+000	0.0000000E+000	0.0000000E+000	8.94473	6.35341	81.0553	-2.58516e-06
7944	7.78654	1.41988	7.91494	-10.3344	1172.71	0.448394	-0.00769194	14.1101	0.454087	1	38	0.0051935	0.000656165	0	-3.20327e-05	2.37994	0.705584	45.7399	5.05028e-05	4.00945e-05	4.5758e-05	2.73776e-05	6.6548e-05	4.8954e-05	0.328774	0.168399	6.01558	7.95675e-07	1.24458e-06	7.13063e-07	3.01763e-07	1.1116e-06	4.60441e-07	0.124294	0.0226651	0.126343	10.3344	454.087	2490.18	2531.24	-79.6656	0.0000000E+000	0.0000000E+000	0.0000000E+000	79.6656	0.0000000E+000	0.0000000E+000	0.0000000E+000	-79.6656	0.0000000E+000	0.0000000E+000	0.0000000E+000	-10.3344	0.0000000E+000	0.0000000E+000	0.0000000E+000	10.3344	5.48393	79.6656	-2.56147e-06
6307.74	7.80153	1.69921	7.98443	-12.2874	1173.61	0.448353	-0.00772918	14.8491	0.67252	1	38	0.00493254	0.00061777	0	-3.37859e-05	2.62791	1.69289	47.8811	4.77155e-05	5.53979e-05	4.87307e-05	4.47305e-05	5.08047e-05	5.3068e-05	0.350269	0.23334	6.17676	8.86641e-07	9.66896e-07	9.58018e-07	7.47343e-07	7.45338e-07	6.94073e-07	0.122375	0.0266538	0.125244	12.2874	672.52	3087.72	3160.11	-77.7126	0.0000000E+000	0.0000000E+000	0.0000000E+000	77.7126	0.0000000E+000	0.0000000E+000	0.0000000E+000	-77.7126	0.0000000E+000	0.0000000E+000	0.0000000E+000	-12.2874	0.0000000E+000	0.0000000E+000	0.0000000E+000	12.2874	4.59128	77.7126	-1.75323e-06
5011.6	7.91848	2.14943	8.20502	-15.1867	1174.36	0.448407	-0.00746293	14.7748	1.01393	1	38	0.00535402	0.00065253	0	-3.58911e-05	2.43526	1.56559	44.1779	3.73243e-05	4.52115e-05	7.072e-05	4.35804e-05	3.27709e-05	4.90729e-05	0.375456	0.20057	5.79421	1.12952e-06	7.17274e-07	1.81899e-06	7.19254e-07	4.65616e-07	2.16238e-07	0.11762	0.0319274	0.121877	15.1867	1013.93	3735.3	3870.47	-74.8133	0.0000000E+000	0.0000000E+000	0.0000000E+000	74.8133	0.0000000E+000	0.0000000E+000	0.0000000E+000	-74.8133	0.0000000E+000	0.0000000E+000	0.0000000E+000	-15.1867	0.0000000E+000	0.0000000E+000	0.0000000E+000	15.1867	3.68399	74.8133	-2.10522e-06
3981.28	8.0035	2.5933	8.41315	-17.9534	1175.33	0.448379	-0.00792096	15.4151	1.46464	1	38	0.00517988	0.000615689	0	-3.71777e-05	2.67117	1.37909	46.6318	3.75673e-05	2.74266e-05	4.08358e-05	6.91626e-05	7.39259e-05	6.14794e-05	0.289241	0.194361	6.47749	9.97553e-07	2.5767e-07	4.46272e-07	8.83985e-07	7.45547e-07	3.15324e-07	0.113074	0.0366382	0.118862	17.9534	1464.64	4520.22	4751.59	-72.0466	0.0000000E+000	0.0000000E+000	0.0000000E+000	72.0466	0.0000000E+000	0.0000000E+000	0.0000000E+000	-72.0466	0.0000000E+000	0.0000000E+000	0.0000000E+000	-17.9534	0.0000000E+000	0.0000000E+000	0.0000000E+000	17.9534	3.08623	72.0466	-1.28655e-06
3163.04	7.96592	3.15723	8.56878	-21.6205	1176.07	0.448329	-0.00784276	15.9371	2.16363	1	38	0.00529654	0.00061812	0	-3.82926e-05	2.55583	1.2556	45.6332	5.71177e-05	6.54716e-05	2.55817e-05	5.16047e-05	3.63408e-05	6.42332e-05	0.333613	0.223485	6.30849	7.054e-07	9.69353e-07	5.7307e-07	1.02391e-06	5.47946e-07	1.03573e-06	0.108492	0.043	0.116703	21.6205	2163.63	5459	5872.14	-68.3795	0.0000000E+000	0.0000000E+000	0.0000000E+000	68.3795	0.0000000E+000	0.0000000E+000	0.0000000E+000	-68.3795	0.0000000E+000	0.0000000E+000	0.0000000E+000	-21.6205	0.0000000E+000	0.0000000E+000	0.0000000E+000	21.6205	2.52307	68.3795	-1.11492e-06
2512.41	8.11712	3.84905	8.98347	-25.3698	1176.81	0.448342	-0.00702165	16.458	3.02131	1	38	0.00542748	0.000604163	0	-4.02512e-05	1.84082	1.56065	44.0473	1.65129e-05	3.16594e-05	3.28267e-05	2.07174e-05	4.51537e-05	5.41397e-05	0.337948	0.25333	6.61897	4.07933e-07	8.81424e-07	5.85807e-07	1.23215e-06	7.97519e-07	4.99938e-07	0.10058	0.0476942	0.111316	25.3698	3021.31	6371.52	7051.56	-64.6302	0.0000000E+000	0.0000000E+000	0.0000000E+000	64.6302	0.0000000E+000	0.0000000E+000	0.0000000E+000	-64.6302	0.0000000E+000	0.0000000E+000	0.0000000E+000	-25.3698	0.0000000E+000	0.0000000E+000	0.0000000E+000	25.3698	2.10886	64.6302	-1.95859e-06
1995.64	7.90596	4.67332	9.1839	-30.5879	1177.78	0.448343	-0.0072395	17.0652	4.41885	1	38	0.00482625	0.000525511	0	-4.24399e-05	2.76951	3.63123	49.1855	3.4499e-05	4.38202e-05	3.48521e-05	5.42816e-05	5.28744e-05	8.67109e-05	0.408272	0.359711	7.50972	6.08715e-07	7.04632e-07	8.30547e-07	1.04982e-06	1.02599e-06	6.8416e-07	0.0937346	0.0554078	0.108886	30.5879	4418.85	7475.46	8683.82	-59.4121	0.0000000E+000	0.0000000E+000	0.0000000E+000	59.4121	0.0000000E+000	0.0000000E+000	0.0000000E+000	-59.4121	0.0000000E+000	0.0000000E+000	0.0000000E+000	-30.5879	0.0000000E+000	0.0000000E+000	0.0000000E+000	30.5879	1.69172	59.4121	-2.18877e-06
1584.49	8.19248	5.8448	10.0637	-35.5053	1178.52	0.448383	-0.0081686	17.1854	5.79672	1	38	0.00495726	0.000492588	0	-4.43077e-05	1.78799	0.630659	50.2607	3.19719e-05	3.30804e-05	2.34412e-05	3.86163e-05	3.36712e-05	3.5732e-05	0.450222	0.319988	8.08254	8.16817e-07	1.13061e-06	8.28656e-07	9.45678e-07	7.19059e-07	6.84426e-07	0.0808907	0.0577102	0.0993668	35.5053	5796.72	8125.1	9980.94	-54.4947	0.0000000E+000	0.0000000E+000	0.0000000E+000	54.4947	0.0000000E+000	0.0000000E+000	0.0000000E+000	-54.4947	0.0000000E+000	0.0000000E+000	0.0000000E+000	-35.5053	0.0000000E+000	0.0000000E+000	0.0000000E+000	35.5053	1.40167	54.4947	-1.8678e-06
1258.79	8.30201	7.26928	11.0348	-41.2056	1179.27	0.448333	-0.00759699	17.393	7.54802	1	38	0.00495529	0.000449062	0	-4.62014e-05	3.09183	1.79935	51.4872	6.32285e-05	4.92831e-05	6.84286e-05	7.60908e-05	2.32873e-05	5.65465e-05	0.541308	0.347763	8.67054	5.65378e-07	8.47789e-07	8.26923e-07	7.44162e-07	1.16861e-06	1.42816e-06	0.0681801	0.0596989	0.0906228	41.2056	7548.02	8620.34	11457.9	-48.7944	0.0000000E+000	0.0000000E+000	0.0000000E+000	48.7944	0.0000000E+000	0.0000000E+000	0.0000000E+000	-48.7944	0.0000000E+000	0.0000000E+000	0.0000000E+000	-41.2056	0.0000000E+000	0.0000000E+000	0.0000000E+000	41.2056	1.14207	48.7944	-1.89371e-06
999.682	8.29717	9.00928	12.2479	-47.3562	1180.01	0.448404	-0.00698069	17.6713	9.56154	1	38	0.00490574	0.000400539	0	-4.75164e-05	2.59691	0.685355	46.8507	5.08641e-05	4.69218e-05	6.63507e-05	6.28819e-05	3.1274e-05	4.00715e-05	0.476376	0.343731	9.75895	7.30196e-07	1.20899e-06	8.61534e-07	5.44513e-07	5.30701e-07	4.20441e-07	0.0553107	0.0600578	0.0816469	47.3562	9561.54	8805.77	12998.6	-42.6438	0.0000000E+000	0.0000000E+000	0.0000000E+000	42.6438	0.0000000E+000	0.0000000E+000	0.0000000E+000	-42.6438	0.0000000E+000	0.0000000E+000	0.0000000E+000	-47.3562	0.0000000E+000	0.0000000E+000	0.0000000E+000	47.3562	0.920958	42.6438	-1.31496e-06
794.239	8.36623	11.2166	13.993	-53.2814	1180.75	0.44832	-0.00790608	17.8652	11.479	1	38	0.00486573	0.000347725	0	-4.92952e-05	3.2365	2.09302	47.4783	4.40608e-05	3.92233e-05	5.32951e-05	8.01149e-05	4.67267e-05	8.84112e-05	0.648334	0.303306	10.8285	1.09445e-06	1.17459e-06	4.84725e-07	8.8895e-07	8.20087e-07	3.16876e-07	0.0427273	0.0572843	0.0714641	53.2814	11479	8561.99	14320.4	-36.7186	0.0000000E+000	0.0000000E+000	0.0000000E+000	36.7186	0.0000000E+000	0.0000000E+000	0.0000000E+000	-36.7186	0.0000000E+000	0.0000000E+000	0.0000000E+000	-53.2814	0.0000000E+000	0.0000000E+000	0.0000000E+000	53.2814	0.745882	36.7186	-1.77884e-06
631.01	8.5481	13.8143	16.2451	-58.2512	1181.5	0.448366	-0.00368135	18.2581	13.2028	1	38	0.00480551	0.000295813	0	-4.99738e-05	2.68633	1.09295	48.8124	4.57909e-05	7.66186e-05	3.26922e-05	1.89573e-05	3.66e-05	7.12402e-05	0.960554	0.324584	12.8802	7.95569e-07	1.99614e-06	8.14976e-07	4.70431e-07	6.86582e-07	1.17406e-06	0.032391	0.0523458	0.061557	58.2512	13202.8	8169.74	15526.1	-31.7488	0.0000000E+000	0.0000000E+000	0.0000000E+000	31.7488	0.0000000E+000	0.0000000E+000	0.0000000E+000	-31.7488	0.0000000E+000	0.0000000E+000	0.0000000E+000	-58.2512	0.0000000E+000	0.0000000E+000	0.0000000E+000	58.2512	0.618789	31.7487	-6.78611e-07
501.122	8.82143	16.9629	19.1196	-62.5237	1182.24	0.448391	-0.00458439	18.723	14.7374	1	38	0.00475206	0.000248544	0	-5.06977e-05	2.24095	1.8274	48.1714	3.41372e-05	6.2426e-05	3.29311e-05	3.4299e-05	3.63951e-05	4.52988e-05	0.595987	0.64759	15.7287	5.41711e-07	5.05475e-07	7.13143e-07	6.86801e-07	5.07631e-07	5.36077e-07	0.0241313	0.0464027	0.0523023	62.5237	14737.4	7664.04	16611.1	-27.4763	0.0000000E+000	0.0000000E+000	0.0000000E+000	27.4763	0.0000000E+000	0.0000000E+000	0.0000000E+000	-27.4763	0.0000000E+000	0.0000000E+000	0.0000000E+000	-62.5237	0.0000000E+000	0.0000000E+000	0.0000000E+000	62.5237	0.520042	27.4763	-7.23824e-07
398.089	9.06218	21.6258	23.4478	-67.2641	1182.98	0.44839	-0.00392899	18.4871	15.7257	1	38	0.00480569	0.000204953	0	-5.1444e-05	2.49943	1.60805	50.1955	6.3761e-05	2.12659e-05	3.21273e-05	3.65596e-05	4.99516e-05	6.40552e-05	1.13769	0.582361	18.5448	1.05695e-06	1.14436e-06	8.09226e-07	2.54516e-07	6.62587e-07	1.30281e-06	0.0164828	0.0393341	0.042648	67.2641	15725.7	6589.76	17050.6	-22.7359	0.0000000E+000	0.0000000E+000	0.0000000E+000	22.7359	0.0000000E+000	0.0000000E+000	0.0000000E+000	-22.7359	0.0000000E+000	0.0000000E+000	0.0000000E+000	-67.2641	0.0000000E+000	0.0000000E+000	0.0000000E+000	67.2641	0.419045	22.7359	-7.4637e-07
316.316	9.57325	26.826	28.483	-70.3603	1183.98	0.448396	-0.00081674	18.7561	16.6373	1	39	0.00494487	0.000173608	0	-5.21364e-05	2.55478	1.47037	45.4711	5.60623e-05	4.85046e-05	3.42816e-05	6.47222e-05	4.41103e-05	5.02909e-05	0.615624	0.392895	10.9492	5.29579e-07	4.55504e-07	3.37816e-07	6.54001e-07	2.22972e-07	1.58198e-07	0.0118002	0.0330662	0.0351087	70.3603	16637.3	5937.27	17665	-19.6397	0.0000000E+000	0.0000000E+000	0.0000000E+000	19.6397	0.0000000E+000	0.0000000E+000	0.0000000E+000	-19.6397	0.0000000E+000	0.0000000E+000	0.0000000E+000	-70.3603	0.0000000E+000	0.0000000E+000	0.0000000E+000	70.3603	0.356865	19.6397	-6.9237e-07
251.206	10.0137	33.8275	35.2785	-73.51	1184.72	0.448338	-6.84288e-05	18.7292	17.2202	1	39	0.0049093	0.000139158	0	-5.23294e-05	2.56774	1.75973	47.0263	4.52275e-05	2.76049e-05	7.66272e-05	4.09517e-05	4.80411e-05	4.76329e-05	0.893068	0.362461	13.9454	5.54962e-07	2.08653e-07	5.44972e-07	5.8499e-07	3.49613e-07	5.80821e-07	0.00804591	0.02718	0.0283458	73.51	17220.2	5097.6	17958.9	-16.49	0.0000000E+000	0.0000000E+000	0.0000000E+000	16.49	0.0000000E+000	0.0000000E+000	0.0000000E+000	-16.49	0.0000000E+000	0.0000000E+000	0.0000000E+000	-73.51	0.0000000E+000	0.0000000E+000	0.0000000E+000	73.51	0.296024	16.49	-1.92942e-07
199.553	10.5921	42.1755	43.4853	-75.9021	1185.47	0.448393	-0.000576126	18.9104	17.7884	1	39	0.00485357	0.000111614	0	-5.25048e-05	3.28541	1.21171	44.5869	5.80827e-05	7.19442e-05	7.54924e-05	4.98008e-05	4.88336e-05	6.71153e-05	1.37047	0.529565	16.7064	7.14797e-07	4.65489e-07	4.58885e-07	5.17962e-07	8.60529e-07	5.01697e-07	0.00560144	0.0223037	0.0229963	75.9021	17788.4	4467.46	18340.8	-14.0979	0.0000000E+000	0.0000000E+000	0.0000000E+000	14.0979	0.0000000E+000	0.0000000E+000	0.0000000E+000	-14.0979	0.0000000E+000	0.0000000E+000	0.0000000E+000	-75.9021	0.0000000E+000	0.0000000E+000	0.0000000E+000	75.9021	0.251144	14.0979	-1.75477e-07
158.529	10.7779	52.705	53.7958	-78.4427	1186.21	0.448378	-0.000593646	19.0484	18.2838	1	39	0.00482387	8.96702e-05	0	-5.24797e-05	2.28077	1.10219	45.9745	6.42491e-05	4.43404e-05	9.08921e-06	6.72246e-05	2.60113e-05	1.03285e-05	1.30243	0.737109	21.7393	6.71479e-07	5.20997e-07	2.30165e-07	6.61359e-07	2.03997e-07	1.46492e-07	0.00372424	0.0182119	0.0185888	78.4427	18283.8	3738.95	18662.2	-11.5573	0.0000000E+000	0.0000000E+000	0.0000000E+000	11.5573	0.0000000E+000	0.0000000E+000	0.0000000E+000	-11.5573	0.0000000E+000	0.0000000E+000	0.0000000E+000	-78.4427	0.0000000E+000	0.0000000E+000	0.0000000E+000	78.4427	0.204495	11.5573	2.51647e-08
125.927	11.9633	65.0594	66.1502	-79.5807	1186.96	0.448318	-0.000236917	19.4264	18.791	1	39	0.00476913	7.20955e-05	0	-5.25917e-05	2.32398	1.60375	47.836	2.36497e-05	3.45544e-05	5.27091e-05	5.5561e-05	3.49785e-05	5.09449e-05	1.62236	0.826695	26.932	5.33609e-07	4.82475e-07	4.79026e-07	6.25527e-07	3.92869e-07	2.49403e-07	0.00273394	0.0148678	0.0151171	79.5807	18791	3455.34	19106.1	-10.4193	0.0000000E+000	0.0000000E+000	0.0000000E+000	10.4193	0.0000000E+000	0.0000000E+000	0.0000000E+000	-10.4193	0.0000000E+000	0.0000000E+000	0.0000000E+000	-79.5807	0.0000000E+000	0.0000000E+000	0.0000000E+000	79.5807	0.183883	10.4193	-1.12028e-07
99.9682	13.4274	81.3726	82.473	-80.6299	1187.69	0.448374	-0.000556185	19.565	19.0464	1	39	0.0047484	5.75752e-05	0	-5.26353e-05	3.16908	1.4993	47.4811	2.8101e-05	7.4933e-05	7.60034e-05	3.1388e-05	8.18113e-05	3.85709e-05	2.04637	0.516067	31.281	3.49129e-07	6.40088e-07	3.38137e-07	6.67529e-07	3.81543e-07	2.80946e-07	0.00197411	0.0119634	0.0121252	80.6299	19046.4	3142.89	19304	-9.37006	0.0000000E+000	0.0000000E+000	0.0000000E+000	9.37006	0.0000000E+000	0.0000000E+000	0.0000000E+000	-9.37006	0.0000000E+000	0.0000000E+000	0.0000000E+000	-80.6299	0.0000000E+000	0.0000000E+000	0.0000000E+000	80.6299	0.165012	9.37006	-4.35842e-08