File: Python/Data/GoldElectrode/240313/240313-CVEIS_Activation-0p5H2SO4-Ag_AgCl_BLF8-Au_RDE-80cycles_01_CV_C15.mpt
EC-Lab ASCII FILE
Nb header lines : 60

Cyclic Voltammetry

Run on channel : 15 (SN 19485)
User :
Electrode connection : standard
Potential control : Ewe
Ewe ctrl range : min = -2.50 V, max = 2.50 V
Ewe,I filtering : 50 kHz
Safety Limits :
	Do not start on E overload
Channel : Floating
Acquisition started on : 03/13/2024 15:25:11.595
Loaded Setting File :  C:\Data\mathias\GoldElectrode\240308-CVEIS_Activation-0p5H2SO4-Ag_AgCl_BLF8-Au_RDE-80cycles-C15.mps
Saved on :
	File : 240313-CVEIS_Activation-0p5H2SO4-Ag_AgCl_BLF8-Au_RDE-80cycles_01_CV_C15.mpr
	Directory : C:\Data\mathias\GoldElectrode\
	Host : 192.168.0.1
Device : VMP-300 (SN 0826)
Address : USB
EC-Lab for windows v11.52 (software)
Internet server v11.52 (firmware)
Command interpretor v11.52 (firmware)
Electrode material :
Initial state :
Electrolyte :
Comments :
Cable : special
Electrode surface area : 0.001 cm²
Characteristic mass : 0.001 g
Equivalent Weight : 0.000 g/eq.
Density : 0.000 g/cm3
Volume (V) : 0.001 cm³
Record EIS quality indicators
Cycle Definition : Charge/Discharge alternance
Ei (V)              0.000
vs.                 Eoc
dE/dt               200.000
dE/dt unit          mV/s
E1 (V)              1.500
vs.                 Ref
Step percent        50
N                   10
E range min (V)     -2.500
E range max (V)     2.500
I Range             Auto
I Range min         Unset
I Range max         Unset
I Range init        Unset
Bandwidth           8
E2 (V)              -0.300
vs.                 Ref
nc cycles           0
Reverse Scan        1
Ef (V)              0.000
vs.                 Eoc

mode	ox/red	error	control changes	counter inc.	time/s	control/V	Ewe/V	<I>/mA	cycle number	(Q-Qo)/C	I Range	step time/s	P/W
2	1	1	0	0	0.000000000000000E+000	0.448618	0.448301	3.97203e-06	1	0.0000000E+000	45	0.000000000000000E+000	1.78066e-09
2	1	0	1	0	0.0627	0.461161	0.460936	0.00186863	1	7.89664e-08	42	0.0425	8.6132e-07
2	1	0	1	0	0.0927	0.467158	0.46693	0.00204141	1	1.37629e-07	42	0.0725	9.53194e-07
2	1	0	1	0	0.1227	0.473155	0.472921	0.00217253	1	2.00425e-07	42	0.1025	1.02743e-06
2	1	0	1	0	0.1527	0.479152	0.478902	0.00228169	1	2.66689e-07	42	0.1325	1.09271e-06
2	1	0	1	0	0.1827	0.485149	0.484897	0.00238444	1	3.35917e-07	42	0.1625	1.15621e-06
2	1	0	1	0	0.2126	0.491146	0.490909	0.0024841	1	4.07905e-07	42	0.1924	1.21947e-06
2	1	0	1	0	0.2426	0.497143	0.496906	0.00257103	1	4.8263e-07	42	0.2224	1.27756e-06
2	1	0	1	0	0.2726	0.50314	0.502898	0.00263717	1	5.60048e-07	42	0.2524	1.32623e-06
2	1	0	1	0	0.3026	0.509137	0.508885	0.0027179	1	6.39896e-07	42	0.2824	1.3831e-06
2	1	0	1	0	0.3326	0.515134	0.514886	0.00281826	1	7.22412e-07	42	0.3124	1.45108e-06
2	1	0	1	0	0.3626	0.521131	0.52089	0.00290834	1	8.07406e-07	42	0.3424	1.51492e-06
2	1	0	1	0	0.3926	0.527132	0.52688	0.00302589	1	8.95161e-07	42	0.3724	1.59428e-06
2	1	0	1	0	0.4225	0.533125	0.532862	0.00308642	1	9.85326e-07	42	0.4023	1.64464e-06
2	1	0	1	0	0.4525	0.539122	0.538854	0.00319052	1	1.07855e-06	42	0.4323	1.71923e-06
2	1	0	1	0	0.4825	0.545118	0.544837	0.00326764	1	1.17452e-06	42	0.4623	1.78033e-06
2	1	0	1	0	0.5125	0.551115	0.550867	0.00338087	1	1.27358e-06	42	0.4923	1.86241e-06
2	1	0	1	0	0.5425	0.557112	0.556871	0.00349018	1	1.37558e-06	42	0.5223	1.94358e-06
2	1	0	1	0	0.5725	0.563109	0.562851	0.00361575	1	1.48086e-06	42	0.5523	2.03513e-06
2	1	0	1	0	0.6024	0.569106	0.568836	0.00371094	1	1.58916e-06	42	0.5822	2.11092e-06
2	1	0	1	0	0.6324	0.575103	0.574851	0.00383707	1	1.70125e-06	42	0.6122	2.20574e-06
2	1	0	1	0	0.6624	0.5811	0.580818	0.00393058	1	1.81676e-06	42	0.6422	2.28295e-06
2	1	0	1	0	0.6924	0.587097	0.586817	0.00406288	1	1.93608e-06	42	0.6722	2.38417e-06
2	1	0	1	0	0.7224	0.593094	0.592829	0.00421666	1	2.05916e-06	42	0.7022	2.49976e-06
2	1	0	1	0	0.7524	0.599091	0.598807	0.00435137	1	2.18628e-06	42	0.7322	2.60563e-06
2	1	0	1	0	0.7824	0.605088	0.604832	0.00448523	1	2.31771e-06	42	0.7622	2.71281e-06
2	1	0	1	0	0.8123	0.611085	0.610801	0.00462882	1	2.4532e-06	42	0.7921	2.82729e-06
2	1	0	1	0	0.8423	0.617082	0.616829	0.00476719	1	2.59364e-06	42	0.8221	2.94054e-06
2	1	0	1	0	0.8723	0.623079	0.622806	0.00494792	1	2.73867e-06	42	0.8521	3.0816e-06
2	1	0	1	0	0.9023	0.629076	0.628812	0.00509548	1	2.88864e-06	42	0.8821	3.2041e-06
2	1	0	1	0	0.9323	0.635073	0.634809	0.00528806	1	3.04359e-06	42	0.9121	3.35691e-06
2	1	0	1	0	0.9623	0.64107	0.640804	0.00545233	1	3.20389e-06	42	0.9421	3.49387e-06
2	1	0	1	0	0.9922	0.647067	0.646823	0.00562536	1	3.36924e-06	42	0.972	3.63861e-06
2	1	0	1	0	1.0222	0.653064	0.652802	0.00579984	1	3.54047e-06	42	1.002	3.78615e-06
2	1	0	1	0	1.0522	0.659061	0.658811	0.00600206	1	3.71741e-06	42	1.032	3.95422e-06
2	1	0	1	0	1.0822	0.665058	0.664794	0.00620068	1	3.89999e-06	42	1.062	4.12218e-06
2	1	0	1	0	1.1122	0.671055	0.670782	0.00642881	1	4.08838e-06	42	1.092	4.31233e-06
2	1	0	1	0	1.1422	0.677051	0.676789	0.00659764	1	4.28268e-06	42	1.122	4.46521e-06
2	1	0	1	0	1.1722	0.683049	0.682766	0.00678052	1	4.48295e-06	42	1.152	4.62951e-06
2	1	0	1	0	1.2021	0.689045	0.688779	0.00696838	1	4.6886e-06	42	1.1819	4.79968e-06
2	1	0	1	0	1.2321	0.695042	0.694772	0.00717412	1	4.90056e-06	42	1.2119	4.98438e-06
2	1	0	1	0	1.2621	0.701039	0.700765	0.00736365	1	5.11823e-06	42	1.2419	5.16019e-06
2	1	0	1	0	1.2921	0.707036	0.706746	0.00757555	1	5.34171e-06	42	1.2719	5.35399e-06
2	1	0	1	0	1.3221	0.713033	0.712759	0.0077397	1	5.57071e-06	42	1.3019	5.51654e-06
2	1	0	1	0	1.3521	0.71903	0.718742	0.00792161	1	5.80522e-06	42	1.3319	5.6936e-06
2	1	0	1	0	1.382	0.725027	0.724749	0.00811513	1	6.0443e-06	42	1.3618	5.88143e-06
2	1	0	1	0	1.412	0.731024	0.730756	0.00826733	1	6.28947e-06	42	1.3918	6.0414e-06
2	1	0	1	0	1.442	0.737021	0.736753	0.00842843	1	6.53932e-06	42	1.4218	6.20967e-06
2	1	0	1	0	1.472	0.743018	0.742742	0.00860454	1	6.79401e-06	42	1.4518	6.39096e-06
2	1	0	1	0	1.502	0.749015	0.748732	0.00870278	1	7.05315e-06	42	1.4818	6.51605e-06
2	1	0	1	0	1.532	0.755012	0.754746	0.0088619	1	7.31674e-06	42	1.5118	6.68849e-06
2	1	0	1	0	1.562	0.761009	0.760755	0.00898565	1	7.58433e-06	42	1.5418	6.83588e-06
2	1	0	1	0	1.5919	0.767006	0.766739	0.00914574	1	7.8552e-06	42	1.5717	7.0124e-06
2	1	0	1	0	1.6219	0.773003	0.772733	0.00925269	1	8.13056e-06	42	1.6017	7.14985e-06
2	1	0	1	0	1.6519	0.779	0.778717	0.0093849	1	8.4095e-06	42	1.6317	7.30818e-06
2	1	0	1	0	1.6819	0.784997	0.784736	0.00946135	1	8.6919e-06	42	1.6617	7.42467e-06
2	1	0	1	0	1.7119	0.790994	0.790706	0.00958391	1	8.97747e-06	42	1.6917	7.57806e-06
2	1	0	1	0	1.7419	0.796991	0.796725	0.00965687	1	9.26611e-06	42	1.7217	7.69387e-06
2	1	0	1	0	1.7718	0.802974	0.802695	0.00978295	1	9.5567e-06	42	1.7516	7.85272e-06
2	1	0	1	0	1.8018	0.808985	0.808712	0.0098823	1	9.85154e-06	42	1.7816	7.99193e-06
2	1	0	1	0	1.8318	0.814982	0.814705	0.00997908	1	1.01488e-05	42	1.8116	8.13001e-06
2	1	0	1	0	1.8618	0.820979	0.820718	0.0100364	1	1.0449e-05	42	1.8416	8.23704e-06
2	1	0	1	0	1.8918	0.826975	0.826706	0.0101325	1	1.07517e-05	42	1.8716	8.37661e-06
2	1	0	1	0	1.9218	0.832972	0.832719	0.0102099	1	1.1057e-05	42	1.9016	8.50194e-06
2	1	0	1	0	1.9518	0.838969	0.838708	0.0102995	1	1.13649e-05	42	1.9316	8.63828e-06
2	1	0	1	0	1.9817	0.844966	0.844682	0.0103879	1	1.16744e-05	42	1.9615	8.7745e-06
2	1	0	1	0	2.0117	0.850963	0.850689	0.0105057	1	1.19875e-05	42	1.9915	8.93709e-06
2	1	0	1	0	2.0417	0.85696	0.85669	0.0105549	1	1.23033e-05	42	2.0215	9.04225e-06
2	1	0	1	0	2.0717	0.862957	0.862657	0.0106771	1	1.26216e-05	42	2.0515	9.21067e-06
2	1	0	1	0	2.1017	0.868954	0.868673	0.0107395	1	1.29428e-05	42	2.0815	9.32911e-06
2	1	0	1	0	2.1317	0.874951	0.874685	0.0108588	1	1.32668e-05	42	2.1115	9.49804e-06
2	1	0	1	0	2.1766	0.883944	0.883662	0.0109986	1	1.37578e-05	42	2.1564	9.71902e-06
2	1	0	1	0	2.2216	0.892942	0.892705	0.0111912	1	1.42562e-05	41	2.2014	9.99042e-06
2	1	0	1	0	2.2516	0.898939	0.898699	0.0113424	1	1.45936e-05	41	2.2314	1.01934e-05
2	1	0	1	0	2.2816	0.904936	0.904682	0.0114481	1	1.49348e-05	41	2.2614	1.03569e-05
2	1	0	1	0	2.3116	0.910933	0.910707	0.011569	1	1.528e-05	41	2.2914	1.05359e-05
2	1	0	1	0	2.3416	0.91693	0.916692	0.0117401	1	1.56292e-05	41	2.3214	1.07621e-05
2	1	0	1	0	2.3715	0.922927	0.922663	0.0118836	1	1.59819e-05	41	2.3513	1.09646e-05
2	1	0	1	0	2.4015	0.928924	0.928677	0.012008	1	1.63399e-05	41	2.3813	1.11515e-05
2	1	0	1	0	2.4315	0.934921	0.934685	0.0121849	1	1.67026e-05	41	2.4113	1.1389e-05
2	1	0	1	0	2.4615	0.940918	0.940689	0.0123261	1	1.70697e-05	41	2.4413	1.1595e-05
2	1	0	1	0	2.4915	0.946914	0.946682	0.012487	1	1.74414e-05	41	2.4713	1.18212e-05
2	1	0	1	0	2.5215	0.952912	0.952677	0.0126428	1	1.78178e-05	41	2.5013	1.20445e-05
2	1	0	1	0	2.5515	0.958909	0.958667	0.0128298	1	1.8199e-05	41	2.5313	1.22995e-05
2	1	0	1	0	2.5814	0.964905	0.964666	0.012969	1	1.85842e-05	41	2.5612	1.25108e-05
2	1	0	1	0	2.6114	0.970902	0.970662	0.013133	1	1.89753e-05	41	2.5912	1.27477e-05
2	1	0	1	0	2.6414	0.976899	0.976657	0.0132907	1	1.93715e-05	41	2.6212	1.29804e-05
2	1	0	1	0	2.6714	0.982896	0.982642	0.0134872	1	1.97729e-05	41	2.6512	1.32531e-05
2	1	0	1	0	2.7014	0.988893	0.98864	0.0136931	1	2.01798e-05	41	2.6812	1.35375e-05
2	1	0	1	0	2.7314	0.99489	0.994648	0.0138819	1	2.05924e-05	41	2.7112	1.38077e-05
2	1	0	1	0	2.7613	1.00089	1.00063	0.014097	1	2.10097e-05	41	2.7411	1.41059e-05
2	1	0	1	0	2.7913	1.00688	1.00663	0.0142749	1	2.14347e-05	41	2.7711	1.43696e-05
2	1	0	1	0	2.8213	1.01288	1.01265	0.0145021	1	2.18662e-05	41	2.8011	1.46855e-05
2	1	0	1	0	2.8513	1.01888	1.01862	0.0147537	1	2.23047e-05	41	2.8311	1.50284e-05
2	1	0	1	0	2.8813	1.02487	1.02463	0.0150108	1	2.27506e-05	41	2.8611	1.53804e-05
2	1	0	1	0	2.9113	1.03087	1.03061	0.0153131	1	2.32044e-05	41	2.8911	1.57819e-05
2	1	0	1	0	2.9413	1.03687	1.03663	0.0155838	1	2.36669e-05	41	2.9211	1.61546e-05
2	1	0	1	0	2.9712	1.04287	1.04264	0.0159007	1	2.41371e-05	41	2.951	1.65787e-05
2	1	0	1	0	3.0012	1.04886	1.04863	0.0162223	1	2.46186e-05	41	2.981	1.70112e-05
2	1	0	1	0	3.0312	1.05486	1.05464	0.0166169	1	2.51108e-05	41	3.011	1.75248e-05
2	1	0	1	0	3.0612	1.06086	1.06062	0.0170262	1	2.56144e-05	41	3.041	1.80583e-05
2	1	0	1	0	3.0912	1.06685	1.06662	0.0174593	1	2.61305e-05	41	3.071	1.86223e-05
2	1	0	1	0	3.1212	1.07285	1.0726	0.017895	1	2.66599e-05	41	3.101	1.91941e-05
2	1	0	1	0	3.1512	1.07885	1.0786	0.0183824	1	2.72037e-05	41	3.131	1.98273e-05
2	1	0	1	0	3.1811	1.08484	1.08461	0.0189183	1	2.77614e-05	41	3.1609	2.05189e-05
2	1	0	1	0	3.2111	1.09084	1.09061	0.019513	1	2.83375e-05	41	3.1909	2.1281e-05
2	1	0	1	0	3.2411	1.09684	1.0966	0.0201338	1	2.89313e-05	41	3.2209	2.20788e-05
2	1	0	1	0	3.2711	1.10284	1.10259	0.020801	1	2.95444e-05	41	3.2509	2.29351e-05
2	1	0	1	0	3.3011	1.10883	1.10859	0.0214936	1	3.01783e-05	41	3.2809	2.38275e-05
2	1	0	1	0	3.3311	1.11483	1.1146	0.0222876	1	3.08349e-05	41	3.3109	2.48418e-05
2	1	0	1	0	3.361	1.12083	1.12057	0.0231517	1	3.15144e-05	41	3.3408	2.59432e-05
2	1	0	1	0	3.391	1.12682	1.12656	0.0241539	1	3.22239e-05	41	3.3708	2.72108e-05
2	1	0	1	0	3.421	1.13282	1.13259	0.0252561	1	3.29644e-05	41	3.4008	2.86049e-05
2	1	0	1	0	3.451	1.13882	1.13857	0.0265104	1	3.37399e-05	41	3.4308	3.01839e-05
2	1	0	1	0	3.481	1.14481	1.14457	0.0279212	1	3.45555e-05	41	3.4608	3.19579e-05
2	1	0	1	0	3.511	1.15081	1.15058	0.0295979	1	3.54174e-05	41	3.4908	3.40547e-05
2	1	0	1	0	3.541	1.15681	1.15654	0.0315275	1	3.63333e-05	41	3.5208	3.64629e-05
2	1	0	1	0	3.5709	1.1628	1.16256	0.0337871	1	3.73088e-05	41	3.5507	3.92795e-05
2	1	0	1	0	3.6009	1.1688	1.16854	0.0363537	1	3.83602e-05	41	3.5807	4.24808e-05
2	1	0	1	0	3.6309	1.1748	1.17453	0.0393362	1	3.94951e-05	41	3.6107	4.62017e-05
2	1	0	1	0	3.6609	1.1808	1.18052	0.0427129	1	4.07253e-05	41	3.6407	5.04236e-05
2	1	0	1	0	3.6909	1.18679	1.18651	0.0465031	1	4.2063e-05	41	3.6707	5.51765e-05
2	1	0	1	0	3.7209	1.19279	1.19253	0.0507119	1	4.35211e-05	41	3.7007	6.04753e-05
2	1	0	1	0	3.7508	1.19879	1.19852	0.0554214	1	4.5107e-05	41	3.7306	6.64234e-05
2	1	0	1	0	3.7808	1.20478	1.20452	0.060461	1	4.68445e-05	41	3.7606	7.28266e-05
2	1	0	1	0	3.8108	1.21078	1.2105	0.065957	1	4.87406e-05	41	3.7906	7.98407e-05
2	1	0	1	0	3.8408	1.21678	1.2165	0.0718889	1	5.08087e-05	41	3.8206	8.7453e-05
2	1	0	1	0	3.8708	1.22277	1.22249	0.078248	1	5.30608e-05	41	3.8506	9.56574e-05
2	1	0	1	0	3.9008	1.22877	1.2285	0.0849775	1	5.55091e-05	41	3.8806	0.000104395
2	1	0	1	0	3.9308	1.23477	1.23451	0.0920749	1	5.81649e-05	41	3.9106	0.000113667
2	1	0	1	0	3.9607	1.24077	1.24049	0.0995934	1	6.10308e-05	41	3.9405	0.000123545
2	1	0	1	0	3.9907	1.24676	1.2465	0.107334	1	6.41353e-05	41	3.9705	0.000133792
2	1	0	1	0	4.0507	1.25876	1.25851	0.123758	1	7.09459e-05	40	4.0305	0.00015575
2	1	0	1	0	4.0807	1.26475	1.26452	0.132268	1	7.47869e-05	40	4.0605	0.000167255
2	1	0	1	0	4.1107	1.27075	1.27049	0.14083	1	7.88842e-05	40	4.0905	0.000178924
2	1	0	1	0	4.1406	1.27675	1.2765	0.149448	1	8.32234e-05	40	4.1204	0.00019077
2	1	0	1	0	4.1706	1.28274	1.28249	0.157905	1	8.78354e-05	40	4.1504	0.000202512
2	1	0	1	0	4.2006	1.28874	1.28849	0.166334	1	9.27018e-05	40	4.1804	0.000214321
2	1	0	1	0	4.2306	1.29474	1.29448	0.174646	1	9.78183e-05	40	4.2104	0.000226076
2	1	0	1	0	4.2606	1.30073	1.30049	0.182662	1	0.000103179	40	4.2404	0.000237551
2	1	0	1	0	4.2906	1.30673	1.30646	0.190405	1	0.000108776	40	4.2704	0.000248757
2	1	0	1	0	4.3206	1.31273	1.31248	0.197861	1	0.000114603	40	4.3004	0.000259688
2	1	0	1	0	4.3505	1.31873	1.31848	0.205213	1	0.000120631	40	4.3303	0.000270569
2	1	0	1	0	4.3805	1.32472	1.32446	0.212127	1	0.000126893	40	4.3603	0.000280953
2	1	0	1	0	4.4105	1.33072	1.33046	0.218765	1	0.000133358	40	4.3903	0.000291059
2	1	0	1	0	4.4405	1.33672	1.33647	0.225003	1	0.000140016	40	4.4203	0.000300709
2	1	0	1	0	4.4705	1.34271	1.34244	0.231063	1	0.000146858	40	4.4503	0.000310189
2	1	0	1	0	4.5005	1.34871	1.34846	0.236699	1	0.000153876	40	4.4803	0.000319179
2	1	0	1	0	4.5304	1.35469	1.35443	0.242018	1	0.000161035	40	4.5102	0.000327796
2	1	0	1	0	4.5604	1.3607	1.36044	0.247112	1	0.000168376	40	4.5402	0.000336181
2	1	0	1	0	4.5904	1.3667	1.36645	0.251747	1	0.00017586	40	4.5702	0.000344
2	1	0	1	0	4.6204	1.3727	1.37243	0.25604	1	0.00018348	40	4.6002	0.000351398
2	1	0	1	0	4.6504	1.3787	1.37844	0.259928	1	0.000191221	40	4.6302	0.000358294
2	1	0	1	0	4.6804	1.38469	1.38444	0.263444	1	0.000199074	40	4.6602	0.000364722
2	1	0	1	0	4.7104	1.39069	1.39043	0.266541	1	0.000207026	40	4.6902	0.000370607
2	1	0	1	0	4.7403	1.39669	1.39642	0.269376	1	0.00021504	40	4.7201	0.000376163
2	1	0	1	0	4.7703	1.40268	1.40242	0.271684	1	0.000223158	40	4.7501	0.000381016
2	1	0	1	0	4.8003	1.40868	1.40841	0.273693	1	0.00023134	40	4.7801	0.000385471
2	1	0	1	0	4.8303	1.41468	1.41443	0.275245	1	0.000239576	40	4.8101	0.000389315
2	1	0	1	0	4.8603	1.42067	1.42042	0.276475	1	0.000247853	40	4.8401	0.00039271
2	1	0	1	0	4.8903	1.42667	1.4264	0.27733	1	0.000256161	40	4.8701	0.000395583
2	1	0	1	0	4.9203	1.43267	1.43241	0.277922	1	0.00026449	40	4.9001	0.000398098
2	1	0	1	0	4.9502	1.43867	1.43843	0.27838	1	0.000272807	40	4.93	0.000400431
2	1	0	1	0	4.9802	1.44466	1.44441	0.278311	1	0.000281159	40	4.96	0.000401996
2	1	0	1	0	5.0102	1.45066	1.4504	0.277793	1	0.000289499	40	4.99	0.00040291
2	1	0	1	0	5.0402	1.45666	1.4564	0.277191	1	0.000297826	40	5.02	0.000403701
2	1	0	1	0	5.0702	1.46265	1.46242	0.276394	1	0.000306132	40	5.05	0.000404205
2	1	0	1	0	5.1002	1.46865	1.46842	0.275472	1	0.000314411	40	5.08	0.000404509
2	1	0	1	0	5.1301	1.47465	1.4744	0.274494	1	0.000322634	40	5.1099	0.000404713
2	1	0	1	0	5.1601	1.48064	1.4804	0.273239	1	0.00033085	40	5.1399	0.000404502
2	1	0	1	0	5.1901	1.48664	1.48638	0.271974	1	0.000339029	40	5.1699	0.000404257
2	1	0	1	0	5.2201	1.49264	1.4924	0.270584	1	0.000347167	40	5.1999	0.00040382
2	1	0	1	0	5.2501	1.49863	1.49838	0.269187	1	0.000355264	40	5.2299	0.000403344
2	1	0	1	0	5.2701	1.49734	1.49706	0.243483	1	0.000360436	40	5.2499	0.000364509
2	1	0	1	0	5.3001	1.49134	1.49104	0.203965	1	0.000367119	40	5.2799	0.000304119
2	1	0	1	0	5.3301	1.48534	1.48503	0.172648	1	0.000372746	40	5.3099	0.000256388
2	1	0	1	0	5.3601	1.47934	1.47906	0.147429	1	0.000377531	40	5.3399	0.000218057
2	1	0	1	0	5.39	1.47336	1.47307	0.126782	1	0.00038162	40	5.3698	0.00018676
2	1	0	1	0	5.42	1.46735	1.46706	0.109805	1	0.000385159	40	5.3998	0.000161091
2	1	0	1	0	5.45	1.46135	1.46106	0.0955178	1	0.00038823	40	5.4298	0.000139557
2	1	0	1	0	5.48	1.45536	1.45506	0.0834205	1	0.000390908	40	5.4598	0.000121382
2	1	0	1	0	5.51	1.44936	1.44907	0.0731666	1	0.000393252	40	5.4898	0.000106024
2	1	0	1	0	5.54	1.44336	1.44307	0.0643972	1	0.000395311	40	5.5198	9.29295e-05
2	1	0	1	0	5.57	1.43737	1.43706	0.0567904	1	0.000397126	40	5.5498	8.16111e-05
2	1	0	1	0	5.5999	1.43137	1.43106	0.0502126	1	0.000398723	40	5.5797	7.18573e-05
2	1	0	1	0	5.6299	1.42537	1.42506	0.0444862	1	0.000400141	40	5.6097	6.33954e-05
2	1	0	1	0	5.6899	1.41338	1.41308	0.0349785	1	0.000402615	41	5.6697	4.94274e-05
2	1	0	1	0	5.7199	1.40738	1.40709	0.0311143	1	0.000403605	41	5.6997	4.37805e-05
2	1	0	1	0	5.7499	1.40138	1.4011	0.0276296	1	0.000404486	41	5.7297	3.87118e-05
2	1	0	1	0	5.7799	1.39539	1.3951	0.024641	1	0.000405269	41	5.7597	3.43765e-05
2	1	0	1	0	5.8098	1.38939	1.38907	0.0218814	1	0.000405964	41	5.7896	3.03948e-05
2	1	0	1	0	5.8398	1.38339	1.38307	0.0194181	1	0.000406584	41	5.8196	2.68565e-05
2	1	0	1	0	5.8698	1.3774	1.3771	0.0173155	1	0.000407135	41	5.8496	2.38452e-05
2	1	0	1	0	5.8998	1.3714	1.37108	0.0153527	1	0.000407625	41	5.8796	2.10497e-05
2	1	0	1	0	5.9298	1.3654	1.3651	0.0136041	1	0.00040806	41	5.9096	1.85709e-05
2	1	0	1	0	5.9598	1.35941	1.35912	0.0120323	1	0.000408445	41	5.9396	1.63533e-05
2	1	0	1	0	5.9897	1.35341	1.35309	0.0105686	1	0.000408783	41	5.9695	1.43003e-05
2	1	0	1	0	6.0197	1.34741	1.34711	0.00928917	1	0.000409082	41	5.9995	1.25136e-05
2	1	0	1	0	6.0497	1.34141	1.34111	0.00811924	1	0.000409345	41	6.0295	1.08888e-05
2	1	0	1	0	6.0797	1.33542	1.33511	0.00708852	1	0.000409573	41	6.0595	9.46394e-06
2	1	0	1	0	6.1097	1.32942	1.32911	0.00608086	1	0.000409772	41	6.0895	8.08215e-06
2	1	0	1	0	6.1397	1.32342	1.32311	0.0052019	1	0.000409942	41	6.1195	6.8827e-06
2	1	0	1	0	6.1697	1.31743	1.31713	0.00436051	1	0.000410086	41	6.1495	5.74334e-06
2	1	0	1	0	6.1996	1.31143	1.31114	0.00362675	1	0.000410206	41	6.1794	4.75518e-06
2	1	0	1	0	6.2296	1.30543	1.30514	0.00294987	1	0.000410306	41	6.2094	3.84999e-06
2	1	0	1	0	6.2596	1.29944	1.29914	0.00232397	1	0.000410385	41	6.2394	3.01917e-06
2	1	0	1	0	6.3196	1.28744	1.28707	0.00118475	1	0.000410497	42	6.2994	1.52486e-06
2	1	0	1	0	6.3496	1.28144	1.28117	0.00052102	1	0.000410524	42	6.3294	6.67513e-07
2	1	0	1	0	6.3795	1.27545	1.27518	0.000115418	1	0.000410535	42	6.3593	1.47179e-07
2	0	0	1	0	6.4095	1.26945	1.26917	-0.00031052	1	0.000410532	42	0.015	-3.94103e-07
2	0	0	1	0	6.4395	1.26345	1.26316	-0.000732997	1	0.000410514	42	0.045	-9.25896e-07
2	0	0	1	0	6.4695	1.25746	1.25717	-0.00124719	1	0.000410484	42	0.075	-1.56794e-06
2	0	0	1	0	6.4995	1.25146	1.25116	-0.00167168	1	0.000410441	42	0.105	-2.09155e-06
2	0	0	1	0	6.5295	1.24546	1.24517	-0.00205579	1	0.000410386	42	0.135	-2.5598e-06
2	0	0	1	0	6.5595	1.23947	1.2392	-0.00239179	1	0.000410319	42	0.165	-2.96391e-06
2	0	0	1	0	6.5894	1.23347	1.23321	-0.00275261	1	0.00041024	42	0.1949	-3.39454e-06
2	0	0	1	0	6.6194	1.22747	1.22719	-0.00311261	1	0.00041015	42	0.2249	-3.81977e-06
2	0	0	1	0	6.6494	1.22148	1.22118	-0.00357773	1	0.000410049	42	0.2549	-4.36906e-06
2	0	0	1	0	6.6794	1.21548	1.2152	-0.00395124	1	0.000409937	42	0.2849	-4.80155e-06
2	0	0	1	0	6.7094	1.20948	1.20921	-0.00434645	1	0.000409813	42	0.3149	-5.25576e-06
2	0	0	1	0	6.7394	1.20348	1.20321	-0.00464366	1	0.000409678	42	0.3449	-5.58732e-06
2	0	0	1	0	6.7694	1.19747	1.19721	-0.00509985	1	0.000409531	42	0.3749	-6.10559e-06
2	0	0	1	0	6.7993	1.19149	1.1912	-0.0054042	1	0.000409373	42	0.4048	-6.4375e-06
2	0	0	1	0	6.8293	1.18549	1.18521	-0.00589417	1	0.000409203	42	0.4348	-6.98584e-06
2	0	0	1	0	6.8593	1.1795	1.17923	-0.00627367	1	0.00040902	42	0.4648	-7.39811e-06
2	0	0	1	0	6.8893	1.1735	1.17324	-0.00677373	1	0.000408825	42	0.4948	-7.94724e-06
2	0	0	1	0	6.9193	1.1675	1.16723	-0.0071559	1	0.000408615	42	0.5248	-8.35258e-06
2	0	0	1	0	6.9493	1.16151	1.16122	-0.00767879	1	0.000408392	42	0.5548	-8.91675e-06
2	0	0	1	0	6.9792	1.15551	1.15524	-0.0080859	1	0.000408155	42	0.5847	-9.34118e-06
2	0	0	1	0	7.0092	1.14951	1.14925	-0.00877567	1	0.000407901	42	0.6147	-1.00854e-05
2	0	0	1	0	7.0392	1.14351	1.14326	-0.00926202	1	0.000407632	42	0.6447	-1.05889e-05
2	0	0	1	0	7.0692	1.13752	1.13726	-0.00990343	1	0.000407345	42	0.6747	-1.12628e-05
2	0	0	1	0	7.0992	1.13152	1.13128	-0.0104573	1	0.000407039	42	0.7047	-1.18302e-05
2	0	0	1	0	7.1592	1.11953	1.11924	-0.0119255	1	0.000406378	41	0.7647	-1.33475e-05
2	0	0	1	0	7.1891	1.11353	1.11323	-0.0127256	1	0.000406009	41	0.7946	-1.41666e-05
2	0	0	1	0	7.2191	1.10753	1.10724	-0.0135457	1	0.000405616	41	0.8246	-1.49984e-05
2	0	0	1	0	7.2491	1.10154	1.10124	-0.0144512	1	0.000405196	41	0.8546	-1.59143e-05
2	0	0	1	0	7.2791	1.09554	1.09525	-0.0154334	1	0.000404747	41	0.8846	-1.69034e-05
2	0	0	1	0	7.3091	1.08954	1.08925	-0.016517	1	0.000404268	41	0.9146	-1.79912e-05
2	0	0	1	0	7.3391	1.08355	1.08328	-0.0176917	1	0.000403756	41	0.9446	-1.9165e-05
2	0	0	1	0	7.369	1.07755	1.07726	-0.0189478	1	0.000403208	41	0.9745	-2.04117e-05
2	0	0	1	0	7.399	1.07155	1.07126	-0.0203463	1	0.00040262	41	1.0045	-2.17962e-05
2	0	0	1	0	7.429	1.06555	1.06528	-0.0218181	1	0.000401988	41	1.0345	-2.32424e-05
2	0	0	1	0	7.459	1.05956	1.05927	-0.023481	1	0.000401309	41	1.0645	-2.48727e-05
2	0	0	1	0	7.489	1.05356	1.05327	-0.025283	1	0.000400578	41	1.0945	-2.663e-05
2	0	0	1	0	7.519	1.04756	1.04729	-0.0272934	1	0.00039979	41	1.1245	-2.85842e-05
2	0	0	1	0	7.549	1.04157	1.04129	-0.0294905	1	0.000398939	41	1.1545	-3.07082e-05
2	0	0	1	0	7.5789	1.03557	1.0353	-0.0319384	1	0.000398021	41	1.1844	-3.30658e-05
2	0	0	1	0	7.6089	1.02957	1.0293	-0.0345714	1	0.000397023	41	1.2144	-3.55843e-05
2	0	0	1	0	7.6389	1.02358	1.02331	-0.0376335	1	0.00039594	41	1.2444	-3.85109e-05
2	0	0	1	0	7.6689	1.01758	1.0173	-0.0410056	1	0.000394761	41	1.2744	-4.1715e-05
2	0	0	1	0	7.6989	1.01158	1.0113	-0.0446554	1	0.000393476	41	1.3044	-4.516e-05
2	0	0	1	0	7.7289	1.00558	1.0053	-0.0488068	1	0.000392073	41	1.3344	-4.90654e-05
2	0	0	1	0	7.7588	0.999588	0.999283	-0.0536122	1	0.000390541	41	1.3643	-5.35738e-05
2	0	0	1	0	7.7888	0.993591	0.993315	-0.058896	1	0.000388853	41	1.3943	-5.85023e-05
2	0	0	1	0	7.8188	0.987594	0.987325	-0.0648508	1	0.000386997	41	1.4243	-6.40288e-05
2	0	0	1	0	7.8488	0.981597	0.981343	-0.0716597	1	0.000384949	41	1.4543	-7.03227e-05
2	0	0	1	0	7.8788	0.9756	0.975345	-0.0792927	1	0.000382685	41	1.4843	-7.73377e-05
2	0	0	1	0	7.9088	0.969603	0.969345	-0.0880961	1	0.000380175	41	1.5143	-8.53955e-05
2	0	0	1	0	7.9388	0.963606	0.96335	-0.0979381	1	0.000377385	41	1.5443	-9.43487e-05
2	0	0	1	0	7.9837	0.954611	0.954324	-0.115758	1	0.000372633	41	1.5892	-0.00011047
2	0	0	1	0	8.0287	0.945615	0.945328	-0.136376	1	0.000367134	40	1.6342	-0.00012892
2	0	0	1	0	8.0587	0.939618	0.939336	-0.152474	1	0.000362803	40	1.6642	-0.000143224
2	0	0	1	0	8.0887	0.933621	0.933329	-0.170356	1	0.000357961	40	1.6942	-0.000158998
2	0	0	1	0	8.1187	0.927624	0.927343	-0.189953	1	0.000352556	40	1.7242	-0.000176152
2	0	0	1	0	8.1486	0.921641	0.921357	-0.211037	1	0.000346563	40	1.7541	-0.000194441
2	0	0	1	0	8.1786	0.91563	0.915339	-0.23295	1	0.000339901	40	1.7841	-0.000213228
2	0	0	1	0	8.2086	0.909633	0.909366	-0.255005	1	0.000332577	40	1.8141	-0.000231893
2	0	0	1	0	8.2386	0.903637	0.903339	-0.276314	1	0.000324599	40	1.8441	-0.000249605
2	0	0	1	0	8.2686	0.89764	0.897356	-0.295455	1	0.000316013	40	1.8741	-0.000265128
2	0	0	1	0	8.2986	0.891643	0.891369	-0.311184	1	0.000306901	40	1.9041	-0.00027738
2	0	0	1	0	8.3286	0.885646	0.885359	-0.322317	1	0.000297384	40	1.9341	-0.000285366
2	0	0	1	0	8.3585	0.879649	0.879361	-0.328295	1	0.000287643	40	1.964	-0.00028869
2	0	0	1	0	8.3885	0.873652	0.873355	-0.328384	1	0.000277779	40	1.994	-0.000286796
2	0	0	1	0	8.4185	0.867655	0.867366	-0.322866	1	0.000267998	40	2.024	-0.000280043
2	0	0	1	0	8.4485	0.861658	0.861388	-0.312475	1	0.000258459	40	2.054	-0.000269162
2	0	0	1	0	8.4785	0.855661	0.855377	-0.298333	1	0.00024929	40	2.084	-0.000255187
2	0	0	1	0	8.5085	0.849664	0.849386	-0.281406	1	0.000240592	40	2.114	-0.000239022
2	0	0	1	0	8.5385	0.843667	0.843389	-0.262741	1	0.00023243	40	2.144	-0.000221593
2	0	0	1	0	8.5684	0.83767	0.837391	-0.243703	1	0.000224858	40	2.1739	-0.000204074
2	0	0	1	0	8.5984	0.831673	0.831382	-0.224552	1	0.000217838	40	2.2039	-0.000186688
2	0	0	1	0	8.6284	0.825676	0.825389	-0.206151	1	0.000211382	40	2.2339	-0.000170155
2	0	0	1	0	8.6584	0.819679	0.819388	-0.188758	1	0.000205463	40	2.2639	-0.000154666
2	0	0	1	0	8.6884	0.813682	0.813397	-0.172671	1	0.000200046	40	2.2939	-0.00014045
2	0	0	1	0	8.7184	0.807685	0.8074	-0.157919	1	0.000195092	40	2.3239	-0.000127504
2	0	0	1	0	8.7483	0.801688	0.801392	-0.144633	1	0.000190574	40	2.3538	-0.000115908
2	0	0	1	0	8.7783	0.795691	0.795385	-0.132294	1	0.000186424	40	2.3838	-0.000105225
2	0	0	1	0	8.8083	0.789694	0.789397	-0.12122	1	0.000182625	40	2.4138	-9.56908e-05
2	0	0	1	0	8.8383	0.783697	0.783408	-0.111082	1	0.000179145	40	2.4438	-8.70228e-05
2	0	0	1	0	8.8683	0.7777	0.777419	-0.102002	1	0.000175952	40	2.4738	-7.92984e-05
2	0	0	1	0	8.8983	0.771703	0.771405	-0.093587	1	0.000173021	40	2.5038	-7.21934e-05
2	0	0	1	0	8.9283	0.765707	0.765398	-0.0860983	1	0.000170328	40	2.5338	-6.58994e-05
2	0	0	1	0	8.9582	0.75971	0.759432	-0.0793237	1	0.000167857	40	2.5637	-6.0241e-05
2	0	0	1	0	8.9882	0.753713	0.753418	-0.0730942	1	0.000165574	40	2.5937	-5.50705e-05
2	0	0	1	0	9.0182	0.747716	0.747416	-0.0673818	1	0.000163468	40	2.6237	-5.03622e-05
2	0	0	1	0	9.0482	0.741719	0.741423	-0.0622585	1	0.000161525	40	2.6537	-4.61599e-05
2	0	0	1	0	9.0782	0.735722	0.73542	-0.0575685	1	0.000159729	40	2.6837	-4.2337e-05
2	0	0	1	0	9.1082	0.729725	0.729418	-0.0533413	1	0.000158066	40	2.7137	-3.89082e-05
2	0	0	1	0	9.1381	0.723728	0.723432	-0.0495855	1	0.000156528	40	2.7436	-3.58717e-05
2	0	0	1	0	9.1681	0.717731	0.71742	-0.04607	1	0.000155094	40	2.7736	-3.30515e-05
2	0	0	1	0	9.1981	0.711734	0.711437	-0.042972	1	0.000153759	40	2.8036	-3.05719e-05
2	0	0	1	0	9.2581	0.69974	0.699441	-0.0376477	1	0.000151288	41	2.8636	-2.63323e-05
2	0	0	1	0	9.2881	0.693743	0.69344	-0.0353133	1	0.000150193	41	2.8936	-2.44877e-05
2	0	0	1	0	9.3181	0.687746	0.687443	-0.0332775	1	0.000149163	41	2.9236	-2.28763e-05
2	0	0	1	0	9.348	0.681749	0.681449	-0.0314956	1	0.000148194	41	2.9535	-2.14626e-05
2	0	0	1	0	9.378	0.675752	0.675459	-0.0298548	1	0.000147273	41	2.9835	-2.01657e-05
2	0	0	1	0	9.408	0.669755	0.66944	-0.0284216	1	0.000146399	41	3.0135	-1.90265e-05
2	0	0	1	0	9.438	0.663758	0.66348	-0.0271363	1	0.000145566	41	3.0435	-1.80044e-05
2	0	0	1	0	9.468	0.657761	0.657481	-0.0259308	1	0.000144769	41	3.0735	-1.7049e-05
2	0	0	1	0	9.498	0.651764	0.651467	-0.0248732	1	0.000144005	41	3.1035	-1.62041e-05
2	0	0	1	0	9.528	0.645758	0.645474	-0.0241066	1	0.000143269	41	3.1335	-1.55602e-05
2	0	0	1	0	9.5579	0.63977	0.639482	-0.0233083	1	0.000142561	41	3.1634	-1.49052e-05
2	0	0	1	0	9.5879	0.633773	0.633479	-0.0225706	1	0.000141872	41	3.1934	-1.4298e-05
2	0	0	1	0	9.6179	0.627776	0.627502	-0.021933	1	0.000141203	41	3.2234	-1.3763e-05
2	0	0	1	0	9.6479	0.62178	0.621488	-0.0213689	1	0.000140552	41	3.2534	-1.32805e-05
2	0	0	1	0	9.6779	0.615783	0.6155	-0.020908	1	0.000139915	41	3.2834	-1.28689e-05
2	0	0	1	0	9.7079	0.609786	0.609473	-0.0205635	1	0.000139292	41	3.3134	-1.25329e-05
2	0	0	1	0	9.7378	0.603789	0.603473	-0.0202149	1	0.000138681	41	3.3433	-1.21991e-05
2	0	0	1	0	9.7678	0.597792	0.59749	-0.0198499	1	0.00013808	41	3.3733	-1.18601e-05
2	0	0	1	0	9.7978	0.591795	0.591494	-0.0195455	1	0.000137488	41	3.4033	-1.1561e-05
2	0	0	1	0	9.8278	0.585798	0.585499	-0.0192412	1	0.000136905	41	3.4333	-1.12657e-05
2	0	0	1	0	9.8578	0.579801	0.579493	-0.0189578	1	0.00013633	41	3.4633	-1.09859e-05
2	0	0	1	0	9.8878	0.573804	0.573505	-0.0188077	1	0.000135764	41	3.4933	-1.07863e-05
2	0	0	1	0	9.9178	0.567807	0.567522	-0.0185161	1	0.000135205	41	3.5233	-1.05083e-05
2	0	0	1	0	9.9477	0.56181	0.561509	-0.0182528	1	0.000134655	41	3.5532	-1.02491e-05
2	0	0	1	0	9.9777	0.555813	0.555521	-0.0179434	1	0.000134112	41	3.5832	-9.96794e-06
2	0	0	1	0	10.0077	0.549816	0.549519	-0.0176349	1	0.000133577	41	3.6132	-9.69071e-06
2	0	0	1	0	10.0377	0.543819	0.543515	-0.0173877	1	0.00013305	41	3.6432	-9.45049e-06
2	0	0	1	0	10.0677	0.537822	0.537541	-0.0170899	1	0.000132533	41	3.6732	-9.18651e-06
2	0	0	1	0	10.0977	0.531825	0.531524	-0.0167212	1	0.000132025	41	3.7032	-8.88772e-06
2	0	0	1	0	10.1276	0.525828	0.525524	-0.0164328	1	0.000131528	41	3.7331	-8.63581e-06
2	0	0	1	0	10.1576	0.519831	0.51954	-0.0161068	1	0.000131039	41	3.7631	-8.36813e-06
2	0	0	1	0	10.1876	0.513834	0.513534	-0.0157713	1	0.00013056	41	3.7931	-8.0991e-06
2	0	0	1	0	10.2176	0.507837	0.50753	-0.0154922	1	0.000130091	41	3.8231	-7.86273e-06
2	0	0	1	0	10.2476	0.50184	0.501549	-0.015202	1	0.00012963	41	3.8531	-7.62454e-06
2	0	0	1	0	10.2776	0.495844	0.495543	-0.0149597	1	0.000129178	41	3.8831	-7.4132e-06
2	0	0	1	0	10.3076	0.489847	0.489546	-0.0147221	1	0.000128733	41	3.9131	-7.20712e-06
2	0	0	1	0	10.3375	0.48385	0.483546	-0.0144783	1	0.000128296	41	3.943	-7.00093e-06
2	0	0	1	0	10.3675	0.477853	0.477577	-0.0142791	1	0.000127864	41	3.973	-6.81936e-06
2	0	0	1	0	10.3975	0.471856	0.471532	-0.0141581	1	0.000127437	41	4.003	-6.67601e-06
2	0	0	1	0	10.4275	0.465859	0.465576	-0.0139931	1	0.000127015	41	4.033	-6.51485e-06
2	0	0	1	0	10.4575	0.459862	0.459574	-0.0138164	1	0.000126598	41	4.063	-6.34967e-06
2	0	0	1	0	10.4875	0.453865	0.453563	-0.0136829	1	0.000126186	41	4.093	-6.20606e-06
2	0	0	1	0	10.5174	0.447868	0.447566	-0.0135911	1	0.000125779	41	4.1229	-6.08292e-06
2	0	0	1	0	10.5474	0.441871	0.441576	-0.0134205	1	0.000125374	41	4.1529	-5.92618e-06
2	0	0	1	0	10.5774	0.435874	0.435565	-0.0132838	1	0.000124973	41	4.1829	-5.78598e-06
2	0	0	1	0	10.6074	0.429877	0.429583	-0.0131773	1	0.000124576	41	4.2129	-5.66076e-06
2	0	0	1	0	10.6374	0.42388	0.423558	-0.0130715	1	0.000124183	41	4.2429	-5.53654e-06
2	0	0	1	0	10.6674	0.417883	0.417578	-0.012976	1	0.000123792	41	4.2729	-5.41848e-06
2	0	0	1	0	10.6974	0.411886	0.411588	-0.0128644	1	0.000123405	41	4.3029	-5.29483e-06
2	0	0	1	0	10.7273	0.405889	0.405573	-0.0127832	1	0.000123021	41	4.3328	-5.1845e-06
2	0	0	1	0	10.7573	0.399892	0.399581	-0.0127198	1	0.000122638	41	4.3628	-5.0826e-06
2	0	0	1	0	10.7873	0.393895	0.3936	-0.012676	1	0.000122258	41	4.3928	-4.98926e-06
2	0	0	1	0	10.8173	0.387898	0.387587	-0.0125665	1	0.00012188	41	4.4228	-4.87063e-06
2	0	0	1	0	10.8473	0.381901	0.381585	-0.0125253	1	0.000121504	41	4.4528	-4.77946e-06
2	0	0	1	0	10.8773	0.375904	0.375619	-0.0124477	1	0.00012113	41	4.4828	-4.67559e-06
2	0	0	1	0	10.9072	0.369926	0.369615	-0.0124133	1	0.000120759	41	4.5127	-4.58814e-06
2	0	0	1	0	10.9372	0.363911	0.36361	-0.0123689	1	0.000120387	41	4.5427	-4.49745e-06
2	0	0	1	0	10.9672	0.357914	0.357622	-0.0123141	1	0.000120017	41	4.5727	-4.4038e-06
2	0	0	1	0	10.9972	0.351917	0.351637	-0.0122591	1	0.000119649	41	4.6027	-4.31076e-06
2	0	0	1	0	11.0272	0.34592	0.34562	-0.0122191	1	0.000119282	41	4.6327	-4.22317e-06
2	0	0	1	0	11.0572	0.339923	0.339653	-0.0121708	1	0.000118917	41	4.6627	-4.13383e-06
2	0	0	1	0	11.0872	0.333926	0.33362	-0.0121018	1	0.000118553	41	4.6927	-4.03741e-06
2	0	0	1	0	11.1171	0.327929	0.327624	-0.0120885	1	0.000118191	41	4.7226	-3.96048e-06
2	0	0	1	0	11.1471	0.321932	0.321639	-0.0120181	1	0.00011783	41	4.7526	-3.86548e-06
2	0	0	1	0	11.1771	0.315935	0.315642	-0.0119762	1	0.000117471	41	4.7826	-3.78021e-06
2	0	0	1	0	11.2071	0.309938	0.309657	-0.0119149	1	0.000117113	41	4.8126	-3.68952e-06
2	0	0	1	0	11.2371	0.303941	0.303641	-0.0118598	1	0.000116756	41	4.8426	-3.60113e-06
2	0	0	1	0	11.2671	0.297944	0.29763	-0.0118443	1	0.000116401	41	4.8726	-3.52522e-06
2	0	0	1	0	11.2971	0.291947	0.29164	-0.0118105	1	0.000116048	41	4.9026	-3.44442e-06
2	0	0	1	0	11.327	0.28595	0.285661	-0.0117641	1	0.000115696	41	4.9325	-3.36056e-06
2	0	0	1	0	11.357	0.279953	0.279668	-0.0117305	1	0.000115344	41	4.9625	-3.28064e-06
2	0	0	1	0	11.387	0.273956	0.273661	-0.011703	1	0.000114993	41	4.9925	-3.20267e-06
2	0	0	1	0	11.417	0.267959	0.267663	-0.0116814	1	0.000114643	41	5.0225	-3.12668e-06
2	0	0	1	0	11.447	0.261962	0.261661	-0.0116732	1	0.000114293	41	5.0525	-3.05442e-06
2	0	0	1	0	11.477	0.255965	0.255678	-0.011686	1	0.000113944	41	5.0825	-2.98787e-06
2	0	0	1	0	11.5069	0.249968	0.249668	-0.0116679	1	0.000113595	41	5.1124	-2.91311e-06
2	0	0	1	0	11.5369	0.243971	0.243688	-0.0116591	1	0.000113246	41	5.1424	-2.84118e-06
2	0	0	1	0	11.5669	0.237974	0.237675	-0.0116784	1	0.000112896	41	5.1724	-2.77566e-06
2	0	0	1	0	11.5969	0.231977	0.231672	-0.0116902	1	0.000112546	41	5.2024	-2.7083e-06
2	0	0	1	0	11.6269	0.22598	0.225706	-0.0117448	1	0.000112195	41	5.2324	-2.65088e-06
2	0	0	1	0	11.6569	0.219984	0.219685	-0.0117573	1	0.000111844	41	5.2624	-2.5829e-06
2	0	0	1	0	11.6869	0.213987	0.213705	-0.0117871	1	0.000111491	41	5.2924	-2.51897e-06
2	0	0	1	0	11.7168	0.20799	0.207706	-0.0118182	1	0.000111139	41	5.3223	-2.4547e-06
2	0	0	1	0	11.7468	0.201993	0.201688	-0.0118549	1	0.000110784	41	5.3523	-2.391e-06
2	0	0	1	0	11.7768	0.195996	0.195719	-0.0119219	1	0.000110428	41	5.3823	-2.33334e-06
2	0	0	1	0	11.8068	0.189999	0.189681	-0.0120115	1	0.00011007	41	5.4123	-2.27835e-06
2	0	0	1	0	11.8368	0.184002	0.183691	-0.0120509	1	0.000109711	41	5.4423	-2.21364e-06
2	0	0	1	0	11.8668	0.178005	0.177707	-0.0120927	1	0.00010935	41	5.4723	-2.14897e-06
2	0	0	1	0	11.8967	0.172008	0.171697	-0.0122023	1	0.000108988	41	5.5022	-2.0951e-06
2	0	0	1	0	11.9267	0.166011	0.165733	-0.0122085	1	0.000108623	41	5.5322	-2.02334e-06
2	0	0	1	0	11.9567	0.160014	0.159691	-0.0122999	1	0.000108256	41	5.5622	-1.96418e-06
2	0	0	1	0	11.9867	0.154017	0.15373	-0.0123733	1	0.000107887	41	5.5922	-1.90214e-06
2	0	0	1	0	12.0167	0.14802	0.147727	-0.0124197	1	0.000107516	41	5.6222	-1.83473e-06
2	0	0	1	0	12.0467	0.142023	0.141719	-0.0124243	1	0.000107144	41	5.6522	-1.76076e-06
2	0	0	1	0	12.0767	0.136026	0.135714	-0.0125021	1	0.00010677	41	5.6822	-1.69671e-06
2	0	0	1	0	12.1066	0.130029	0.129726	-0.0125883	1	0.000106395	41	5.7121	-1.63302e-06
2	0	0	1	0	12.1366	0.124032	0.123743	-0.0126198	1	0.000106017	41	5.7421	-1.56161e-06
2	0	0	1	0	12.1666	0.118035	0.117749	-0.0127198	1	0.000105638	41	5.7721	-1.49774e-06
2	0	0	1	0	12.1966	0.112038	0.111759	-0.0127991	1	0.000105256	41	5.8021	-1.43041e-06
2	0	0	1	0	12.2266	0.106041	0.105758	-0.012825	1	0.000104873	41	5.8321	-1.35635e-06
2	0	0	1	0	12.2566	0.100044	0.0997469	-0.0129116	1	0.000104487	41	5.8621	-1.2879e-06
2	0	0	1	0	12.2866	0.0940475	0.093732	-0.0129948	1	0.000104099	41	5.8921	-1.21803e-06
2	0	0	1	0	12.3165	0.0880505	0.0877525	-0.013112	1	0.000103709	41	5.922	-1.15061e-06
2	0	0	1	0	12.3465	0.0820536	0.0817386	-0.0132425	1	0.000103314	41	5.952	-1.08243e-06
2	0	0	1	0	12.3765	0.0760566	0.0757392	-0.0133569	1	0.000102917	41	5.982	-1.01165e-06
2	0	0	1	0	12.4065	0.0700596	0.069767	-0.0134731	1	0.000102515	41	6.012	-9.39977e-07
2	0	0	1	0	12.4365	0.0640627	0.0637736	-0.0136438	1	0.000102109	41	6.042	-8.70114e-07
2	0	0	1	0	12.4665	0.0580657	0.0577672	-0.0138049	1	0.000101697	41	6.072	-7.97472e-07
2	0	0	1	0	12.4964	0.0520688	0.0517777	-0.0140046	1	0.000101282	41	6.1019	-7.25123e-07
2	0	0	1	0	12.5264	0.0460718	0.0457597	-0.0142198	1	0.000100859	41	6.1319	-6.50693e-07
2	0	0	1	0	12.5564	0.0400749	0.0397782	-0.0144407	1	0.00010043	41	6.1619	-5.74424e-07
2	0	0	1	0	12.5864	0.0340779	0.0337652	-0.014688	1	9.99938e-05	41	6.1919	-4.95943e-07
2	0	0	1	0	12.6164	0.028081	0.0277768	-0.0149501	1	9.95495e-05	41	6.2219	-4.15266e-07
2	0	0	1	0	12.6464	0.022084	0.0217957	-0.015239	1	9.90967e-05	41	6.2519	-3.32144e-07
2	0	0	1	0	12.6764	0.0160871	0.0158011	-0.0155732	1	9.86347e-05	41	6.2819	-2.46073e-07
2	0	0	1	0	12.7063	0.0100901	0.00978484	-0.0159531	1	9.81638e-05	41	6.3118	-1.56099e-07
2	0	0	1	0	12.7363	0.00409314	0.00381326	-0.0162918	1	9.76808e-05	41	6.3418	-6.21248e-08
2	0	0	1	0	12.7663	-0.00190382	-0.00220206	-0.0167075	1	9.71863e-05	41	6.3718	3.67908e-08
2	0	0	1	0	12.7963	-0.00790078	-0.0081953	-0.0171174	1	9.66793e-05	41	6.4018	1.40283e-07
2	0	0	1	0	12.8263	-0.0138977	-0.0142066	-0.0175558	1	9.61595e-05	41	6.4318	2.49407e-07
2	0	0	1	0	12.8563	-0.0198947	-0.0202017	-0.0180501	1	9.56255e-05	41	6.4618	3.64643e-07
2	0	0	1	0	12.8862	-0.0258917	-0.0262095	-0.0185402	1	9.50788e-05	41	6.4917	4.8593e-07
2	0	0	1	0	12.9162	-0.0318886	-0.0321865	-0.0190353	1	9.45153e-05	41	6.5217	6.12681e-07
2	0	0	1	0	12.9462	-0.0378856	-0.0381839	-0.0195624	1	9.39364e-05	41	6.5517	7.46969e-07
2	0	0	1	0	12.9762	-0.0438825	-0.044184	-0.0200896	1	9.33415e-05	41	6.5817	8.87638e-07
2	0	0	1	0	13.0062	-0.0498795	-0.0501721	-0.0206031	1	9.27312e-05	41	6.6117	1.0337e-06
2	0	0	1	0	13.0362	-0.0558764	-0.0561779	-0.0211468	1	9.2105e-05	41	6.6417	1.18798e-06
2	0	0	1	0	13.0662	-0.0618734	-0.06214	-0.0216463	1	9.14638e-05	41	6.6717	1.3451e-06
2	0	0	1	0	13.0961	-0.0678704	-0.0681741	-0.022128	1	9.08095e-05	41	6.7016	1.50856e-06
2	0	0	1	0	13.1261	-0.0738673	-0.0741625	-0.0225551	1	9.01395e-05	41	6.7316	1.67275e-06
2	0	0	1	0	13.1561	-0.0798643	-0.0801483	-0.0229723	1	8.94565e-05	41	6.7616	1.84119e-06
2	0	0	1	0	13.1861	-0.0858612	-0.0861283	-0.0233322	1	8.87621e-05	41	6.7916	2.00956e-06
2	0	0	1	0	13.2161	-0.0918582	-0.0921641	-0.0236608	1	8.80573e-05	41	6.8216	2.18067e-06
2	0	0	1	0	13.2461	-0.0978552	-0.0981723	-0.0239212	1	8.73436e-05	41	6.8516	2.3484e-06
2	0	0	1	0	13.276	-0.103852	-0.104155	-0.0242048	1	8.66251e-05	41	6.8815	2.52104e-06
2	0	0	1	0	13.306	-0.109849	-0.110134	-0.0242999	1	8.58981e-05	41	6.9115	2.67625e-06
2	0	0	1	0	13.336	-0.115846	-0.116139	-0.024419	1	8.51671e-05	41	6.9415	2.836e-06
2	0	0	1	0	13.366	-0.121843	-0.122148	-0.0244812	1	8.44334e-05	41	6.9715	2.99033e-06
2	0	0	1	0	13.396	-0.12784	-0.128128	-0.0244874	1	8.36984e-05	41	7.0015	3.13753e-06
2	0	0	1	0	13.426	-0.133837	-0.13411	-0.0244855	1	8.29633e-05	41	7.0315	3.28374e-06
2	0	0	1	0	13.456	-0.139834	-0.140135	-0.0244436	1	8.22293e-05	41	7.0615	3.4254e-06
2	0	0	1	0	13.4859	-0.145831	-0.146132	-0.024361	1	8.14994e-05	41	7.0914	3.55991e-06
2	0	0	1	0	13.5159	-0.151828	-0.152124	-0.0242529	1	8.07701e-05	41	7.1214	3.68944e-06
2	0	0	1	0	13.5459	-0.157825	-0.158108	-0.0241273	1	8.00444e-05	41	7.1514	3.81472e-06
2	0	0	1	0	13.5759	-0.163822	-0.164096	-0.0239808	1	7.93229e-05	41	7.1814	3.93515e-06
2	0	0	1	0	13.6059	-0.169819	-0.170127	-0.023826	1	7.86058e-05	41	7.2114	4.05345e-06
2	0	0	1	0	13.6359	-0.175816	-0.176119	-0.0236606	1	7.78935e-05	41	7.2414	4.16709e-06
2	0	0	1	0	13.6659	-0.181813	-0.182121	-0.0235069	1	7.71861e-05	41	7.2714	4.2811e-06
2	0	0	1	0	13.6958	-0.18781	-0.188115	-0.0233197	1	7.64858e-05	41	7.3013	4.38677e-06
2	0	0	1	0	13.7258	-0.193807	-0.194101	-0.0231576	1	7.57884e-05	41	7.3313	4.49491e-06
2	0	0	1	0	13.7558	-0.199803	-0.200114	-0.0230036	1	7.50959e-05	41	7.3613	4.60333e-06
2	0	0	1	0	13.7858	-0.2058	-0.206105	-0.0228445	1	7.44082e-05	41	7.3913	4.70838e-06
2	0	0	1	0	13.8158	-0.211797	-0.212099	-0.0227085	1	7.37251e-05	41	7.4213	4.81646e-06
2	0	0	1	0	13.8458	-0.217794	-0.218094	-0.0225402	1	7.30464e-05	41	7.4513	4.9159e-06
2	0	0	1	0	13.8757	-0.223791	-0.224094	-0.0224211	1	7.23737e-05	41	7.4812	5.02443e-06
2	0	0	1	0	13.9057	-0.229788	-0.230105	-0.0222995	1	7.17026e-05	41	7.5112	5.13121e-06
2	0	0	1	0	13.9357	-0.235785	-0.236092	-0.0221949	1	7.10351e-05	41	7.5412	5.24002e-06
2	0	0	1	0	13.9657	-0.241782	-0.242066	-0.0220986	1	7.03704e-05	41	7.5712	5.3493e-06
2	0	0	1	0	13.9957	-0.247779	-0.248085	-0.0220273	1	6.97084e-05	41	7.6012	5.46466e-06
2	0	0	1	0	14.0257	-0.253776	-0.254088	-0.0219703	1	6.90485e-05	41	7.6312	5.58238e-06
2	0	0	1	0	14.0557	-0.259773	-0.260084	-0.0219033	1	6.83902e-05	41	7.6612	5.69669e-06
2	0	0	1	0	14.0856	-0.26577	-0.266081	-0.0218601	1	6.77352e-05	41	7.6911	5.81656e-06
2	0	0	1	0	14.1156	-0.271767	-0.272059	-0.0218726	1	6.70789e-05	41	7.7211	5.95064e-06
2	0	0	1	0	14.1456	-0.277764	-0.278056	-0.0218697	1	6.64228e-05	41	7.7511	6.081e-06
2	0	0	1	0	14.1756	-0.283761	-0.284061	-0.0218926	1	6.57662e-05	41	7.7811	6.21885e-06
2	0	0	1	0	14.2056	-0.289758	-0.290069	-0.0219274	1	6.51086e-05	41	7.8111	6.36046e-06
2	0	0	1	0	14.2356	-0.295755	-0.296055	-0.0220174	1	6.44492e-05	41	7.8411	6.51837e-06
2	0	0	1	1	14.2574	-0.299903	-0.300345	-0.0210411	1	6.39691e-05	41	7.8629	6.3196e-06
2	0	0	1	1	14.2851	-0.294355	-0.294605	-0.0158936	1	6.3493e-05	41	7.8906	4.68234e-06
2	0	0	1	1	14.3151	-0.288359	-0.288615	-0.0140996	1	6.30439e-05	41	7.9206	4.06934e-06
2	0	0	1	1	14.3451	-0.282362	-0.282606	-0.0127683	1	6.26411e-05	41	7.9506	3.60839e-06
2	0	0	1	1	14.3751	-0.276365	-0.276606	-0.011719	1	6.22739e-05	41	7.9806	3.24155e-06
2	0	0	1	1	14.4051	-0.270368	-0.270625	-0.0108006	1	6.19359e-05	41	8.0106	2.92292e-06
2	0	0	1	1	14.4351	-0.264371	-0.264621	-0.0100947	1	6.16224e-05	41	8.0406	2.67128e-06
2	0	0	1	1	14.465	-0.258374	-0.258633	-0.00939276	1	6.13308e-05	41	8.0705	2.42928e-06
2	0	0	1	1	14.495	-0.252377	-0.252614	-0.00883122	1	6.10566e-05	41	8.1005	2.23089e-06
2	0	0	1	1	14.525	-0.24638	-0.246625	-0.00833103	1	6.07986e-05	41	8.1305	2.05464e-06
2	0	0	1	1	14.555	-0.240383	-0.240638	-0.00788623	1	6.0555e-05	41	8.1605	1.89773e-06
2	0	0	1	1	14.585	-0.234386	-0.234622	-0.0074485	1	6.03246e-05	41	8.1905	1.74758e-06
2	0	0	1	1	14.615	-0.228389	-0.228645	-0.00708337	1	6.01063e-05	41	8.2205	1.61958e-06
2	0	0	1	1	14.645	-0.222392	-0.222638	-0.00670362	1	5.98991e-05	41	8.2505	1.49248e-06
2	0	0	1	1	14.6749	-0.216395	-0.216665	-0.00638563	1	5.97031e-05	41	8.2804	1.38354e-06
2	0	0	1	1	14.7049	-0.210398	-0.210664	-0.00605591	1	5.95161e-05	41	8.3104	1.27576e-06
2	0	0	1	1	14.7349	-0.204401	-0.204648	-0.00577679	1	5.93383e-05	41	8.3404	1.18221e-06
2	0	0	1	1	14.7649	-0.198404	-0.198657	-0.00547786	1	5.91693e-05	41	8.3704	1.08822e-06
2	0	0	1	1	14.7949	-0.192407	-0.192629	-0.00520847	1	5.90086e-05	41	8.4004	1.0033e-06
2	0	0	1	1	14.8249	-0.18641	-0.186645	-0.00492444	1	5.88559e-05	41	8.4304	9.19123e-07
2	0	0	1	1	14.8548	-0.180413	-0.180655	-0.00467479	1	5.87117e-05	41	8.4603	8.44524e-07
2	0	0	1	1	14.8848	-0.174416	-0.17469	-0.00442744	1	5.85746e-05	41	8.4903	7.73428e-07
2	0	0	1	1	14.9148	-0.168419	-0.168657	-0.00419632	1	5.84448e-05	41	8.5203	7.07739e-07
2	0	0	1	1	14.9598	-0.159424	-0.15958	-0.00406737	1	5.82621e-05	41	8.5653	6.49073e-07
2	0	0	1	1	15.0048	-0.150428	-0.150685	-0.00348511	1	5.80929e-05	42	8.6103	5.25153e-07
2	0	0	1	1	15.0348	-0.144432	-0.144674	-0.00329966	1	5.79918e-05	42	8.6403	4.77375e-07
2	0	0	1	1	15.0647	-0.138435	-0.138688	-0.00304543	1	5.78984e-05	42	8.6702	4.22366e-07
2	0	0	1	1	15.0947	-0.132438	-0.132704	-0.00282012	1	5.78115e-05	42	8.7002	3.74242e-07
2	0	0	1	1	15.1247	-0.126441	-0.126673	-0.00255857	1	5.77317e-05	42	8.7302	3.24103e-07
2	0	0	1	1	15.1547	-0.120444	-0.12069	-0.00232189	1	5.7659e-05	42	8.7602	2.8023e-07
2	0	0	1	1	15.1847	-0.114447	-0.114694	-0.00208429	1	5.75935e-05	42	8.7902	2.39056e-07
2	0	0	1	1	15.2147	-0.10845	-0.108696	-0.00187175	1	5.75351e-05	42	8.8202	2.03451e-07
2	0	0	1	1	15.2446	-0.102453	-0.102697	-0.00157724	1	5.74844e-05	42	8.8501	1.61977e-07
2	0	0	1	1	15.2746	-0.0964559	-0.0966945	-0.00136605	1	5.74407e-05	42	8.8801	1.32089e-07
2	0	0	1	1	15.3046	-0.0904589	-0.0906891	-0.00109836	1	5.74043e-05	42	8.9101	9.96096e-08
2	0	0	1	1	15.3346	-0.084462	-0.0847147	-0.00087459	1	5.73753e-05	42	8.9401	7.40906e-08
2	0	0	1	1	15.3646	-0.078465	-0.0787259	-0.000629888	1	5.73536e-05	42	8.9701	4.95885e-08
2	0	0	1	1	15.3946	-0.072468	-0.0727118	-0.000382335	1	5.73395e-05	42	9.0001	2.78003e-08
2	0	0	1	1	15.4246	-0.0664711	-0.0667264	-0.000129401	1	5.73328e-05	42	9.0301	8.63447e-09
2	1	0	1	1	15.4545	-0.0604741	-0.0607236	0.000121999	1	5.73341e-05	42	0.015	-7.40824e-09
2	1	0	1	1	15.4845	-0.0544772	-0.0547055	0.000398613	1	5.73427e-05	42	0.045	-2.18063e-08
2	1	0	1	1	15.5145	-0.0484802	-0.0487277	0.000648139	1	5.7359e-05	42	0.075	-3.15823e-08
2	1	0	1	1	15.5445	-0.0424832	-0.0427301	0.000895832	1	5.73829e-05	42	0.105	-3.8279e-08
2	1	0	1	1	15.5745	-0.0364863	-0.0367234	0.00113253	1	5.74146e-05	42	0.135	-4.15905e-08
2	1	0	1	1	15.6045	-0.0304893	-0.0307345	0.00140754	1	5.74539e-05	42	0.165	-4.32601e-08
2	1	0	1	1	15.6344	-0.0244969	-0.0247429	0.00168495	1	5.75008e-05	42	0.1949	-4.16906e-08
2	1	0	1	1	15.6644	-0.0184954	-0.0187609	0.00192865	1	5.75555e-05	42	0.2249	-3.61831e-08
2	1	0	1	1	15.6944	-0.0124984	-0.0127465	0.00215912	1	5.76178e-05	42	0.2549	-2.75211e-08
2	1	0	1	1	15.7244	-0.00650149	-0.0067299	0.00242473	1	5.76875e-05	42	0.2849	-1.63182e-08
2	1	0	1	1	15.7544	-0.000504529	-0.000735637	0.00266601	1	5.77648e-05	42	0.3149	-1.96122e-09
2	1	0	1	1	15.7844	0.00549243	0.00523945	0.00292845	1	5.78493e-05	42	0.3449	1.53435e-08
2	1	0	1	1	15.8144	0.0114894	0.0112565	0.00315204	1	5.79411e-05	42	0.3749	3.54811e-08
2	1	0	1	1	15.8443	0.0174863	0.017236	0.00340524	1	5.80399e-05	42	0.4048	5.86927e-08
2	1	0	1	1	15.8743	0.0234833	0.0232521	0.00362522	1	5.81459e-05	42	0.4348	8.42939e-08
2	1	0	1	1	15.9043	0.0294803	0.0292233	0.00384005	1	5.82585e-05	42	0.4648	1.12219e-07
2	1	0	1	1	15.9343	0.0354772	0.0352418	0.00404494	1	5.83779e-05	42	0.4948	1.42551e-07
2	1	0	1	1	15.9643	0.0414742	0.0412165	0.00427668	1	5.85038e-05	42	0.5248	1.7627e-07
2	1	0	1	1	15.9943	0.0474711	0.04722	0.0044783	1	5.86359e-05	42	0.5548	2.11465e-07
2	1	0	1	1	16.0243	0.0534681	0.0532329	0.0047011	1	5.87739e-05	42	0.5848	2.50253e-07
2	1	0	1	1	16.0542	0.059465	0.0592328	0.00487609	1	5.89177e-05	42	0.6147	2.88824e-07
2	1	0	1	1	16.0842	0.065462	0.0652367	0.00504739	1	5.90671e-05	42	0.6447	3.29275e-07
2	1	0	1	1	16.1142	0.0714589	0.0712264	0.00520804	1	5.92218e-05	42	0.6747	3.7095e-07
2	1	0	1	1	16.1442	0.0774559	0.0772334	0.00537858	1	5.93815e-05	42	0.7047	4.15406e-07
2	1	0	1	1	16.1742	0.0834529	0.0832009	0.00554856	1	5.95459e-05	42	0.7347	4.61645e-07
2	1	0	1	1	16.2042	0.0894498	0.0892277	0.00569103	1	5.97147e-05	42	0.7647	5.07798e-07
2	1	0	1	1	16.2341	0.0954468	0.0952219	0.00581899	1	5.98873e-05	42	0.7946	5.54095e-07
2	1	0	1	1	16.2641	0.101444	0.101201	0.00595566	1	6.00642e-05	42	0.8246	6.02721e-07
2	1	0	1	1	16.2941	0.107441	0.107196	0.00604405	1	6.02448e-05	42	0.8546	6.47898e-07
2	1	0	1	1	16.3241	0.113438	0.11317	0.00617769	1	6.04286e-05	42	0.8846	6.99128e-07
2	1	0	1	1	16.3541	0.119435	0.119189	0.00628645	1	6.06159e-05	42	0.9146	7.49274e-07
2	1	0	1	1	16.3841	0.125432	0.125169	0.00637787	1	6.08058e-05	42	0.9446	7.98313e-07
2	1	0	1	1	16.4141	0.131429	0.131182	0.00646347	1	6.09985e-05	42	0.9746	8.47888e-07
2	1	0	1	1	16.444	0.137425	0.137197	0.00653895	1	6.11933e-05	42	1.0045	8.97123e-07
2	1	0	1	1	16.474	0.143422	0.143172	0.00661435	1	6.13911e-05	42	1.0345	9.46987e-07
2	1	0	1	1	16.504	0.149419	0.14918	0.00669842	1	6.15909e-05	42	1.0645	9.99271e-07
2	1	0	1	1	16.534	0.155416	0.155192	0.00677433	1	6.17928e-05	42	1.0945	1.05132e-06
2	1	0	1	1	16.564	0.161413	0.161155	0.00682355	1	6.19965e-05	42	1.1245	1.09965e-06
2	1	0	1	1	16.594	0.16741	0.167173	0.00689247	1	6.22021e-05	42	1.1545	1.15224e-06
2	1	0	1	1	16.6239	0.173407	0.173165	0.00696853	1	6.24086e-05	42	1.1844	1.20671e-06
2	1	0	1	1	16.6539	0.179404	0.179189	0.00696449	1	6.26175e-05	42	1.2144	1.24796e-06
2	1	0	1	1	16.6839	0.185401	0.185161	0.00704287	1	6.28276e-05	42	1.2444	1.30407e-06
2	1	0	1	1	16.7139	0.191398	0.191159	0.00709559	1	6.30392e-05	42	1.2744	1.35639e-06
2	1	0	1	1	16.7439	0.197395	0.197155	0.00712596	1	6.3252e-05	42	1.3044	1.40491e-06
2	1	0	1	1	16.7739	0.203392	0.203145	0.00718265	1	6.3466e-05	42	1.3344	1.45912e-06
2	1	0	1	1	16.8039	0.209389	0.209172	0.00719365	1	6.36812e-05	42	1.3644	1.50471e-06
2	1	0	1	1	16.8338	0.215386	0.215154	0.00724513	1	6.38971e-05	42	1.3943	1.55882e-06
2	1	0	1	1	16.8638	0.221383	0.22116	0.00727198	1	6.41146e-05	42	1.4243	1.60827e-06
2	1	0	1	1	16.8938	0.22738	0.227145	0.00733112	1	6.43332e-05	42	1.4543	1.66522e-06
2	1	0	1	1	16.9238	0.233377	0.233133	0.00736315	1	6.45528e-05	42	1.4843	1.71659e-06
2	1	0	1	1	16.9538	0.239374	0.239123	0.00739941	1	6.47734e-05	42	1.5143	1.76937e-06
2	1	0	1	1	16.9838	0.245371	0.245119	0.00740412	1	6.49952e-05	42	1.5443	1.81489e-06
2	1	0	1	1	17.0138	0.251381	0.251108	0.00746469	1	6.52181e-05	42	1.5743	1.87444e-06
2	1	0	1	1	17.0437	0.257365	0.257124	0.00750016	1	6.54414e-05	42	1.6042	1.92848e-06
2	1	0	1	1	17.0737	0.263362	0.263109	0.00754652	1	6.56664e-05	42	1.6342	1.98556e-06
2	1	0	1	1	17.1037	0.269358	0.269112	0.00757784	1	6.58925e-05	42	1.6642	2.03929e-06
2	1	0	1	1	17.1337	0.275355	0.275092	0.00760368	1	6.61197e-05	42	1.6942	2.09171e-06
2	1	0	1	1	17.1637	0.281352	0.281115	0.00763834	1	6.63479e-05	42	1.7242	2.14725e-06
2	1	0	1	1	17.1937	0.287349	0.287104	0.00769602	1	6.65775e-05	42	1.7542	2.20956e-06
2	1	0	1	1	17.2236	0.293346	0.293122	0.00774716	1	6.68076e-05	42	1.7841	2.27087e-06
2	1	0	1	1	17.2536	0.299343	0.299107	0.0077985	1	6.70397e-05	42	1.8141	2.33259e-06
2	1	0	1	1	17.2836	0.30534	0.305094	0.00782125	1	6.7273e-05	42	1.8441	2.38622e-06
2	1	0	1	1	17.3136	0.311337	0.311112	0.00787051	1	6.75078e-05	42	1.8741	2.44861e-06
2	1	0	1	1	17.3436	0.317334	0.317071	0.00789861	1	6.77438e-05	42	1.9041	2.50442e-06
2	1	0	1	1	17.3736	0.323331	0.323115	0.00796175	1	6.79816e-05	42	1.9341	2.57256e-06
2	1	0	1	1	17.4036	0.329328	0.329097	0.00803392	1	6.82206e-05	42	1.9641	2.64394e-06
2	1	0	1	1	17.4335	0.335325	0.335066	0.00812282	1	6.8461e-05	42	1.994	2.72169e-06
2	1	0	1	1	17.4635	0.341322	0.34107	0.00812858	1	6.87036e-05	42	2.024	2.77241e-06
2	1	0	1	1	17.4935	0.347319	0.347073	0.00819805	1	6.89482e-05	42	2.054	2.84532e-06
2	1	0	1	1	17.5235	0.353316	0.353055	0.00826	1	6.91945e-05	42	2.084	2.91623e-06
2	1	0	1	1	17.5535	0.359313	0.359062	0.00833127	1	6.9443e-05	42	2.114	2.99144e-06
2	1	0	1	1	17.5835	0.36531	0.365054	0.00838959	1	6.96934e-05	42	2.144	3.06265e-06
2	1	0	1	1	17.6134	0.371307	0.371088	0.00848932	1	6.99455e-05	42	2.1739	3.15028e-06
2	1	0	1	1	17.6434	0.377304	0.377055	0.0085549	1	7.02003e-05	42	2.2039	3.22567e-06
2	1	0	1	1	17.6734	0.383301	0.383061	0.00863226	1	7.04575e-05	42	2.2339	3.30668e-06
2	1	0	1	1	17.7034	0.389298	0.38903	0.00868121	1	7.07168e-05	42	2.2639	3.37725e-06
2	1	0	1	1	17.7334	0.395295	0.395024	0.00880576	1	7.09787e-05	42	2.2939	3.47849e-06
2	1	0	1	1	17.7634	0.401292	0.401038	0.00888581	1	7.12431e-05	42	2.3239	3.56355e-06
2	1	0	1	1	17.7934	0.407288	0.407026	0.00899641	1	7.151e-05	42	2.3539	3.66177e-06
2	1	0	1	1	17.8233	0.413285	0.413035	0.00905101	1	7.1779e-05	42	2.3838	3.73839e-06
2	1	0	1	1	17.8533	0.419282	0.419015	0.00913908	1	7.20514e-05	42	2.4138	3.82941e-06
2	1	0	1	1	17.8833	0.425279	0.425021	0.00922427	1	7.23267e-05	42	2.4438	3.9205e-06
2	1	0	1	1	17.9133	0.431276	0.431022	0.00934342	1	7.26049e-05	42	2.4738	4.02722e-06
2	1	0	1	1	17.9433	0.437273	0.437012	0.00942549	1	7.2886e-05	42	2.5038	4.11905e-06
2	1	0	1	1	17.9733	0.44327	0.443017	0.00955953	1	7.31703e-05	42	2.5338	4.23503e-06
2	1	0	1	1	17.9998	0.448618	0.448271	0.00960761	1	7.34244e-05	42	2.5603	4.30681e-06