File: Python/Data/GoldElectrode/240313/240313-CVEIS_PostActivation-Fe2Fe3_5mM-HCl1M-0000RPM-Ag_AgCl_BLF8-Au_RDE_02_PEIS_C15.mpt
EC-Lab ASCII FILE
Nb header lines : 66

Potentio Electrochemical Impedance Spectroscopy

Run on channel : 15 (SN 19485)
User :
Electrode connection : standard
Potential control : Ewe
Ewe ctrl range : min = -1.00 V, max = 1.00 V
Ewe,I filtering : <None>
Safety Limits :
	Do not start on E overload
Channel : Floating
Acquisition started on : 03/13/2024 16:38:30.802
Loaded Setting File :  C:\Data\mathias\GoldElectrode\240308-CVEIS_PostActivation-Fe2Fe3_5mM-HCl1M-0RPM-Ag_AgCl_BLF8-Au_RDE-C15.mps
Saved on :
	File : 240313-CVEIS_PostActivation-Fe2Fe3_5mM-HCl1M-0RPM-Ag_AgCl_BLF8-Au_RDE_02_PEIS_C15.mpr
	Directory : C:\Data\mathias\GoldElectrode\
	Host : 192.168.0.1
Device : VMP-300 (SN 0826)
Address : USB
EC-Lab for windows v11.52 (software)
Internet server v11.52 (firmware)
Command interpretor v11.52 (firmware)
Electrode material :
Initial state :
Electrolyte :
Comments :
Cable : special
Electrode surface area : 0.001 cm²
Characteristic mass : 0.001 g
Equivalent Weight : 0.000 g/eq.
Density : 0.000 g/cm3
Volume (V) : 0.001 cm³
Record EIS quality indicators
Cycle Definition : Charge/Discharge alternance
Mode                Single sine
E (V)               0.0000
vs.                 Eoc
tE (h:m:s)          0:01:0.0000
record              0
dI                  0.000
unit dI             mA
dt (s)              0.000
fi                  400.000
unit fi             kHz
ff                  100.000
unit ff             mHz
Nd                  10
Points              per decade
spacing             Logarithmic
Va (mV)             5.0
pw                  0.10
Na                  3
corr                0
E range min (V)     -1.000
E range max (V)     1.000
I Range             Auto
Bandwidth           8
nc cycles           1
goto Ns'            0
nr cycles           0
inc. cycle          1

freq/Hz	Re(Z)/Ohm	-Im(Z)/Ohm	|Z|/Ohm	Phase(Z)/deg	time/s	<Ewe>/V	<I>/mA	Cs/µF	Cp/µF	cycle number	I Range	|Ewe|/V	|I|/A	Ns	(Q-Qo)/mA.h	THD Ewe/%	NSD Ewe/%	NSR Ewe/%	|Ewe h2|/V	|Ewe h3|/V	|Ewe h4|/V	|Ewe h5|/V	|Ewe h6|/V	|Ewe h7|/V	THD I/%	NSD I/%	NSR I/%	|I h2|/A	|I h3|/A	|I h4|/A	|I h5|/A	|I h6|/A	|I h7|/A	Re(Y)/Ohm-1	Im(Y)/Ohm-1	|Y|/Ohm-1	Phase(Y)/deg	Re(C)/nF	Im(C)/nF	|C|/nF	Phase(C)/deg	Re(M)	Im(M)	|M|	Phase(M)/deg	Re(Permittivity)	Im(Permittivity)	|Permittivity|	Phase(Permittivity)/deg	Re(Resistivity)/Ohm.cm	Im(Resistivity)/Ohm.cm	|Resistivity|/Ohm.cm	Phase(Resistivity)/deg	Re(Conductivity)/mS/cm	Im(Conductivity)/mS/cm	|Conductivity|/mS/cm	Phase(Conductivity)/deg	Tan(Delta)	Loss Angle(Delta)/deg	dq/mA.h
399996	3.31182	1.45815	3.61861	-23.7633	203.378	0.451473	-0.0116505	0.272874	0.044308	1	38	0.00467274	0.00129131	0	4.68622e-05	-1	-1	-1	0	0	0	0	0	0	-1	-1	-1	0	0	0	0	0	0	0.25292	0.111357	0.276349	23.7633	44.308	100.634	109.957	-66.2367	0.0000000E+000	0.0000000E+000	0.0000000E+000	66.2367	0.0000000E+000	0.0000000E+000	0.0000000E+000	-66.2367	0.0000000E+000	0.0000000E+000	0.0000000E+000	-23.7633	0.0000000E+000	0.0000000E+000	0.0000000E+000	23.7633	2.27125	66.2367	4.68622e-05
252347	3.25619	1.00484	3.40771	-17.1499	205.672	0.45149	-0.00240776	0.62766	0.0545749	1	38	0.0051465	0.00151025	0	4.35366e-05	-1	-1	-1	0	0	0	0	0	0	-1	-1	-1	0	0	0	0	0	0	0.280405	0.0865311	0.293452	17.1499	54.5749	176.85	185.08	-72.8501	0.0000000E+000	0.0000000E+000	0.0000000E+000	72.8501	0.0000000E+000	0.0000000E+000	0.0000000E+000	-72.8501	0.0000000E+000	0.0000000E+000	0.0000000E+000	-17.1499	0.0000000E+000	0.0000000E+000	0.0000000E+000	17.1499	3.24051	72.8501	-1.41491e-07
159201	3.26608	0.770055	3.35563	-13.2665	207.967	0.451467	-0.00169463	1.29824	0.0683673	1	38	0.00514027	0.00153183	0	4.35718e-05	-1	-1	-1	0	0	0	0	0	0	-1	-1	-1	0	0	0	0	0	0	0.290054	0.0683869	0.298006	13.2665	68.3673	289.97	297.921	-76.7335	0.0000000E+000	0.0000000E+000	0.0000000E+000	76.7335	0.0000000E+000	0.0000000E+000	0.0000000E+000	-76.7335	0.0000000E+000	0.0000000E+000	0.0000000E+000	-13.2665	0.0000000E+000	0.0000000E+000	0.0000000E+000	13.2665	4.24136	76.7335	-1.75172e-06
100431	3.33636	0.68998	3.40695	-11.6844	210.261	0.451473	-0.00235376	2.29677	0.0942015	1	38	0.00515675	0.0015136	0	4.17319e-05	0.950993	0.51805	19.2719	2.21315e-05	2.33497e-05	7.21316e-06	1.83588e-05	2.66949e-05	7.36279e-06	0.114447	0.0648701	1.88824	2.59409e-07	5.90549e-07	6.34506e-07	7.74633e-07	7.52003e-07	8.53294e-07	0.287435	0.0594434	0.293517	11.6844	94.2015	455.506	465.145	-78.3156	0.0000000E+000	0.0000000E+000	0.0000000E+000	78.3156	0.0000000E+000	0.0000000E+000	0.0000000E+000	-78.3156	0.0000000E+000	0.0000000E+000	0.0000000E+000	-11.6844	0.0000000E+000	0.0000000E+000	0.0000000E+000	11.6844	4.83544	78.3156	-3.119e-06
63362.9	3.43863	0.672071	3.50369	-11.0589	212.556	0.451477	-0.0015252	3.7374	0.137515	1	38	0.00517855	0.00147803	0	3.75354e-05	1.11457	0.47024	18.5314	2.52741e-05	1.83491e-05	1.58543e-05	3.56511e-05	1.68819e-05	1.70703e-05	0.144139	0.0799549	1.9441	7.72728e-07	7.52108e-07	5.78365e-07	1.33746e-06	7.54271e-07	4.07252e-07	0.280113	0.0547475	0.285413	11.0589	137.515	703.589	716.902	-78.9411	0.0000000E+000	0.0000000E+000	0.0000000E+000	78.9411	0.0000000E+000	0.0000000E+000	0.0000000E+000	-78.9411	0.0000000E+000	0.0000000E+000	0.0000000E+000	-11.0589	0.0000000E+000	0.0000000E+000	0.0000000E+000	11.0589	5.11646	78.9411	-2.42314e-06
39971.8	3.60129	0.687858	3.6664	-10.8134	214.85	0.451481	-0.00169277	5.78852	0.203745	1	38	0.00517601	0.00141174	0	3.35439e-05	0.943032	0.561532	18.5844	1.61011e-05	1.18813e-05	1.90525e-05	1.11317e-05	2.46559e-05	2.61727e-05	0.107104	0.072174	2.05466	5.91842e-07	7.52022e-07	4.49317e-07	3.35865e-07	6.62477e-07	5.4069e-07	0.267904	0.0511705	0.272747	10.8134	203.745	1066.71	1085.99	-79.1866	0.0000000E+000	0.0000000E+000	0.0000000E+000	79.1866	0.0000000E+000	0.0000000E+000	0.0000000E+000	-79.1866	0.0000000E+000	0.0000000E+000	0.0000000E+000	-10.8134	0.0000000E+000	0.0000000E+000	0.0000000E+000	10.8134	5.23552	79.1866	-1.97978e-06
25219	3.74063	0.739302	3.81299	-11.1799	217.144	0.451484	-0.0010653	8.53633	0.32091	1	38	0.00514847	0.00135024	0	3.44935e-05	1.00393	0.614923	19.0992	2.15027e-05	2.38304e-05	1.20432e-05	1.98036e-05	2.34412e-05	1.34263e-05	0.132126	0.0811925	2.12963	9.22232e-07	9.21011e-07	6.7881e-07	6.39552e-07	5.32626e-07	2.16545e-07	0.257284	0.0508499	0.262261	11.1799	320.91	1623.7	1655.11	-78.8201	0.0000000E+000	0.0000000E+000	0.0000000E+000	78.8201	0.0000000E+000	0.0000000E+000	0.0000000E+000	-78.8201	0.0000000E+000	0.0000000E+000	0.0000000E+000	-11.1799	0.0000000E+000	0.0000000E+000	0.0000000E+000	11.1799	5.05968	78.8201	4.2704e-07
15912.6	3.87897	0.844558	3.96985	-12.2832	219.438	0.451488	-0.00175794	11.8426	0.535994	1	38	0.00517101	0.00130257	0	3.26031e-05	0.967699	0.563004	18.312	2.27616e-05	1.59705e-05	1.44472e-05	1.22869e-05	3.01414e-05	1.15492e-05	0.148716	0.0599571	2.25478	8.5894e-07	7.58438e-07	5.093e-07	1.04057e-06	6.17335e-07	6.67838e-07	0.246132	0.0535898	0.251899	12.2832	535.994	2461.77	2519.44	-77.7168	0.0000000E+000	0.0000000E+000	0.0000000E+000	77.7168	0.0000000E+000	0.0000000E+000	0.0000000E+000	-77.7168	0.0000000E+000	0.0000000E+000	0.0000000E+000	-12.2832	0.0000000E+000	0.0000000E+000	0.0000000E+000	12.2832	4.5929	77.7168	-1.22439e-06
10039.3	3.98137	1.04855	4.11713	-14.7545	221.734	0.451481	-0.000998273	15.1191	0.980646	1	38	0.0051019	0.00123919	0	3.46184e-05	1.10006	0.60232	19.202	2.0692e-05	2.96186e-05	1.57554e-05	2.33887e-05	2.18665e-05	1.42537e-05	0.134343	0.0851108	2.33287	7.72831e-07	6.95535e-07	8.45364e-07	6.68754e-07	3.24959e-07	4.80359e-07	0.234878	0.0618583	0.242887	14.7545	980.647	3723.56	3850.52	-75.2455	0.0000000E+000	0.0000000E+000	0.0000000E+000	75.2455	0.0000000E+000	0.0000000E+000	0.0000000E+000	-75.2455	0.0000000E+000	0.0000000E+000	0.0000000E+000	-14.7545	0.0000000E+000	0.0000000E+000	0.0000000E+000	14.7545	3.79704	75.2455	-5.77e-07
6332.63	4.13608	1.39592	4.36529	-18.6495	224.146	0.45135	-0.00194786	18.0042	1.84107	1	38	0.00515959	0.00118196	0	3.23263e-05	0.933005	0.462061	18.7618	2.9284e-05	1.93312e-05	1.38248e-05	9.71875e-06	1.26705e-05	1.92164e-05	0.138606	0.0912866	2.45946	8.75929e-07	5.21687e-07	5.94847e-07	2.43766e-07	5.46763e-07	7.48156e-07	0.217051	0.0732546	0.22908	18.6495	1841.07	5455.05	5757.35	-71.3505	0.0000000E+000	0.0000000E+000	0.0000000E+000	71.3505	0.0000000E+000	0.0000000E+000	0.0000000E+000	-71.3505	0.0000000E+000	0.0000000E+000	0.0000000E+000	-18.6495	0.0000000E+000	0.0000000E+000	0.0000000E+000	18.6495	2.96297	71.3505	-5.81137e-07
3993.72	4.30908	1.96397	4.73554	-24.5023	226.815	0.451372	-0.00267775	20.2912	3.4901	1	38	0.00497221	0.00104998	0	3.11306e-05	0.917832	0.514761	19.3821	1.81973e-05	2.30628e-05	1.20674e-05	1.15562e-05	2.35814e-05	1.3654e-05	0.149578	0.0975106	2.80257	8.75297e-07	7.00456e-07	4.36613e-07	5.02619e-07	3.43971e-07	5.86408e-07	0.192152	0.0875781	0.211169	24.5023	3490.1	7657.51	8415.36	-65.4977	0.0000000E+000	0.0000000E+000	0.0000000E+000	65.4977	0.0000000E+000	0.0000000E+000	0.0000000E+000	-65.4977	0.0000000E+000	0.0000000E+000	0.0000000E+000	-24.5023	0.0000000E+000	0.0000000E+000	0.0000000E+000	24.5023	2.19407	65.4977	1.35119e-06
2519.19	4.6193	2.8499	5.4277	-31.6727	229.028	0.451357	-0.00212475	22.1681	6.11164	1	38	0.00532192	0.000980512	0	3.05309e-05	0.963818	0.558061	18.0321	1.3533e-05	1.75562e-05	1.96087e-05	1.15355e-05	2.83354e-05	1.54099e-05	0.174071	0.152925	2.9956	1.21602e-06	5.57089e-07	4.21082e-07	4.87976e-07	4.68214e-07	3.99802e-07	0.1568	0.0967383	0.18424	31.6727	6111.64	9906.14	11639.7	-58.3273	0.0000000E+000	0.0000000E+000	0.0000000E+000	58.3273	0.0000000E+000	0.0000000E+000	0.0000000E+000	-58.3273	0.0000000E+000	0.0000000E+000	0.0000000E+000	-31.6727	0.0000000E+000	0.0000000E+000	0.0000000E+000	31.6727	1.62086	58.3273	-3.72662e-07
1589.49	5.12424	4.15343	6.59612	-39.0263	231.241	0.451364	-0.00166486	24.1077	9.55853	1	38	0.00525309	0.000796391	0	2.94826e-05	0.968023	0.402207	18.6977	1.73302e-05	8.51463e-06	2.80252e-05	1.4191e-05	2.09581e-05	2.6641e-05	0.336833	0.119974	3.62451	1.78668e-06	1.28088e-06	8.22206e-07	8.53762e-07	4.83864e-07	4.85988e-07	0.117775	0.0954617	0.151604	39.0263	9558.53	11792.7	15180	-50.9737	0.0000000E+000	0.0000000E+000	0.0000000E+000	50.9737	0.0000000E+000	0.0000000E+000	0.0000000E+000	-50.9737	0.0000000E+000	0.0000000E+000	0.0000000E+000	-39.0263	0.0000000E+000	0.0000000E+000	0.0000000E+000	39.0263	1.23374	50.9737	-1.15353e-06
1002.75	6.07466	5.97056	8.51758	-44.5048	233.455	0.451352	-0.00208194	26.5835	13.062	1	38	0.00511817	0.000600895	0	2.76721e-05	0.967336	0.533237	18.89	1.69432e-05	1.57029e-05	1.69803e-05	2.37205e-05	1.34289e-05	2.52816e-05	0.507515	0.156538	4.92675	2.18699e-06	1.11729e-06	5.20226e-07	1.21119e-06	5.35539e-07	7.35439e-07	0.0837317	0.0822968	0.117404	44.5048	13062	13289.7	18634.2	-45.4952	0.0000000E+000	0.0000000E+000	0.0000000E+000	45.4952	0.0000000E+000	0.0000000E+000	0.0000000E+000	-45.4952	0.0000000E+000	0.0000000E+000	0.0000000E+000	-44.5048	0.0000000E+000	0.0000000E+000	0.0000000E+000	44.5048	1.01744	45.4951	-1.06957e-06
632.773	7.69437	8.35423	11.3577	-47.3545	235.669	0.45138	0.000308786	30.1069	16.2892	1	38	0.00501023	0.000441132	0	2.76713e-05	1.16847	0.443641	19.0379	2.63682e-05	1.96845e-05	3.17116e-05	9.28959e-06	1.94113e-05	1.97874e-05	0.626219	0.208215	6.57026	1.9174e-06	9.99809e-07	7.10064e-07	1.01985e-06	6.3233e-07	8.16175e-07	0.0596479	0.0647632	0.0880463	47.3545	16289.2	15002.6	22145.4	-42.6455	0.0000000E+000	0.0000000E+000	0.0000000E+000	42.6455	0.0000000E+000	0.0000000E+000	0.0000000E+000	-42.6455	0.0000000E+000	0.0000000E+000	0.0000000E+000	-47.3545	0.0000000E+000	0.0000000E+000	0.0000000E+000	47.3545	0.921015	42.6455	1.81242e-07
399.106	10.4494	11.0897	15.2372	-46.7029	237.884	0.451385	0.000502421	35.9592	19.0477	1	38	0.00495457	0.000325163	0	2.73989e-05	1.22306	0.728321	19.4862	2.22961e-05	1.54002e-05	1.66336e-05	2.62222e-05	2.64536e-05	2.77169e-05	0.687271	0.235167	9.0563	1.2915e-06	9.05006e-07	8.14453e-07	7.8519e-07	3.80866e-07	7.11994e-07	0.0450071	0.0477651	0.0656289	46.7029	19047.7	17947.9	26171.4	-43.2971	0.0000000E+000	0.0000000E+000	0.0000000E+000	43.2971	0.0000000E+000	0.0000000E+000	0.0000000E+000	-43.2971	0.0000000E+000	0.0000000E+000	0.0000000E+000	-46.7029	0.0000000E+000	0.0000000E+000	0.0000000E+000	46.7029	0.942258	43.2972	1.07249e-07
251.853	14.3036	13.831	19.8969	-44.0376	240.091	0.451398	0.000144927	45.6899	22.0777	1	38	0.00492079	0.000247314	0	2.75372e-05	1.16939	0.674288	19.8484	2.5946e-05	1.44082e-05	1.86746e-05	1.95779e-05	3.30686e-05	1.6501e-05	0.908658	0.277849	11.8303	1.22039e-06	5.23667e-07	8.57624e-07	9.80432e-07	8.667e-07	6.54175e-07	0.0361304	0.0349366	0.0502591	44.0376	22077.7	22832.1	31760.4	-45.9624	0.0000000E+000	0.0000000E+000	0.0000000E+000	45.9624	0.0000000E+000	0.0000000E+000	0.0000000E+000	-45.9624	0.0000000E+000	0.0000000E+000	0.0000000E+000	-44.0376	0.0000000E+000	0.0000000E+000	0.0000000E+000	44.0376	1.03417	45.9624	1.51845e-07
158.831	19.3638	15.9831	25.1081	-39.5366	242.562	0.45137	-0.00070286	62.6939	25.405	1	39	0.00498036	0.000198357	0	2.74614e-05	1.02745	0.601379	20.7559	1.04704e-05	1.671e-05	1.21437e-05	2.69578e-05	2.13481e-05	2.20545e-05	0.553987	0.131749	6.41649	6.04768e-07	3.28153e-07	1.83156e-07	6.88258e-07	2.61693e-07	3.02634e-07	0.030716	0.0253533	0.0398279	39.5366	25405	30778.7	39909.2	-50.4634	0.0000000E+000	0.0000000E+000	0.0000000E+000	50.4634	0.0000000E+000	0.0000000E+000	0.0000000E+000	-50.4634	0.0000000E+000	0.0000000E+000	0.0000000E+000	-39.5366	0.0000000E+000	0.0000000E+000	0.0000000E+000	39.5366	1.21152	50.4634	-2.74665e-08
100.224	24.8185	17.3394	30.2756	-34.9401	244.767	0.451375	-0.00063353	91.5822	30.0397	1	39	0.00493757	0.000163087	0	2.73738e-05	1.23921	0.603227	21.1071	2.5475e-05	2.91732e-05	1.87628e-05	1.79093e-05	2.4174e-05	1.77743e-05	0.581097	0.172252	7.73962	4.50298e-07	2.7309e-07	2.31194e-07	5.7826e-07	2.81762e-07	2.89932e-07	0.0270763	0.0189168	0.0330299	34.9401	30039.6	42996.7	52450.9	-55.0599	0.0000000E+000	0.0000000E+000	0.0000000E+000	55.0599	0.0000000E+000	0.0000000E+000	0.0000000E+000	-55.0599	0.0000000E+000	0.0000000E+000	0.0000000E+000	-34.9401	0.0000000E+000	0.0000000E+000	0.0000000E+000	34.9401	1.43133	55.0599	-1.92062e-08
63.2394	30.2036	18.2622	35.2954	-31.1587	246.932	0.451373	-0.000789716	137.81	36.8934	1	39	0.00491779	0.000139332	0	2.71014e-05	1.176	0.458345	21.3391	1.33475e-05	2.05433e-05	3.25078e-05	1.24782e-05	2.32758e-05	2.5994e-05	0.593795	0.148549	9.22093	4.49668e-07	2.50107e-07	3.36799e-07	3.39346e-07	3.14615e-07	2.38931e-07	0.024245	0.0146594	0.0283323	31.1587	36893.4	61017.6	71304.1	-58.8413	0.0000000E+000	0.0000000E+000	0.0000000E+000	58.8413	0.0000000E+000	0.0000000E+000	0.0000000E+000	-58.8413	0.0000000E+000	0.0000000E+000	0.0000000E+000	-31.1587	0.0000000E+000	0.0000000E+000	0.0000000E+000	31.1587	1.65389	58.8413	-2.60094e-07
39.8851	35.3325	19.1424	40.1848	-28.4479	249.066	0.451381	-0.000649373	208.455	47.3022	1	39	0.00489378	0.000121782	0	2.6889e-05	1.22123	0.60573	21.4046	1.01743e-05	2.05111e-05	2.90971e-05	1.17164e-05	3.20746e-05	2.59379e-05	0.674786	0.290728	10.5728	3.22596e-07	2.49665e-07	3.22718e-07	2.38536e-07	3.98406e-07	3.38038e-07	0.0218802	0.0118542	0.024885	28.4479	47302.2	87309.2	99299.5	-61.5521	0.0000000E+000	0.0000000E+000	0.0000000E+000	61.5521	0.0000000E+000	0.0000000E+000	0.0000000E+000	-61.5521	0.0000000E+000	0.0000000E+000	0.0000000E+000	-28.4479	0.0000000E+000	0.0000000E+000	0.0000000E+000	28.4479	1.84577	61.5521	8.85685e-08
25.1691	40.7953	21.1062	45.9318	-27.3556	251.174	0.451379	-0.000479209	299.601	63.2608	1	39	0.00492717	0.000107271	0	2.69108e-05	0.906197	0.581287	20.7381	1.85825e-05	1.52017e-05	1.43977e-05	2.51801e-05	1.51991e-05	1.06482e-05	0.736231	0.24933	11.9032	4.69186e-07	1.5877e-07	2.74708e-07	4.48992e-07	1.4767e-07	1.62284e-07	0.0193368	0.0100042	0.0217714	27.3556	63260.8	122275	137670	-62.6444	0.0000000E+000	0.0000000E+000	0.0000000E+000	62.6444	0.0000000E+000	0.0000000E+000	0.0000000E+000	-62.6444	0.0000000E+000	0.0000000E+000	0.0000000E+000	-27.3556	0.0000000E+000	0.0000000E+000	0.0000000E+000	27.3556	1.93286	62.6444	9.39116e-08
15.879	46.2243	23.1432	51.6942	-26.5958	253.28	0.4514	-0.000659252	433.085	86.803	1	39	0.00491702	9.51174e-05	0	2.66366e-05	0.94723	0.655407	20.871	1.36007e-05	2.38802e-05	1.61235e-05	1.17498e-05	1.80195e-05	1.83299e-05	0.765397	0.333003	13.5426	4.52488e-07	3.56183e-07	8.90891e-08	3.21207e-07	1.96989e-07	1.40773e-07	0.0172976	0.00866042	0.0193445	26.5958	86803	173373	193889	-63.4042	0.0000000E+000	0.0000000E+000	0.0000000E+000	63.4042	0.0000000E+000	0.0000000E+000	0.0000000E+000	-63.4042	0.0000000E+000	0.0000000E+000	0.0000000E+000	-26.5958	0.0000000E+000	0.0000000E+000	0.0000000E+000	26.5958	1.99732	63.4042	1.11259e-07
10.016	52.5767	25.9331	58.6245	-26.2545	255.511	0.451395	-0.000560285	612.73	119.9	1	39	0.00491371	8.38166e-05	0	2.57765e-05	1.18613	0.702334	21.614	1.87294e-05	3.01205e-05	1.98394e-05	2.30222e-05	1.43508e-05	2.46278e-05	0.835099	0.482012	15.5921	2.66363e-07	2.95418e-07	2.31078e-07	2.71584e-07	1.51882e-07	3.63756e-07	0.015298	0.00754564	0.0170577	26.2545	119900	243085	271047	-63.7455	0.0000000E+000	0.0000000E+000	0.0000000E+000	63.7455	0.0000000E+000	0.0000000E+000	0.0000000E+000	-63.7455	0.0000000E+000	0.0000000E+000	0.0000000E+000	-26.2545	0.0000000E+000	0.0000000E+000	0.0000000E+000	26.2545	2.0274	63.7455	-8.0039e-07
6.31569	59.3662	30.3166	66.6592	-27.0521	258.1	0.451378	-0.000386766	831.225	171.934	1	39	0.00491154	7.36814e-05	0	2.58261e-05	0.968318	0.372599	14.9991	1.38076e-05	2.43631e-05	1.85579e-05	1.57053e-05	1.66078e-05	1.8803e-05	0.888089	0.463771	12.3876	4.15956e-07	2.19667e-07	2.58793e-07	1.88924e-07	1.42898e-07	2.18455e-07	0.0133604	0.00682277	0.0150017	27.0521	171934	336681	378042	-62.9479	0.0000000E+000	0.0000000E+000	0.0000000E+000	62.9479	0.0000000E+000	0.0000000E+000	0.0000000E+000	-62.9479	0.0000000E+000	0.0000000E+000	0.0000000E+000	-27.0521	0.0000000E+000	0.0000000E+000	0.0000000E+000	27.0521	1.95821	62.9479	-4.45916e-07
3.98597	67.3798	35.7835	76.2922	-27.9715	261.636	0.45139	-0.000479769	1115.84	245.476	1	39	0.0049037	6.42752e-05	0	2.42945e-05	0.653762	0.27946	10.8647	1.1214e-05	1.68143e-05	1.13961e-05	1.53706e-05	6.02448e-06	1.19142e-05	0.757822	0.37946	10.3472	2.98258e-07	9.37222e-08	1.56513e-07	2.14557e-07	8.85495e-08	1.7021e-07	0.0115763	0.00614784	0.0131075	27.9715	245476	462227	523367	-62.0285	0.0000000E+000	0.0000000E+000	0.0000000E+000	62.0285	0.0000000E+000	0.0000000E+000	0.0000000E+000	-62.0285	0.0000000E+000	0.0000000E+000	0.0000000E+000	-27.9715	0.0000000E+000	0.0000000E+000	0.0000000E+000	27.9715	1.88299	62.0285	-1.54258e-06
2.51368	76.8379	42.7185	87.9143	-29.0721	267.426	0.451401	-0.000549282	1482.16	349.951	1	40	0.00491107	5.5862e-05	0	2.42865e-05	0.845883	0.396406	14.6519	1.58713e-05	1.14009e-05	1.64776e-05	1.49335e-05	2.29366e-05	1.45292e-05	0.600402	0.236647	1.78265	3.2479e-07	2.92203e-08	2.0738e-08	5.70088e-08	3.07525e-08	2.26782e-08	0.0099416	0.00552708	0.0113747	29.0721	349951	629458	720196	-60.9279	0.0000000E+000	0.0000000E+000	0.0000000E+000	60.9279	0.0000000E+000	0.0000000E+000	0.0000000E+000	-60.9279	0.0000000E+000	0.0000000E+000	0.0000000E+000	-29.0721	0.0000000E+000	0.0000000E+000	0.0000000E+000	29.0721	1.79871	60.9279	-4.49388e-07
1.5871	88.0881	51.7132	102.146	-30.4156	275.057	0.451395	-0.000588976	1939.16	497.022	1	40	0.00490865	4.80553e-05	0	2.12052e-05	0.744386	0.279909	11.6198	2.04481e-05	8.21281e-06	1.82664e-05	1.24638e-05	5.89759e-06	1.25977e-05	0.670302	0.301183	1.67732	2.93078e-07	7.6584e-08	2.34461e-08	8.33217e-08	2.1522e-08	3.18894e-08	0.00844259	0.00495633	0.00978992	30.4156	497022	846626	981737	-59.5844	0.0000000E+000	0.0000000E+000	0.0000000E+000	59.5844	0.0000000E+000	0.0000000E+000	0.0000000E+000	-59.5844	0.0000000E+000	0.0000000E+000	0.0000000E+000	-30.4156	0.0000000E+000	0.0000000E+000	0.0000000E+000	30.4156	1.7034	59.5844	-2.73927e-06
1.00122	101.31	63.0802	119.344	-31.9082	286.716	0.451391	-0.000605863	2519.99	704.024	1	40	0.00490095	4.10659e-05	0	1.92015e-05	0.639488	0.238561	9.22362	1.14599e-05	1.10279e-05	1.52243e-05	1.59556e-05	6.29759e-06	8.05746e-06	0.64592	0.098945	1.59603	2.58422e-07	2.99239e-08	2.35849e-08	3.3217e-08	1.7373e-08	1.15673e-08	0.00711305	0.0044289	0.00837917	31.9082	704024	1.1307e+06	1.33197e+06	-58.0918	0.0000000E+000	0.0000000E+000	0.0000000E+000	58.0918	0.0000000E+000	0.0000000E+000	0.0000000E+000	-58.0918	0.0000000E+000	0.0000000E+000	0.0000000E+000	-31.9082	0.0000000E+000	0.0000000E+000	0.0000000E+000	31.9082	1.60605	58.0918	-2.72866e-06
0.631645	117.905	78.1745	141.467	-33.5455	304.718	0.451385	-0.000687474	3223.16	984.246	1	40	0.00490215	3.46523e-05	0	1.59726e-05	0.535486	0.225675	6.92242	9.2091e-06	6.87532e-06	8.83099e-06	1.3518e-05	1.2934e-05	6.66423e-06	0.706969	0.360254	1.49942	2.28996e-07	4.54023e-08	4.37028e-08	4.71087e-08	1.90337e-08	2.54034e-08	0.00589147	0.00390622	0.0070688	33.5455	984246	1.48447e+06	1.78112e+06	-56.4545	0.0000000E+000	0.0000000E+000	0.0000000E+000	56.4545	0.0000000E+000	0.0000000E+000	0.0000000E+000	-56.4545	0.0000000E+000	0.0000000E+000	0.0000000E+000	-33.5455	0.0000000E+000	0.0000000E+000	0.0000000E+000	33.5455	1.50823	56.4545	-5.00839e-06
0.398211	138.727	97.1473	169.36	-35.0026	337.934	0.451393	-0.000624939	4114.11	1353.67	1	41	0.00490302	2.89502e-05	0	1.31361e-05	0.388057	0.100109	7.24758	5.59547e-06	9.0273e-06	8.23735e-06	7.60781e-06	6.08319e-06	8.10771e-06	0.804111	0.142571	0.548178	2.27347e-07	2.42542e-08	1.45104e-08	3.44176e-08	1.10734e-08	1.24332e-08	0.00483659	0.00338694	0.00590457	35.0026	1.35368e+06	1.93306e+06	2.35991e+06	-54.9974	0.0000000E+000	0.0000000E+000	0.0000000E+000	54.9974	0.0000000E+000	0.0000000E+000	0.0000000E+000	-54.9974	0.0000000E+000	0.0000000E+000	0.0000000E+000	-35.0026	0.0000000E+000	0.0000000E+000	0.0000000E+000	35.0026	1.42801	54.9974	2.39395e-07
0.251222	164.447	121.345	204.371	-36.4237	382.177	0.451386	-0.000633294	5220.83	1840.55	1	41	0.004902	2.39858e-05	0	1.88601e-06	0.346418	0.16474	5.77981	9.39769e-06	7.44863e-06	6.23438e-06	5.06656e-06	4.93894e-06	5.18582e-06	0.798518	0.17139	0.601555	1.86828e-07	1.97877e-08	7.04602e-09	3.41685e-08	3.43469e-09	6.64834e-09	0.0039372	0.00290526	0.00489307	36.4237	1.84055e+06	2.49431e+06	3.09988e+06	-53.5763	0.0000000E+000	0.0000000E+000	0.0000000E+000	53.5763	0.0000000E+000	0.0000000E+000	0.0000000E+000	-53.5763	0.0000000E+000	0.0000000E+000	0.0000000E+000	-36.4237	0.0000000E+000	0.0000000E+000	0.0000000E+000	36.4237	1.35519	53.5763	-8.30146e-06
0.158419	197.244	152.168	249.119	-37.6492	451.944	0.451387	-0.000525436	6602.22	2463.34	1	41	0.00490311	1.96818e-05	0	-1.20246e-05	0.346922	0.175312	4.79606	8.28257e-06	7.58214e-06	4.65286e-06	5.22243e-06	6.10284e-06	7.52613e-06	0.845203	0.281114	0.723862	1.60003e-07	1.80119e-08	1.23398e-08	3.27191e-08	1.21985e-08	8.82249e-09	0.00317826	0.00245194	0.00401415	37.6492	2.46334e+06	3.19303e+06	4.0328e+06	-52.3508	0.0000000E+000	0.0000000E+000	0.0000000E+000	52.3508	0.0000000E+000	0.0000000E+000	0.0000000E+000	-52.3508	0.0000000E+000	0.0000000E+000	0.0000000E+000	-37.6492	0.0000000E+000	0.0000000E+000	0.0000000E+000	37.6492	1.29622	52.3508	-5.13934e-06
0.0999518	237.89	189.733	304.286	-38.5747	562.142	0.451398	-0.000321957	8392.42	3262.93	1	41	0.00489871	1.6099e-05	0	-1.38578e-05	0.27378	0.0740173	4.44721	1.9635e-06	8.85923e-06	3.74174e-06	5.01147e-06	5.58275e-06	3.68652e-06	0.869197	0.238371	0.815791	1.3512e-07	1.18068e-08	9.6707e-09	2.80462e-08	9.01798e-09	5.47074e-09	0.00256928	0.00204917	0.00328638	38.5747	3.26293e+06	4.09111e+06	5.23296e+06	-51.4253	0.0000000E+000	0.0000000E+000	0.0000000E+000	51.4253	0.0000000E+000	0.0000000E+000	0.0000000E+000	-51.4253	0.0000000E+000	0.0000000E+000	0.0000000E+000	-38.5747	0.0000000E+000	0.0000000E+000	0.0000000E+000	38.5747	1.25381	51.4253	-1.09685e-06
317705	3.28795	1.18971	3.49657	-19.8921	566.024	0.451495	-0.00170394	0.42107	0.0487475	2	38	0.00507885	0.00145252	0	-2.69144e-05	-1	-1	-1	0	0	0	0	0	0	-1	-1	-1	0	0	0	0	0	0	0.268931	0.0973097	0.285994	19.8921	48.7475	134.721	143.269	-70.1079	0.0000000E+000	0.0000000E+000	0.0000000E+000	70.1079	0.0000000E+000	0.0000000E+000	0.0000000E+000	-70.1079	0.0000000E+000	0.0000000E+000	0.0000000E+000	-19.8921	0.0000000E+000	0.0000000E+000	0.0000000E+000	19.8921	2.76365	70.1079	-4.05549e-06
200434	3.27459	0.854595	3.38427	-14.6267	568.318	0.45148	-0.0017989	0.929154	0.0592487	2	38	0.00518558	0.00153226	0	-2.50248e-05	-1	-1	-1	0	0	0	0	0	0	-1	-1	-1	0	0	0	0	0	0	0.285908	0.0746157	0.295485	14.6267	59.2487	227.026	234.63	-75.3733	0.0000000E+000	0.0000000E+000	0.0000000E+000	75.3733	0.0000000E+000	0.0000000E+000	0.0000000E+000	-75.3733	0.0000000E+000	0.0000000E+000	0.0000000E+000	-14.6267	0.0000000E+000	0.0000000E+000	0.0000000E+000	14.6267	3.83175	75.3733	6.95009e-07
126447	3.30708	0.734084	3.38757	-12.5152	570.613	0.451483	-0.00128501	1.71461	0.0805155	2	38	0.00517445	0.00152748	0	-2.99229e-05	-1	-1	-1	0	0	0	0	0	0	-1	-1	-1	0	0	0	0	0	0	0.288183	0.063969	0.295197	12.5152	80.5155	362.725	371.554	-77.4848	0.0000000E+000	0.0000000E+000	0.0000000E+000	77.4848	0.0000000E+000	0.0000000E+000	0.0000000E+000	-77.4848	0.0000000E+000	0.0000000E+000	0.0000000E+000	-12.5152	0.0000000E+000	0.0000000E+000	0.0000000E+000	12.5152	4.50504	77.4848	-3.27533e-06
79767.3	3.39654	0.673674	3.46271	-11.2185	572.908	0.451492	-0.00205771	2.96173	0.112102	2	38	0.00519097	0.00149911	0	-3.05014e-05	0.90607	0.444012	18.6955	1.58067e-05	2.00573e-05	1.87829e-05	1.32952e-05	2.21807e-05	1.71941e-05	0.123839	0.0665989	1.92952	2.794e-07	9.71667e-07	5.08269e-07	9.98042e-07	7.01048e-07	5.9249e-07	0.283273	0.0561847	0.288791	11.2185	112.102	565.198	576.208	-78.7815	0.0000000E+000	0.0000000E+000	0.0000000E+000	78.7815	0.0000000E+000	0.0000000E+000	0.0000000E+000	-78.7815	0.0000000E+000	0.0000000E+000	0.0000000E+000	-11.2185	0.0000000E+000	0.0000000E+000	0.0000000E+000	11.2185	5.04182	78.7815	-3.28484e-06
50326.6	3.52408	0.687258	3.59047	-11.0352	575.202	0.451494	-0.00146748	4.60154	0.168593	2	38	0.00515628	0.0014361	0	-3.40781e-05	0.949021	0.686814	18.8455	1.57477e-05	2.04318e-05	1.62098e-05	2.17436e-05	1.27836e-05	2.38664e-05	0.0980351	0.0920236	2.01775	4.66168e-07	7.77294e-07	2.92122e-07	5.39396e-07	6.37079e-07	4.43952e-07	0.273365	0.053311	0.278515	11.0352	168.593	864.502	880.788	-78.9648	0.0000000E+000	0.0000000E+000	0.0000000E+000	78.9648	0.0000000E+000	0.0000000E+000	0.0000000E+000	-78.9648	0.0000000E+000	0.0000000E+000	0.0000000E+000	-11.0352	0.0000000E+000	0.0000000E+000	0.0000000E+000	11.0352	5.12774	78.9648	-1.44956e-06
31751	3.68356	0.731375	3.75546	-11.2301	577.496	0.451481	-0.0010262	6.85365	0.259941	2	38	0.00514706	0.00137055	0	-3.47017e-05	1.35849	0.516118	18.6939	2.97111e-05	2.84072e-05	3.50474e-05	2.28399e-05	1.75007e-05	1.70835e-05	0.141504	0.0662573	2.11846	1.04528e-06	5.99495e-07	7.06147e-07	6.94422e-07	6.50028e-07	6.96649e-07	0.26118	0.0518576	0.266279	11.2301	259.941	1309.19	1334.75	-78.7699	0.0000000E+000	0.0000000E+000	0.0000000E+000	78.7699	0.0000000E+000	0.0000000E+000	0.0000000E+000	-78.7699	0.0000000E+000	0.0000000E+000	0.0000000E+000	-11.2301	0.0000000E+000	0.0000000E+000	0.0000000E+000	11.2301	5.03649	78.7699	-1.90999e-06
20032.3	3.81366	0.806786	3.89807	-11.9449	579.79	0.451469	-0.001393	9.84762	0.421841	2	38	0.00515314	0.00132197	0	-3.60249e-05	1.222	0.838118	18.9602	1.7085e-05	2.73406e-05	2.82653e-05	1.38729e-05	1.15299e-05	3.71212e-05	0.145128	0.101512	2.19277	8.56031e-07	7.52923e-07	8.32943e-07	6.55e-07	6.23128e-07	8.18277e-07	0.250982	0.0530957	0.256537	11.9449	421.841	1994.04	2038.17	-78.0551	0.0000000E+000	0.0000000E+000	0.0000000E+000	78.0551	0.0000000E+000	0.0000000E+000	0.0000000E+000	-78.0551	0.0000000E+000	0.0000000E+000	0.0000000E+000	-11.9449	0.0000000E+000	0.0000000E+000	0.0000000E+000	11.9449	4.72698	78.0551	-1.15728e-06
12637.3	3.94067	0.949522	4.05345	-13.5474	582.085	0.451479	-0.00100944	13.2636	0.727813	2	38	0.00511009	0.00126067	0	-3.52426e-05	0.812375	0.624908	19.2255	1.61067e-05	1.86833e-05	1.12711e-05	1.14319e-05	1.52579e-05	2.13682e-05	0.121861	0.0686204	2.32475	7.75579e-07	5.46722e-07	7.21476e-07	5.8519e-07	3.68546e-07	6.1592e-07	0.239839	0.0577903	0.246703	13.5474	727.813	3020.54	3106.99	-76.4526	0.0000000E+000	0.0000000E+000	0.0000000E+000	76.4526	0.0000000E+000	0.0000000E+000	0.0000000E+000	-76.4526	0.0000000E+000	0.0000000E+000	0.0000000E+000	-13.5474	0.0000000E+000	0.0000000E+000	0.0000000E+000	13.5474	4.15016	76.4526	3.53195e-07
7967.67	4.07296	1.26235	4.26409	-17.22	584.408	0.451387	-0.00159409	15.8238	1.3868	2	38	0.00528393	0.00123917	0	-3.81717e-05	0.874821	0.463195	18.1101	2.13074e-05	1.07676e-05	1.10008e-05	1.8059e-05	1.26842e-05	2.48386e-05	0.134364	0.0562132	2.31991	7.30664e-07	8.00997e-07	5.41476e-07	6.17865e-07	4.76843e-07	6.71465e-07	0.224004	0.0694264	0.234516	17.22	1386.8	4474.51	4684.49	-72.78	0.0000000E+000	0.0000000E+000	0.0000000E+000	72.78	0.0000000E+000	0.0000000E+000	0.0000000E+000	-72.78	0.0000000E+000	0.0000000E+000	0.0000000E+000	-17.22	0.0000000E+000	0.0000000E+000	0.0000000E+000	17.22	3.2265	72.78	-8.43507e-07
5028.39	4.22996	1.74018	4.57392	-22.362	586.986	0.45137	-0.00150658	18.1885	2.63273	2	38	0.00505701	0.00110562	0	-3.84851e-05	1.04502	0.554504	19.0899	1.50106e-05	1.86427e-05	1.35309e-05	2.34218e-05	2.16804e-05	2.61804e-05	0.135557	0.0782584	2.58828	5.11032e-07	4.40059e-07	9.23247e-07	4.05532e-07	4.69071e-07	6.62739e-07	0.202189	0.0831794	0.218631	22.362	2632.73	6399.55	6919.94	-67.638	0.0000000E+000	0.0000000E+000	0.0000000E+000	67.638	0.0000000E+000	0.0000000E+000	0.0000000E+000	-67.638	0.0000000E+000	0.0000000E+000	0.0000000E+000	-22.362	0.0000000E+000	0.0000000E+000	0.0000000E+000	22.362	2.43076	67.638	-8.16208e-07
3171.96	4.45705	2.47432	5.09779	-29.0367	589.421	0.451333	-0.00212289	20.2786	4.77731	2	38	0.00524876	0.00102962	0	-3.80731e-05	1.06171	0.515287	18.5554	1.88285e-05	2.46693e-05	2.51939e-05	1.9766e-05	2.16139e-05	1.9875e-05	0.204864	0.0901265	2.85853	9.00737e-07	1.00858e-06	3.40684e-07	9.35053e-07	6.72488e-07	8.82566e-07	0.171507	0.0952118	0.196163	29.0367	4777.31	8605.49	9842.62	-60.9633	0.0000000E+000	0.0000000E+000	0.0000000E+000	60.9633	0.0000000E+000	0.0000000E+000	0.0000000E+000	-60.9633	0.0000000E+000	0.0000000E+000	0.0000000E+000	-29.0367	0.0000000E+000	0.0000000E+000	0.0000000E+000	29.0367	1.80132	60.9633	2.11684e-07
2001.92	4.84447	3.61513	6.04467	-36.7317	591.632	0.451364	-0.00155686	21.9913	7.86596	2	38	0.00531588	0.000879432	0	-3.82728e-05	1.08496	0.395897	17.6536	1.60534e-05	1.7971e-05	2.5618e-05	2.02069e-05	3.0565e-05	1.6983e-05	0.309701	0.141597	3.21673	1.78835e-06	6.38156e-07	9.21338e-07	9.6867e-07	1.05069e-06	8.13456e-07	0.132587	0.0989414	0.165435	36.7317	7865.96	10540.8	13152.3	-53.2683	0.0000000E+000	0.0000000E+000	0.0000000E+000	53.2683	0.0000000E+000	0.0000000E+000	0.0000000E+000	-53.2683	0.0000000E+000	0.0000000E+000	0.0000000E+000	-36.7317	0.0000000E+000	0.0000000E+000	0.0000000E+000	36.7317	1.34006	53.2683	2.01425e-07
1262.98	5.53566	5.26928	7.64257	-43.5877	593.845	0.451334	-0.00108952	23.9152	11.3683	2	38	0.00516624	0.000675982	0	-4.0262e-05	0.980283	0.833897	18.6045	2.45953e-05	2.52567e-05	1.52358e-05	2.27058e-05	1.08909e-05	1.77235e-05	0.399359	0.109654	4.2918	2.00895e-06	1.1972e-06	7.01774e-07	8.63154e-07	3.40612e-07	3.85596e-07	0.0947744	0.0902137	0.130846	43.5877	11368.3	11943.1	16488.6	-46.4123	0.0000000E+000	0.0000000E+000	0.0000000E+000	46.4123	0.0000000E+000	0.0000000E+000	0.0000000E+000	-46.4123	0.0000000E+000	0.0000000E+000	0.0000000E+000	-43.5877	0.0000000E+000	0.0000000E+000	0.0000000E+000	43.5877	1.05055	46.4123	-8.29833e-07
796.787	6.7915	7.60454	10.1958	-48.2324	596.059	0.451369	-0.00233144	26.2667	14.6121	2	38	0.00504971	0.000495276	0	-4.17418e-05	0.888285	0.645239	18.6663	1.01218e-05	1.67481e-05	2.14635e-05	2.08613e-05	1.94947e-05	1.73558e-05	0.542593	0.0941279	6.00936	1.71412e-06	1.37279e-06	8.21056e-07	7.99186e-07	4.19411e-07	5.37154e-07	0.0653321	0.0731532	0.09808	48.2324	14612.1	13049.8	19591.1	-41.7676	0.0000000E+000	0.0000000E+000	0.0000000E+000	41.7676	0.0000000E+000	0.0000000E+000	0.0000000E+000	-41.7676	0.0000000E+000	0.0000000E+000	0.0000000E+000	-48.2324	0.0000000E+000	0.0000000E+000	0.0000000E+000	48.2324	0.893086	41.7676	-4.03914e-07
502.588	9.01093	10.4729	13.8159	-49.2912	598.275	0.451369	-3.38161e-05	30.2371	17.3747	2	38	0.00496698	0.000359512	0	-4.1723e-05	1.06332	0.568274	19.2394	1.56068e-05	2.35413e-05	2.61506e-05	1.03432e-05	1.87744e-05	2.10087e-05	0.749617	0.259048	8.2124	1.7624e-06	9.74354e-07	1.09587e-06	9.89364e-07	5.57819e-07	7.21694e-07	0.0472075	0.0548668	0.0723804	49.2912	17374.7	14949.2	22920.8	-40.7088	0.0000000E+000	0.0000000E+000	0.0000000E+000	40.7088	0.0000000E+000	0.0000000E+000	0.0000000E+000	-40.7088	0.0000000E+000	0.0000000E+000	0.0000000E+000	-49.2912	0.0000000E+000	0.0000000E+000	0.0000000E+000	49.2912	0.860402	40.7088	-2.41288e-07
316.927	12.6286	13.705	18.6362	-47.3408	600.487	0.451387	0.00149111	36.6422	19.8165	2	38	0.00493874	0.000265008	0	-4.1247e-05	0.748183	0.67841	19.463	1.55006e-05	1.95573e-05	1.21283e-05	1.37054e-05	1.11374e-05	1.21802e-05	0.789299	0.301123	11.0158	1.38438e-06	6.84282e-07	5.1862e-07	6.88468e-07	6.883e-07	6.14704e-07	0.0363613	0.0394607	0.053659	47.3408	19816.5	18260	26946.6	-42.6592	0.0000000E+000	0.0000000E+000	0.0000000E+000	42.6592	0.0000000E+000	0.0000000E+000	0.0000000E+000	-42.6592	0.0000000E+000	0.0000000E+000	0.0000000E+000	-47.3408	0.0000000E+000	0.0000000E+000	0.0000000E+000	47.3408	0.921455	42.6592	2.30381e-07
199.936	17.5934	16.5466	24.1519	-43.2438	602.696	0.451394	0.00119692	48.1083	22.5805	2	38	0.0049029	0.000203003	0	-4.0912e-05	0.879781	0.7048	19.4196	2.39848e-05	1.85965e-05	1.13142e-05	1.81658e-05	1.69108e-05	4.93036e-06	1.06853	0.507693	14.2926	1.51089e-06	5.11788e-07	3.22662e-07	8.60913e-07	8.69366e-07	3.89064e-07	0.030161	0.0283664	0.0414046	43.2438	22580.5	24009	32959.2	-46.7562	0.0000000E+000	0.0000000E+000	0.0000000E+000	46.7562	0.0000000E+000	0.0000000E+000	0.0000000E+000	-46.7562	0.0000000E+000	0.0000000E+000	0.0000000E+000	-43.2438	0.0000000E+000	0.0000000E+000	0.0000000E+000	43.2438	1.06326	46.7562	1.19105e-07
126.171	23.5613	18.5916	30.0131	-38.2761	605.159	0.451384	-0.000280527	67.8488	26.035	2	39	0.0049549	0.000165091	0	-4.08488e-05	1.04375	0.547259	21.3492	2.31839e-05	2.32176e-05	2.17205e-05	1.91876e-05	1.49736e-05	1.60084e-05	0.563925	0.217998	7.95609	4.56234e-07	5.15932e-07	1.36192e-07	4.7964e-07	1.99159e-07	2.66804e-07	0.0261564	0.0206394	0.0333188	38.2761	26035	32994.3	42029.1	-51.7239	0.0000000E+000	0.0000000E+000	0.0000000E+000	51.7239	0.0000000E+000	0.0000000E+000	0.0000000E+000	-51.7239	0.0000000E+000	0.0000000E+000	0.0000000E+000	-38.2761	0.0000000E+000	0.0000000E+000	0.0000000E+000	38.2761	1.26731	51.7239	-1.91959e-07
79.6177	29.7615	19.5513	35.609	-33.3022	607.347	0.451355	-0.000206722	102.243	30.8224	2	39	0.00491947	0.000138152	0	-4.0956e-05	1.0981	0.45716	20.9276	1.33846e-05	2.31391e-05	1.74003e-05	1.96042e-05	1.70041e-05	2.72427e-05	0.602137	0.211791	9.3026	3.53573e-07	2.26975e-07	1.29097e-07	3.84589e-07	3.21392e-07	3.95874e-07	0.0234712	0.015419	0.0280828	33.3022	30822.4	46918.7	56137.2	-56.6978	0.0000000E+000	0.0000000E+000	0.0000000E+000	56.6978	0.0000000E+000	0.0000000E+000	0.0000000E+000	-56.6978	0.0000000E+000	0.0000000E+000	0.0000000E+000	-33.3022	0.0000000E+000	0.0000000E+000	0.0000000E+000	33.3022	1.52223	56.6978	-4.64382e-08
50.2089	35.8817	20.5233	41.3364	-29.7683	609.493	0.451394	-0.000197403	154.452	38.0733	2	39	0.00493048	0.000119277	0	-4.10222e-05	0.942798	0.532453	21.0634	2.01458e-05	1.27804e-05	1.90748e-05	2.33911e-05	1.07727e-05	1.81817e-05	0.649122	0.396841	10.8269	3.52376e-07	3.3022e-07	3.30057e-07	3.05926e-07	2.20281e-07	2.30294e-07	0.0209994	0.0120111	0.0241917	29.7683	38073.3	66565.1	76684.4	-60.2317	0.0000000E+000	0.0000000E+000	0.0000000E+000	60.2317	0.0000000E+000	0.0000000E+000	0.0000000E+000	-60.2317	0.0000000E+000	0.0000000E+000	0.0000000E+000	-29.7683	0.0000000E+000	0.0000000E+000	0.0000000E+000	29.7683	1.74834	60.2317	3.46148e-08
31.6723	41.5268	21.5462	46.7837	-27.4226	611.603	0.451385	-0.000142235	233.222	49.4679	2	39	0.00492378	0.000105246	0	-4.08959e-05	0.988431	0.726905	21.1056	1.92228e-05	1.38801e-05	1.78379e-05	2.01927e-05	1.99187e-05	1.48795e-05	0.610887	0.402326	12.0933	2.46887e-07	2.22897e-07	2.16474e-07	1.99726e-07	2.60177e-07	2.51741e-07	0.0189731	0.00984425	0.021375	27.4226	49467.9	95341.1	107410	-62.5774	0.0000000E+000	0.0000000E+000	0.0000000E+000	62.5774	0.0000000E+000	0.0000000E+000	0.0000000E+000	-62.5774	0.0000000E+000	0.0000000E+000	0.0000000E+000	-27.4226	0.0000000E+000	0.0000000E+000	0.0000000E+000	27.4226	1.92733	62.5774	7.10361e-08
19.9808	47.2642	23.4028	52.7408	-26.3423	613.737	0.451365	0.000118136	340.36	67.0165	2	39	0.00492778	9.3434e-05	0	-4.09161e-05	1.46692	0.606421	20.6128	3.91032e-05	2.95285e-05	1.90962e-05	1.66068e-05	1.34561e-05	4.00521e-05	0.927929	0.524209	13.7155	2.02098e-07	5.04631e-07	2.56521e-07	2.54077e-07	3.84961e-07	3.00055e-07	0.0169918	0.00841346	0.0189606	26.3423	67016.5	135346	151029	-63.6577	0.0000000E+000	0.0000000E+000	0.0000000E+000	63.6577	0.0000000E+000	0.0000000E+000	0.0000000E+000	-63.6577	0.0000000E+000	0.0000000E+000	0.0000000E+000	-26.3423	0.0000000E+000	0.0000000E+000	0.0000000E+000	26.3423	2.01959	63.6577	-1.23976e-07
12.6144	53.0882	25.6183	58.9462	-25.7602	615.947	0.451408	-0.000106544	492.498	93.0238	2	39	0.00490172	8.31558e-05	0	-4.12352e-05	0.854358	0.617151	15.2501	1.20235e-05	1.09818e-05	1.76036e-05	1.19869e-05	2.02103e-05	1.64528e-05	0.753269	0.455367	11.3233	4.54824e-07	6.64608e-08	2.3373e-07	2.04731e-07	1.25043e-07	2.13297e-07	0.0152787	0.00737291	0.0169646	25.7602	93023.8	192771	214042	-64.2398	0.0000000E+000	0.0000000E+000	0.0000000E+000	64.2398	0.0000000E+000	0.0000000E+000	0.0000000E+000	-64.2398	0.0000000E+000	0.0000000E+000	0.0000000E+000	-25.7602	0.0000000E+000	0.0000000E+000	0.0000000E+000	25.7602	2.07227	64.2398	-5.83089e-07
7.95573	59.7106	28.7175	66.2575	-25.685	618.212	0.451407	-5.97638e-05	696.616	130.863	2	39	0.00489084	7.38157e-05	0	-4.09022e-05	0.696881	0.42329	15.16	8.28797e-06	2.27679e-05	5.52662e-06	1.17871e-05	6.09494e-06	1.64641e-05	0.739641	0.469646	12.4168	3.78503e-07	2.43203e-07	1.27232e-07	1.20956e-07	1.06054e-07	1.61577e-07	0.0136013	0.0065415	0.0150926	25.685	130863	272096	301929	-64.315	0.0000000E+000	0.0000000E+000	0.0000000E+000	64.315	0.0000000E+000	0.0000000E+000	0.0000000E+000	-64.315	0.0000000E+000	0.0000000E+000	0.0000000E+000	-25.685	0.0000000E+000	0.0000000E+000	0.0000000E+000	25.685	2.07924	64.315	2.13447e-07
5.01766	67.3468	33.3715	75.1615	-26.3592	621.213	0.451405	-0.000258846	950.479	187.372	2	39	0.00489605	6.51403e-05	0	-4.17525e-05	0.616992	0.323389	11.8983	1.26481e-05	1.57164e-05	7.30545e-06	9.29217e-06	1.14005e-05	1.06745e-05	0.610711	0.305349	11.2787	2.09516e-07	1.03708e-07	1.93989e-07	1.59436e-07	1.49032e-07	5.44171e-08	0.0119214	0.00590725	0.0133047	26.3592	187372	378133	422011	-63.6408	0.0000000E+000	0.0000000E+000	0.0000000E+000	63.6408	0.0000000E+000	0.0000000E+000	0.0000000E+000	-63.6408	0.0000000E+000	0.0000000E+000	0.0000000E+000	-26.3592	0.0000000E+000	0.0000000E+000	0.0000000E+000	26.3592	2.01809	63.6408	1.21928e-08
3.16616	76.3362	39.8926	86.1314	-27.5912	625.992	0.451377	-0.000288943	1260.07	270.306	2	40	0.00490651	5.69654e-05	0	-4.1766e-05	1.1205	0.448683	18.048	2.11716e-05	1.51284e-05	2.78217e-05	2.43795e-05	1.29102e-05	2.58421e-05	0.489316	0.21823	2.10704	2.56016e-07	7.266e-08	3.82448e-08	4.84033e-08	2.94745e-08	3.6367e-08	0.0102898	0.00537735	0.0116102	27.5912	270306	517242	583614	-62.4088	0.0000000E+000	0.0000000E+000	0.0000000E+000	62.4088	0.0000000E+000	0.0000000E+000	0.0000000E+000	-62.4088	0.0000000E+000	0.0000000E+000	0.0000000E+000	-27.5912	0.0000000E+000	0.0000000E+000	0.0000000E+000	27.5912	1.91354	62.4088	8.52801e-07
1.99783	87.0365	47.5911	99.1981	-28.6696	632.214	0.451396	-0.000260606	1673.93	385.284	2	40	0.00491585	4.95559e-05	0	-4.29782e-05	0.59537	0.467679	13.1218	1.05827e-05	7.02534e-06	7.17394e-06	1.19958e-05	1.33695e-05	1.46388e-05	0.549913	0.293265	1.80574	2.48477e-07	6.53574e-08	2.07191e-08	4.59517e-08	2.32264e-08	2.79457e-08	0.00884494	0.00483636	0.0100808	28.6696	385284	704623	803079	-61.3304	0.0000000E+000	0.0000000E+000	0.0000000E+000	61.3304	0.0000000E+000	0.0000000E+000	0.0000000E+000	-61.3304	0.0000000E+000	0.0000000E+000	0.0000000E+000	-28.6696	0.0000000E+000	0.0000000E+000	0.0000000E+000	28.6696	1.82884	61.3304	-1.2018e-06
1.25968	99.3515	57.4409	114.761	-30.0347	641.627	0.451386	-0.000252413	2199.58	551.05	2	40	0.00490312	4.27245e-05	0	-4.19636e-05	0.602634	0.311052	10.1715	1.54849e-05	1.31679e-05	1.04889e-05	1.05976e-05	6.964e-06	9.08881e-06	0.65994	0.297384	1.66027	2.65318e-07	5.05318e-08	2.97185e-08	5.8808e-08	2.36589e-08	1.78251e-08	0.00754367	0.00436144	0.00871373	30.0347	551050	953111	1.10094e+06	-59.9653	0.0000000E+000	0.0000000E+000	0.0000000E+000	59.9653	0.0000000E+000	0.0000000E+000	0.0000000E+000	-59.9653	0.0000000E+000	0.0000000E+000	0.0000000E+000	-30.0347	0.0000000E+000	0.0000000E+000	0.0000000E+000	30.0347	1.72963	59.9653	2.16963e-06
0.79456	114.588	70.5492	134.564	-31.6197	656.097	0.451388	-0.000248283	2839.23	780.416	2	40	0.00490714	3.64669e-05	0	-4.38452e-05	0.411317	0.292746	7.62327	6.1064e-06	3.70703e-06	9.05537e-06	1.1616e-05	7.11502e-06	7.17183e-06	0.681816	0.294838	1.52388	2.34031e-07	4.23452e-08	2.12247e-08	5.67217e-08	1.98829e-08	1.91598e-08	0.00632818	0.00389612	0.00743139	31.6197	780416	1.26757e+06	1.48855e+06	-58.3803	0.0000000E+000	0.0000000E+000	0.0000000E+000	58.3803	0.0000000E+000	0.0000000E+000	0.0000000E+000	-58.3803	0.0000000E+000	0.0000000E+000	0.0000000E+000	-31.6197	0.0000000E+000	0.0000000E+000	0.0000000E+000	31.6197	1.62422	58.3803	1.67226e-06
0.501541	132.699	87.1317	158.748	-33.2894	678.576	0.4514	-0.000252249	3641.98	1097.17	2	40	0.00490308	3.0886e-05	0	-4.81226e-05	0.416609	0.171829	6.38289	7.60636e-06	6.3597e-06	1.0715e-05	6.20229e-06	7.01749e-06	5.67053e-06	0.682463	0.183852	1.56035	2.03894e-07	1.60461e-08	6.33875e-09	4.29156e-08	1.75021e-08	1.70667e-08	0.00526564	0.00345748	0.00629929	33.2894	1.09717e+06	1.67095e+06	1.99897e+06	-56.7106	0.0000000E+000	0.0000000E+000	0.0000000E+000	56.7106	0.0000000E+000	0.0000000E+000	0.0000000E+000	-56.7106	0.0000000E+000	0.0000000E+000	0.0000000E+000	-33.2894	0.0000000E+000	0.0000000E+000	0.0000000E+000	33.2894	1.52297	56.7106	-4.62693e-06
0.316193	155.918	108.556	189.986	-34.8472	718.924	0.45139	-0.000116973	4636.73	1513.83	2	41	0.0049089	2.58381e-05	0	-4.52735e-05	0.444609	0.22955	6.67188	4.55224e-06	7.16201e-06	9.98415e-06	5.82399e-06	8.15211e-06	1.14728e-05	0.775965	0.0949477	0.507958	1.95426e-07	1.80885e-08	1.14492e-08	3.65608e-08	9.82708e-09	6.28286e-09	0.00431967	0.00300753	0.00526353	34.8472	1.51383e+06	2.17429e+06	2.64939e+06	-55.1528	0.0000000E+000	0.0000000E+000	0.0000000E+000	55.1528	0.0000000E+000	0.0000000E+000	0.0000000E+000	-55.1528	0.0000000E+000	0.0000000E+000	0.0000000E+000	-34.8472	0.0000000E+000	0.0000000E+000	0.0000000E+000	34.8472	1.43628	55.1528	3.36976e-06
0.199573	184.595	135.485	228.979	-36.277	774.453	0.451394	6.69773e-06	5886.1	2060.7	2	41	0.00490335	2.1414e-05	0	-4.89806e-05	0.286972	0.181548	5.41572	4.74783e-06	6.21144e-06	5.67854e-06	4.72018e-06	4.60812e-06	4.38364e-06	0.762959	0.221219	0.617043	1.58557e-07	1.70668e-08	1.25895e-08	2.80585e-08	8.28345e-09	7.76946e-09	0.0035207	0.00258403	0.00436721	36.277	2.0607e+06	2.80767e+06	3.48274e+06	-53.723	0.0000000E+000	0.0000000E+000	0.0000000E+000	53.723	0.0000000E+000	0.0000000E+000	0.0000000E+000	-53.723	0.0000000E+000	0.0000000E+000	0.0000000E+000	-36.277	0.0000000E+000	0.0000000E+000	0.0000000E+000	36.277	1.36248	53.723	-3.94408e-06
0.125939	221.243	169.749	278.861	-37.4972	862.105	0.451392	8.03822e-05	7444.83	2758.63	2	41	0.00490239	1.75801e-05	0	-5.37006e-05	0.283357	0.15047	4.38591	6.36637e-06	5.16275e-06	2.96897e-06	5.24477e-06	6.0444e-06	4.47815e-06	0.858872	0.385004	0.738034	1.46787e-07	1.91208e-08	1.0927e-08	2.05039e-08	8.498e-09	8.45922e-09	0.00284509	0.00218289	0.00358602	37.4972	2.75863e+06	3.59548e+06	4.53183e+06	-52.5028	0.0000000E+000	0.0000000E+000	0.0000000E+000	52.5028	0.0000000E+000	0.0000000E+000	0.0000000E+000	-52.5028	0.0000000E+000	0.0000000E+000	0.0000000E+000	-37.4972	0.0000000E+000	0.0000000E+000	0.0000000E+000	37.4972	1.30336	52.5028	-5.34901e-07
0.0999518	242.496	189.982	308.054	-38.0767	923.508	0.451402	0.000313147	8381.4	3187.78	2	41	0.00490322	1.59167e-05	0	-4.50269e-05	0.235426	0.145445	4.31395	4.60193e-06	5.562e-06	2.4924e-06	5.35025e-06	3.81698e-06	4.82385e-06	0.762921	0.28175	0.755549	1.1799e-07	1.2074e-08	9.12608e-09	2.09164e-08	7.25233e-09	4.3685e-09	0.00255535	0.00200197	0.00324618	38.0767	3.18778e+06	4.06892e+06	5.16895e+06	-51.9233	0.0000000E+000	0.0000000E+000	0.0000000E+000	51.9233	0.0000000E+000	0.0000000E+000	0.0000000E+000	-51.9233	0.0000000E+000	0.0000000E+000	0.0000000E+000	-38.0767	0.0000000E+000	0.0000000E+000	0.0000000E+000	38.0767	1.27641	51.9232	8.67368e-06