File: Python/Data/GoldElectrode/240313/240313-CVEIS_PostActivation-Fe2Fe3_5mM-HCl1M-0225RPM-Ag_AgCl_BLF8-Au_RDE_01_CV_C15.mpt
EC-Lab ASCII FILE
Nb header lines : 60

Cyclic Voltammetry

Run on channel : 15 (SN 19485)
User :
Electrode connection : standard
Potential control : Ewe
Ewe ctrl range : min = -1.00 V, max = 1.00 V
Ewe,I filtering : <None>
Safety Limits :
	Do not start on E overload
Channel : Floating
Acquisition started on : 03/13/2024 17:04:56.446
Loaded Setting File :  NONE
Saved on :
	File : 240313-CVEIS_PostActivation-Fe2Fe3_5mM-HCl1M-225RPM-Ag_AgCl_BLF8-Au_RDE_01_CV_C15.mpr
	Directory : C:\Data\mathias\GoldElectrode\
	Host : 192.168.0.1
Device : VMP-300 (SN 0826)
Address : USB
EC-Lab for windows v11.52 (software)
Internet server v11.52 (firmware)
Command interpretor v11.52 (firmware)
Electrode material :
Initial state :
Electrolyte :
Comments :
Cable : special
Electrode surface area : 0.001 cm²
Characteristic mass : 0.001 g
Equivalent Weight : 0.000 g/eq.
Density : 0.000 g/cm3
Volume (V) : 0.001 cm³
Record EIS quality indicators
Cycle Definition : Charge/Discharge alternance
Ei (V)              0.000
vs.                 Eoc
dE/dt               20.000
dE/dt unit          mV/s
E1 (V)              0.700
vs.                 Ref
Step percent        50
N                   10
E range min (V)     -1.000
E range max (V)     1.000
I Range             Auto
I Range min         Unset
I Range max         Unset
I Range init        Unset
Bandwidth           8
E2 (V)              0.000
vs.                 Ref
nc cycles           1
Reverse Scan        1
Ef (V)              0.000
vs.                 Eoc

mode	ox/red	error	control changes	counter inc.	time/s	control/V	Ewe/V	<I>/mA	cycle number	(Q-Qo)/C	I Range	step time/s	P/W
2	1	1	1	0	0.000000000000000E+000	0.452283	0.452073	0.0161713	1	0.0000000E+000	41	0.000000000000000E+000	7.31062e-06
2	1	0	1	0	0.2387	0.457055	0.456631	0.0398413	1	6.90762e-06	41	0.2249	1.81928e-05
2	1	0	1	0	0.4886	0.462053	0.461699	0.0587933	1	1.93172e-05	41	0.4748	2.71448e-05
2	1	0	1	0	0.7384	0.467051	0.466758	0.0755066	1	3.61537e-05	41	0.7246	3.52433e-05
2	1	0	1	0	0.9883	0.472048	0.471612	0.0908701	1	5.69878e-05	41	0.9745	4.28554e-05
2	1	0	1	0	1.2382	0.477046	0.476696	0.105024	1	8.15111e-05	41	1.2244	5.00648e-05
2	1	0	1	0	1.5181	0.482643	0.482072	0.118857	1	0.000112975	40	1.5043	5.72978e-05
2	1	0	1	0	1.768	0.487642	0.487104	0.130672	1	0.000144399	40	1.7542	6.36509e-05
2	1	0	1	0	2.0178	0.492638	0.492443	0.14142	1	0.000178654	40	2.004	6.96415e-05
2	1	0	1	0	2.2677	0.497636	0.497283	0.151219	1	0.000215473	40	2.2539	7.51985e-05
2	1	0	1	0	2.5176	0.502634	0.502347	0.159813	1	0.000254594	40	2.5038	8.02818e-05
2	1	0	1	0	2.7675	0.507631	0.507424	0.16736	1	0.000295764	40	2.7537	8.49225e-05
2	1	0	1	0	3.0174	0.512629	0.512345	0.174363	1	0.000338759	40	3.0036	8.93341e-05
2	1	0	1	0	3.2672	0.517627	0.517355	0.180328	1	0.000383349	40	3.2534	9.32938e-05
2	1	0	1	0	3.5171	0.522624	0.522243	0.18563	1	0.000429358	40	3.5033	9.69441e-05
2	1	0	1	0	3.767	0.527622	0.527428	0.19014	1	0.000476614	40	3.7532	0.000100285
2	1	0	1	0	4.0169	0.532619	0.532323	0.194432	1	0.000524947	40	4.0031	0.0001035
2	1	0	1	0	4.2668	0.537617	0.537333	0.197914	1	0.00057424	40	4.253	0.000106346
2	1	0	1	0	4.5166	0.542615	0.542314	0.201056	1	0.00062436	40	4.5028	0.000109036
2	1	0	1	0	4.7665	0.547612	0.547245	0.203924	1	0.000675255	40	4.7527	0.000111596
2	1	0	1	0	5.0164	0.55261	0.552208	0.206525	1	0.000726822	40	5.0026	0.000114044
2	1	0	1	0	5.2663	0.557608	0.557146	0.208809	1	0.000778993	40	5.2525	0.000116337
2	1	0	1	0	5.5162	0.562605	0.562331	0.210867	1	0.000831695	40	5.5024	0.000118577
2	1	0	1	0	5.766	0.567601	0.567186	0.212754	1	0.00088485	40	5.7522	0.000120671
2	1	0	1	0	6.0159	0.5726	0.572227	0.214312	1	0.00093846	40	6.0021	0.000122635
2	1	0	1	0	6.2658	0.577598	0.577418	0.215884	1	0.000992455	40	6.252	0.000124655
2	1	0	1	0	6.5157	0.582596	0.582285	0.217403	1	0.00104682	40	6.5019	0.00012659
2	1	0	1	0	6.7656	0.587593	0.587362	0.218763	1	0.00110152	40	6.7518	0.000128493
2	1	0	1	0	7.0155	0.592591	0.592345	0.219864	1	0.00115652	40	7.0017	0.000130236
2	1	0	1	0	7.2653	0.597588	0.59717	0.220858	1	0.00121178	40	7.2515	0.00013189
2	1	0	1	0	7.5152	0.602586	0.602247	0.221964	1	0.00126732	40	7.5014	0.000133677
2	1	0	1	0	7.7651	0.607584	0.607404	0.222845	1	0.00132311	40	7.7513	0.000135357
2	1	0	1	0	8.015	0.612581	0.612227	0.22389	1	0.0013791	40	8.0012	0.000137072
2	1	0	1	0	8.2649	0.617579	0.617298	0.22479	1	0.00143532	40	8.2511	0.000138763
2	1	0	1	0	8.5148	0.622578	0.622221	0.225588	1	0.00149173	40	8.501	0.000140366
2	1	0	1	0	8.7646	0.627574	0.627379	0.226332	1	0.00154831	40	8.7508	0.000141996
2	1	0	1	0	9.0145	0.632572	0.632353	0.227657	1	0.00160518	40	9.0007	0.000143959
2	1	0	1	0	9.2644	0.63757	0.637144	0.228778	1	0.00166233	40	9.2506	0.000145765
2	1	0	1	0	9.5143	0.642567	0.642255	0.22919	1	0.00171963	40	9.5005	0.000147199
2	1	0	1	0	9.7642	0.647566	0.647344	0.229736	1	0.00177705	40	9.7504	0.000148718
2	1	0	1	0	10.014	0.652562	0.652177	0.230429	1	0.00183459	40	10.0002	0.000150281
2	1	0	1	0	10.2639	0.65756	0.65727	0.231249	1	0.00189233	40	10.2501	0.000151993
2	1	0	1	0	10.5138	0.662558	0.662342	0.231767	1	0.00195026	40	10.5	0.000153509
2	1	0	1	0	10.7637	0.667555	0.667231	0.232802	1	0.00200839	40	10.7499	0.000155333
2	1	0	1	0	11.0136	0.672553	0.672288	0.233669	1	0.00206675	40	10.9998	0.000157093
2	1	0	1	0	11.2634	0.677551	0.677107	0.234744	1	0.00212532	40	11.2496	0.000158947
2	1	0	1	0	11.5133	0.682548	0.682216	0.235858	1	0.00218418	40	11.4995	0.000160906
2	1	0	1	0	11.7632	0.687546	0.687239	0.237034	1	0.00224333	40	11.7494	0.000162899
2	1	0	1	0	12.0131	0.692543	0.692277	0.238306	1	0.00230282	40	11.9993	0.000164974
2	1	0	1	0	12.263	0.697541	0.697267	0.23982	1	0.00236265	40	12.2492	0.000167218
2	1	0	1	0	12.476	0.69824	0.697888	0.238263	1	0.00241374	40	12.4622	0.000166281
2	1	0	1	0	12.7258	0.693243	0.693081	0.235452	1	0.00247278	40	12.712	0.000163187
2	1	0	1	0	12.9757	0.688245	0.688104	0.233897	1	0.00253134	40	12.9619	0.000160945
2	1	0	1	0	13.2256	0.683248	0.682832	0.232861	1	0.0025896	40	13.2118	0.000159005
2	1	0	1	0	13.4755	0.67825	0.678008	0.231801	1	0.00264761	40	13.4617	0.000157163
2	1	0	1	0	13.7254	0.673253	0.673025	0.23117	1	0.00270542	40	13.7116	0.000155583
2	1	0	1	0	13.9752	0.668255	0.667787	0.230612	1	0.00276304	40	13.9614	0.000154
2	1	0	1	0	14.2251	0.663257	0.663136	0.230126	1	0.00282055	40	14.2113	0.000152605
2	1	0	1	0	14.475	0.65826	0.657986	0.229435	1	0.00287792	40	14.4612	0.000150965
2	1	0	1	0	14.7249	0.653262	0.652923	0.229163	1	0.00293516	40	14.7111	0.000149626
2	1	0	1	0	14.9748	0.648264	0.647845	0.228579	1	0.00299228	40	14.961	0.000148084
2	1	0	1	0	15.2246	0.643267	0.642935	0.228104	1	0.00304924	40	15.2108	0.000146656
2	1	0	1	0	15.4745	0.638269	0.637876	0.227372	1	0.00310607	40	15.4607	0.000145035
2	1	0	1	0	15.7244	0.633272	0.633047	0.227069	1	0.00316277	40	15.7106	0.000143745
2	1	0	1	0	15.9743	0.628274	0.627782	0.226469	1	0.00321932	40	15.9605	0.000142173
2	1	0	1	0	16.2242	0.623276	0.622854	0.22588	1	0.0032757	40	16.2104	0.00014069
2	1	0	1	0	16.474	0.61828	0.618005	0.225188	1	0.00333189	40	16.4602	0.000139167
2	1	0	1	0	16.7239	0.613281	0.61298	0.224514	1	0.00338792	40	16.7101	0.000137623
2	1	0	1	0	16.9738	0.608283	0.607859	0.22364	1	0.00344375	40	16.96	0.000135942
2	1	0	1	0	17.2237	0.603286	0.602918	0.222704	1	0.00349935	40	17.2099	0.000134272
2	1	0	1	0	17.4736	0.598288	0.598017	0.22167	1	0.00355471	40	17.4598	0.000132562
2	1	0	1	0	17.7235	0.593291	0.593002	0.220677	1	0.00360979	40	17.7097	0.000130862
2	1	0	1	0	17.9733	0.588293	0.588081	0.219505	1	0.00366456	40	17.9595	0.000129087
2	1	0	1	0	18.2232	0.583295	0.583042	0.218079	1	0.00371902	40	18.2094	0.000127149
2	1	0	1	0	18.4731	0.578298	0.577934	0.216573	1	0.0037731	40	18.4593	0.000125165
2	1	0	1	0	18.723	0.5733	0.572913	0.214621	1	0.00382677	40	18.7092	0.000122959
2	1	0	1	0	18.9729	0.568302	0.568098	0.212618	1	0.00387994	40	18.9591	0.000120788
2	1	0	1	0	19.2228	0.563303	0.562773	0.210273	1	0.00393255	40	19.209	0.000118336
2	1	0	1	0	19.4726	0.558307	0.557907	0.20761	1	0.00398451	40	19.4588	0.000115827
2	1	0	1	0	19.7225	0.55331	0.55296	0.204743	1	0.00403577	40	19.7087	0.000113215
2	1	0	1	0	19.9724	0.548312	0.547986	0.201128	1	0.0040862	40	19.9586	0.000110215
2	1	0	1	0	20.2223	0.543314	0.542972	0.197123	1	0.00413569	40	20.2085	0.000107032
2	1	0	1	0	20.4722	0.538316	0.537848	0.192468	1	0.00418409	40	20.4584	0.000103519
2	1	0	1	0	20.722	0.533319	0.532959	0.18698	1	0.00423121	40	20.7082	9.96527e-05
2	1	0	1	0	20.9719	0.528321	0.528047	0.180688	1	0.00427693	40	20.9581	9.5412e-05
2	1	0	1	0	21.2218	0.523324	0.523061	0.173889	1	0.00432101	40	21.208	9.09545e-05
2	1	0	1	0	21.4717	0.518326	0.517915	0.165968	1	0.00436325	40	21.4579	8.59574e-05
2	1	0	1	0	21.7216	0.513329	0.513236	0.157126	1	0.00440339	40	21.7078	8.06427e-05
2	1	0	1	0	21.9714	0.508331	0.508201	0.146842	1	0.00444118	40	21.9576	7.46253e-05
2	1	0	1	0	22.2213	0.503333	0.50305	0.135805	1	0.00447635	40	22.2075	6.83168e-05
2	1	0	1	0	22.4712	0.498336	0.497981	0.123634	1	0.00450861	40	22.4574	6.15675e-05
2	1	0	1	0	22.7211	0.493338	0.493089	0.110416	1	0.00453768	40	22.7073	5.44449e-05
2	1	0	1	0	22.971	0.48834	0.488088	0.0959066	1	0.00456331	40	22.9572	4.68109e-05
2	1	0	1	0	23.2208	0.483343	0.483024	0.0807994	1	0.0045852	40	23.207	3.9028e-05
2	1	0	1	0	23.4707	0.478345	0.478131	0.0646281	1	0.00460319	40	23.4569	3.09007e-05
2	1	0	1	0	23.7206	0.473348	0.473203	0.0478122	1	0.00461704	40	23.7068	2.26249e-05
2	1	0	1	0	24.0005	0.46775	0.46746	0.0280224	1	0.00462759	41	23.9867	1.30993e-05
2	1	0	1	0	24.2504	0.462753	0.462537	0.0108193	1	0.00463241	41	24.2366	5.00433e-06
2	0	0	1	0	24.5002	0.457755	0.457195	-0.00612268	1	0.00463297	41	0.0749	-2.79926e-06
2	0	0	1	0	24.7501	0.452757	0.452233	-0.0224713	1	0.00462935	41	0.3248	-1.01623e-05
2	0	0	1	0	25	0.44776	0.447424	-0.03814	1	0.00462173	41	0.5747	-1.70647e-05
2	0	0	1	0	25.2499	0.442762	0.44247	-0.0527968	1	0.00461032	41	0.8246	-2.3361e-05
2	0	0	1	0	25.4998	0.437765	0.437158	-0.066332	1	0.00459539	41	1.0745	-2.89976e-05
2	0	0	1	0	25.7496	0.432767	0.432569	-0.0788206	1	0.00457723	41	1.3243	-3.40953e-05
2	0	0	1	0	25.9995	0.427769	0.427652	-0.0897728	1	0.00455614	41	1.5742	-3.83916e-05
2	0	0	1	0	26.2494	0.422772	0.422742	-0.0996381	1	0.00453242	41	1.8241	-4.21212e-05
2	0	0	1	0	26.4993	0.417774	0.417537	-0.108241	1	0.0045064	41	2.074	-4.51947e-05
2	0	0	1	0	26.7792	0.412177	0.411742	-0.115844	1	0.00447491	40	2.3539	-4.76978e-05
2	0	0	1	0	27.029	0.407179	0.40685	-0.122196	1	0.00444494	40	2.6037	-4.97154e-05
2	0	0	1	0	27.2789	0.402181	0.401956	-0.127906	1	0.00441345	40	2.8536	-5.14127e-05
2	0	0	1	0	27.5288	0.397184	0.396704	-0.132696	1	0.00438068	40	3.1035	-5.26409e-05
2	0	0	1	0	27.7787	0.392186	0.39196	-0.136738	1	0.0043468	40	3.3534	-5.35959e-05
2	0	0	1	0	28.0286	0.387189	0.38701	-0.140284	1	0.00431196	40	3.6033	-5.42915e-05
2	0	0	1	0	28.2784	0.382191	0.381836	-0.143325	1	0.00427632	40	3.8531	-5.47267e-05
2	0	0	1	0	28.5283	0.377193	0.3769	-0.145899	1	0.00423997	40	4.103	-5.49894e-05
2	0	0	1	0	28.7782	0.372196	0.371895	-0.148123	1	0.00420302	40	4.3529	-5.50864e-05
2	0	0	1	0	29.0281	0.367198	0.366866	-0.149897	1	0.00416557	40	4.6028	-5.49922e-05
2	0	0	1	0	29.278	0.3622	0.362032	-0.151586	1	0.00412768	40	4.8527	-5.4879e-05
2	0	0	1	0	29.5278	0.357204	0.356983	-0.153087	1	0.00408943	40	5.1025	-5.46495e-05
2	0	0	1	0	29.7777	0.352205	0.351878	-0.15427	1	0.00405082	40	5.3524	-5.42842e-05
2	0	0	1	0	30.0276	0.347208	0.347006	-0.155365	1	0.00401191	40	5.6023	-5.39127e-05
2	0	0	1	0	30.2775	0.34221	0.341894	-0.156259	1	0.00397274	40	5.8522	-5.3424e-05
2	0	0	1	0	30.5274	0.337212	0.336968	-0.157291	1	0.00393331	40	6.1021	-5.30021e-05
2	0	0	1	0	30.7773	0.332215	0.331627	-0.158161	1	0.00389365	40	6.352	-5.24504e-05
2	0	0	1	0	31.0271	0.327217	0.326919	-0.158925	1	0.00385383	40	6.6018	-5.19555e-05
2	0	0	1	0	31.277	0.322219	0.321968	-0.159629	1	0.00381381	40	6.8517	-5.13955e-05
2	0	0	1	0	31.5269	0.317222	0.316976	-0.160124	1	0.00377365	40	7.1016	-5.07553e-05
2	0	0	1	0	31.7768	0.312224	0.311925	-0.160787	1	0.00373336	40	7.3515	-5.01537e-05
2	0	0	1	0	32.0267	0.307227	0.306871	-0.161125	1	0.00369293	40	7.6014	-4.94445e-05
2	0	0	1	0	32.2765	0.302229	0.301832	-0.161602	1	0.0036524	40	7.8512	-4.87767e-05
2	0	0	1	0	32.5264	0.297231	0.29668	-0.162084	1	0.00361174	40	8.1011	-4.80871e-05
2	0	0	1	0	32.7763	0.292234	0.29203	-0.162495	1	0.00357097	40	8.351	-4.74534e-05
2	0	0	1	0	33.0262	0.287236	0.286891	-0.162832	1	0.00353009	40	8.6009	-4.6715e-05
2	0	0	1	0	33.2761	0.282238	0.281775	-0.16327	1	0.00348913	40	8.8508	-4.60053e-05
2	0	0	1	0	33.526	0.27724	0.276871	-0.163777	1	0.00344806	40	9.1007	-4.5345e-05
2	0	0	1	0	33.7758	0.272243	0.271905	-0.163894	1	0.00340691	40	9.3505	-4.45637e-05
2	0	0	1	0	34.0257	0.267246	0.267186	-0.164083	1	0.00336569	40	9.6004	-4.38409e-05
2	0	0	1	0	34.2756	0.262248	0.262143	-0.164484	1	0.00332439	40	9.8503	-4.31185e-05
2	0	0	1	0	34.5255	0.25725	0.256883	-0.164461	1	0.00328303	40	10.1002	-4.22473e-05
2	0	0	1	0	34.7754	0.252253	0.251937	-0.164966	1	0.00324163	40	10.3501	-4.1561e-05
2	0	0	1	0	35.0252	0.247255	0.246861	-0.164988	1	0.0032002	40	10.5999	-4.07291e-05
2	0	0	1	0	35.2751	0.242257	0.242106	-0.165181	1	0.00315871	40	10.8498	-3.99913e-05
2	0	0	1	0	35.525	0.23726	0.23697	-0.165187	1	0.00311717	40	11.0997	-3.91443e-05
2	0	0	1	0	35.7749	0.232262	0.232032	-0.165273	1	0.00307559	40	11.3496	-3.83487e-05
2	0	0	1	0	36.0248	0.227265	0.226944	-0.165359	1	0.00303398	40	11.5995	-3.75272e-05
2	0	0	1	0	36.2746	0.222267	0.221969	-0.165702	1	0.00299236	40	11.8493	-3.67807e-05
2	0	0	1	0	36.5245	0.217269	0.216973	-0.165799	1	0.00295067	40	12.0992	-3.5974e-05
2	0	0	1	0	36.7744	0.212272	0.211914	-0.165773	1	0.00290895	40	12.3491	-3.51297e-05
2	0	0	1	0	37.0243	0.207274	0.207025	-0.165922	1	0.0028672	40	12.599	-3.43501e-05
2	0	0	1	0	37.2742	0.202276	0.2021	-0.165885	1	0.00282542	40	12.8489	-3.35255e-05
2	0	0	1	0	37.524	0.19728	0.196948	-0.16597	1	0.00278363	40	13.0987	-3.26874e-05
2	0	0	1	0	37.7739	0.192281	0.192025	-0.166008	1	0.0027418	40	13.3486	-3.18777e-05
2	0	0	1	0	38.0238	0.187284	0.187033	-0.16621	1	0.00269994	40	13.5985	-3.10869e-05
2	0	0	1	0	38.2737	0.182286	0.181978	-0.16638	1	0.00265805	40	13.8484	-3.02775e-05
2	0	0	1	0	38.5236	0.177288	0.176936	-0.166167	1	0.00261615	40	14.0983	-2.94008e-05
2	0	0	1	0	38.7735	0.172291	0.172022	-0.166391	1	0.00257422	40	14.3482	-2.86229e-05
2	0	0	1	0	39.0233	0.167293	0.167053	-0.166415	1	0.00253228	40	14.598	-2.78e-05
2	0	0	1	0	39.2732	0.162295	0.161871	-0.166501	1	0.0024903	40	14.8479	-2.69517e-05
2	0	0	1	0	39.5231	0.157298	0.156966	-0.166425	1	0.0024483	40	15.0978	-2.61231e-05
2	0	0	1	0	39.773	0.1523	0.151733	-0.166641	1	0.00240628	40	15.3477	-2.52849e-05
2	0	0	1	0	40.0229	0.147303	0.147128	-0.166628	1	0.00236424	40	15.5976	-2.45157e-05
2	0	0	1	0	40.2728	0.142303	0.141996	-0.166799	1	0.00232218	40	15.8475	-2.36849e-05
2	0	0	1	0	40.5226	0.137307	0.137061	-0.16694	1	0.00228013	40	16.0973	-2.2881e-05
2	0	0	1	0	40.7725	0.13231	0.131932	-0.16667	1	0.00223804	40	16.3472	-2.19892e-05
2	0	0	1	0	41.0224	0.127312	0.126922	-0.16696	1	0.00219595	40	16.5971	-2.1191e-05
2	0	0	1	0	41.2723	0.122314	0.122098	-0.166866	1	0.00215384	40	16.847	-2.0374e-05
2	0	0	1	0	41.5222	0.117316	0.116952	-0.16663	1	0.00211171	40	17.0969	-1.94877e-05
2	0	0	1	0	41.772	0.112319	0.112088	-0.167036	1	0.0020696	40	17.3467	-1.87228e-05
2	0	0	1	0	42.0219	0.107322	0.107154	-0.166909	1	0.00202746	40	17.5966	-1.7885e-05
2	0	0	1	0	42.2718	0.102324	0.102006	-0.167174	1	0.00198531	40	17.8465	-1.70528e-05
2	0	0	1	0	42.5217	0.0973263	0.0971427	-0.167064	1	0.00194315	40	18.0964	-1.6229e-05
2	0	0	1	0	42.7716	0.0923286	0.0920312	-0.167091	1	0.00190099	40	18.3463	-1.53776e-05
2	0	0	1	0	43.0214	0.087331	0.087261	-0.167209	1	0.00185884	40	18.5961	-1.45908e-05
2	0	0	1	0	43.2713	0.0823334	0.0820463	-0.167075	1	0.00181666	40	18.846	-1.37079e-05
2	0	0	1	0	43.5212	0.0773358	0.077085	-0.166829	1	0.00177449	40	19.0959	-1.286e-05
2	0	0	1	0	43.7711	0.0723381	0.0720782	-0.16706	1	0.00173234	40	19.3458	-1.20414e-05
2	0	0	1	0	44.021	0.0673405	0.0668883	-0.166871	1	0.00169018	40	19.5957	-1.11617e-05
2	0	0	1	0	44.2708	0.0623433	0.0620691	-0.167141	1	0.00164802	40	19.8455	-1.03743e-05
2	0	0	1	0	44.5207	0.0573453	0.0574251	-0.167246	1	0.00160582	40	20.0954	-9.60413e-06
2	0	0	1	0	44.7706	0.0523476	0.0519819	-0.167343	1	0.00156358	40	20.3453	-8.69883e-06
2	0	0	1	0	45.0205	0.04735	0.0470285	-0.167436	1	0.00152133	40	20.5952	-7.87429e-06
2	0	0	1	0	45.2704	0.0423524	0.0421187	-0.167496	1	0.00147908	40	20.8451	-7.0547e-06
2	0	0	1	0	45.5202	0.0373566	0.0371419	-0.167517	1	0.00143685	40	21.0949	-6.2219e-06
2	0	0	1	0	45.7701	0.0323571	0.0320557	-0.167552	1	0.0013946	40	21.3448	-5.371e-06
2	0	0	1	0	46.02	0.0273595	0.0272433	-0.167485	1	0.00135235	40	21.5947	-4.56284e-06
2	0	0	1	0	46.2699	0.0223619	0.0221035	-0.167774	1	0.0013101	40	21.8446	-3.70837e-06
2	0	0	1	0	46.5198	0.0173643	0.0171154	-0.167673	1	0.00126784	40	22.0945	-2.8698e-06
2	0	0	1	0	46.7697	0.0123666	0.0120961	-0.167783	1	0.00122556	40	22.3444	-2.02952e-06
2	0	0	1	0	47.0195	0.00736902	0.00726758	-0.167865	1	0.00118328	40	22.5942	-1.21997e-06
2	0	0	1	0	47.2694	0.00237139	0.00218828	-0.167803	1	0.00114099	40	22.8441	-3.67199e-07
2	0	0	1	1	47.4773	0.00177168	0.00157113	-0.16935	1	0.00110589	40	23.052	-2.6607e-07
2	0	0	1	1	47.7272	0.0067693	0.00629574	-0.169253	1	0.00106392	40	23.3019	-1.06557e-06
2	0	0	1	1	47.977	0.0117651	0.0114615	-0.169131	1	0.00102199	40	23.5517	-1.9385e-06
2	0	0	1	1	48.2269	0.0167646	0.0164602	-0.168958	1	0.000980068	40	23.8016	-2.78108e-06
2	0	0	1	1	48.4768	0.0217622	0.0214759	-0.169313	1	0.000938174	40	24.0515	-3.63614e-06
2	0	0	1	1	48.7267	0.0267598	0.0266371	-0.169198	1	0.000896286	40	24.3014	-4.50696e-06
2	0	0	1	1	48.9766	0.0317574	0.0315169	-0.169072	1	0.000854429	40	24.5513	-5.32864e-06
2	0	0	1	1	49.2265	0.0367551	0.0365115	-0.169053	1	0.000812593	40	24.8012	-6.17239e-06
2	0	0	1	1	49.4763	0.0417527	0.0413189	-0.168902	1	0.00077079	40	25.051	-6.97884e-06
2	0	0	1	1	49.7262	0.0467503	0.0463566	-0.168834	1	0.000728982	40	25.3009	-7.82657e-06
2	0	0	1	1	49.9761	0.0517479	0.0513988	-0.168749	1	0.000687173	40	25.5508	-8.67351e-06
2	0	0	1	1	50.226	0.0567456	0.0565472	-0.168699	1	0.000645378	40	25.8007	-9.53947e-06
2	0	0	1	1	50.4759	0.0617432	0.0614898	-0.168546	1	0.000603602	40	26.0506	-1.03638e-05
2	0	0	1	1	50.7258	0.0667421	0.0664899	-0.168651	1	0.000561861	40	26.3005	-1.12136e-05
2	0	0	1	1	50.9756	0.0717384	0.071353	-0.168253	1	0.000520169	40	26.5503	-1.20054e-05
2	0	0	1	1	51.2255	0.0767361	0.0764535	-0.168322	1	0.000478475	40	26.8002	-1.28688e-05
2	0	0	1	1	51.4754	0.0817337	0.0814622	-0.168327	1	0.000436808	40	27.0501	-1.37123e-05
2	0	0	1	1	51.7253	0.0867313	0.0864386	-0.168263	1	0.000395153	40	27.3	-1.45445e-05
2	0	0	1	1	51.9752	0.0917289	0.0916002	-0.168299	1	0.000353508	40	27.5499	-1.54162e-05
2	0	0	1	1	52.225	0.0967266	0.0965029	-0.168269	1	0.000311919	40	27.7997	-1.62384e-05
2	0	0	1	1	52.4749	0.101724	0.101525	-0.16799	1	0.000270342	40	28.0496	-1.70551e-05
2	0	0	1	1	52.7248	0.106722	0.10659	-0.167846	1	0.000228789	40	28.2995	-1.78908e-05
2	0	0	1	1	52.9747	0.111719	0.111459	-0.167765	1	0.000187261	40	28.5494	-1.86989e-05
2	0	0	1	1	53.2246	0.116717	0.116264	-0.167561	1	0.000145762	40	28.7993	-1.94813e-05
2	0	0	1	1	53.4744	0.121715	0.121542	-0.167424	1	0.000104307	40	29.0491	-2.0349e-05
2	0	0	1	1	53.7243	0.126712	0.126484	-0.167195	1	6.28758e-05	40	29.299	-2.11475e-05
2	0	0	1	1	53.9742	0.13171	0.13142	-0.167001	1	2.15046e-05	40	29.5489	-2.19473e-05
2	0	0	1	1	54.2241	0.136708	0.136402	-0.166562	1	-1.98054e-05	40	29.7988	-2.27195e-05
2	0	0	1	1	54.474	0.141705	0.141344	-0.166545	1	-6.10651e-05	40	30.0487	-2.35402e-05
2	0	0	1	1	54.7238	0.146702	0.146397	-0.166294	1	-0.000102251	40	30.2985	-2.43449e-05
2	0	0	1	1	54.9737	0.1517	0.151204	-0.16592	1	-0.00014341	40	30.5484	-2.50878e-05
2	0	0	1	1	55.2236	0.156698	0.156553	-0.165903	1	-0.000184539	40	30.7983	-2.59727e-05
2	0	0	1	1	55.4735	0.161696	0.161437	-0.165841	1	-0.000225612	40	31.0482	-2.67728e-05
2	0	0	1	1	55.7234	0.166693	0.166319	-0.165629	1	-0.000266632	40	31.2981	-2.75472e-05
2	0	0	1	1	55.9732	0.171689	0.171455	-0.165356	1	-0.000307586	40	31.5479	-2.83511e-05
2	0	0	1	1	56.2231	0.176689	0.176368	-0.165043	1	-0.000348523	40	31.7978	-2.91083e-05
2	0	0	1	1	56.473	0.181686	0.181534	-0.164812	1	-0.000389405	40	32.0477	-2.99189e-05
2	0	0	1	1	56.7229	0.186684	0.186372	-0.164469	1	-0.000430215	40	32.2976	-3.06524e-05
2	0	0	1	1	56.9728	0.191681	0.191301	-0.164212	1	-0.000470954	40	32.5475	-3.14139e-05
2	0	0	1	1	57.2227	0.196679	0.196419	-0.163845	1	-0.000511623	40	32.7974	-3.21822e-05
2	0	0	1	1	57.4725	0.201677	0.201326	-0.163256	1	-0.000552161	40	33.0472	-3.28677e-05
2	0	0	1	1	57.7224	0.206674	0.206299	-0.162995	1	-0.000592611	40	33.2971	-3.36257e-05
2	0	0	1	1	57.9723	0.211672	0.21122	-0.162333	1	-0.000632949	40	33.547	-3.42881e-05
2	0	0	1	1	58.2222	0.21667	0.216551	-0.162	1	-0.000673179	40	33.7969	-3.50813e-05
2	0	0	1	1	58.4721	0.221667	0.221231	-0.161246	1	-0.000713283	40	34.0468	-3.56727e-05
2	0	0	1	1	58.722	0.226666	0.226391	-0.160812	1	-0.000753256	40	34.2967	-3.64064e-05
2	0	0	1	1	58.9718	0.231662	0.231401	-0.160361	1	-0.000793091	40	34.5465	-3.71078e-05
2	0	0	1	1	59.2217	0.23666	0.236434	-0.159668	1	-0.000832807	40	34.7964	-3.77508e-05
2	0	0	1	1	59.4716	0.241658	0.241462	-0.15924	1	-0.000872377	40	35.0463	-3.84504e-05
2	0	0	1	1	59.7215	0.246655	0.246335	-0.158545	1	-0.000911784	40	35.2962	-3.90551e-05
2	0	0	1	1	59.9714	0.251653	0.251271	-0.157809	1	-0.000951036	40	35.5461	-3.96527e-05
2	0	0	1	1	60.2212	0.256651	0.256346	-0.157083	1	-0.000990079	40	35.7959	-4.02678e-05
2	0	0	1	1	60.4711	0.261648	0.261235	-0.156296	1	-0.00102894	40	36.0458	-4.08301e-05
2	0	0	1	1	60.721	0.266646	0.266416	-0.155393	1	-0.00106761	40	36.2957	-4.13992e-05
2	0	0	1	1	60.9709	0.271643	0.271472	-0.154566	1	-0.00110608	40	36.5456	-4.19605e-05
2	0	0	1	1	61.2208	0.276641	0.276366	-0.153615	1	-0.00114432	40	36.7955	-4.2454e-05
2	0	0	1	1	61.4706	0.281639	0.281292	-0.152699	1	-0.00118234	40	37.0453	-4.29532e-05
2	0	0	1	1	61.7205	0.286636	0.286451	-0.151747	1	-0.00122016	40	37.2952	-4.34681e-05
2	0	0	1	1	61.9704	0.291634	0.291363	-0.150914	1	-0.00125776	40	37.5451	-4.39708e-05
2	0	0	1	1	62.2203	0.296632	0.296488	-0.150039	1	-0.00129513	40	37.795	-4.44847e-05
2	0	0	1	1	62.4702	0.301629	0.301366	-0.149139	1	-0.00133228	40	38.0449	-4.49455e-05
2	0	0	1	1	62.72	0.306625	0.306372	-0.148368	1	-0.00136921	40	38.2947	-4.54557e-05
2	0	0	1	1	62.9699	0.311624	0.311427	-0.147433	1	-0.00140593	40	38.5446	-4.59146e-05
2	0	0	1	1	63.2198	0.316622	0.316324	-0.146655	1	-0.00144243	40	38.7945	-4.63904e-05
2	0	0	1	1	63.4697	0.32162	0.321334	-0.145702	1	-0.00147874	40	39.0444	-4.6819e-05
2	0	0	1	1	63.7196	0.326617	0.32643	-0.145034	1	-0.00151482	40	39.2943	-4.73434e-05
2	0	0	1	1	63.9695	0.331615	0.331469	-0.143994	1	-0.00155067	40	39.5442	-4.77297e-05
2	0	0	1	1	64.2193	0.336613	0.336479	-0.14303	1	-0.00158626	40	39.794	-4.81265e-05
2	0	0	1	1	64.4692	0.34161	0.341244	-0.14149	1	-0.00162158	40	40.0439	-4.82826e-05
2	0	0	1	1	64.7191	0.346608	0.34655	-0.14038	1	-0.00165658	40	40.2938	-4.86485e-05
2	0	0	1	1	64.969	0.351605	0.35131	-0.138685	1	-0.00169122	40	40.5437	-4.87216e-05
2	0	0	1	1	65.2189	0.356603	0.35643	-0.136913	1	-0.00172543	40	40.7936	-4.88001e-05
2	0	0	1	1	65.4688	0.361602	0.361488	-0.134616	1	-0.00175913	40	41.0435	-4.86622e-05
2	0	0	1	1	65.7186	0.366598	0.366334	-0.132142	1	-0.00179225	40	41.2933	-4.8408e-05
2	0	0	1	1	65.9685	0.371596	0.371269	-0.129096	1	-0.00182471	40	41.5432	-4.79293e-05
2	0	0	1	1	66.2184	0.376594	0.37625	-0.125722	1	-0.00185638	40	41.7931	-4.7303e-05
2	0	0	1	1	66.4683	0.381591	0.381213	-0.121825	1	-0.0018871	40	42.043	-4.64414e-05
2	0	0	1	1	66.7182	0.386589	0.386222	-0.117026	1	-0.00191672	40	42.2929	-4.51981e-05
2	0	0	1	1	66.968	0.391586	0.39115	-0.111275	1	-0.00194503	40	42.5427	-4.35253e-05
2	0	0	1	1	67.2179	0.396584	0.396102	-0.104905	1	-0.00197185	40	42.7926	-4.15532e-05
2	0	0	1	1	67.4678	0.401582	0.401302	-0.0973437	1	-0.00199692	40	43.0425	-3.90643e-05
2	0	0	1	1	67.7177	0.406579	0.406234	-0.0891565	1	-0.00202004	40	43.2924	-3.62184e-05
2	0	0	1	1	67.9676	0.411577	0.411302	-0.0797599	1	-0.00204095	40	43.5423	-3.28054e-05
2	0	0	1	1	68.2174	0.416575	0.416094	-0.0693897	1	-0.00205938	40	43.7921	-2.88727e-05
2	0	0	1	1	68.4673	0.421572	0.421275	-0.0578265	1	-0.00207508	40	44.042	-2.43609e-05
2	0	0	1	1	68.7172	0.42657	0.426166	-0.0452859	1	-0.00208779	40	44.2919	-1.92993e-05
2	0	0	1	1	68.9971	0.432167	0.431952	-0.0294454	1	-0.0020982	41	44.5718	-1.2719e-05
2	0	0	1	1	69.247	0.437166	0.437059	-0.0148243	1	-0.00210373	41	44.8217	-6.47911e-06
2	0	0	1	1	69.4968	0.442162	0.441779	0.000514107	1	-0.00210552	41	45.0715	2.27122e-07
2	1	0	1	1	69.7467	0.44716	0.446817	0.0163564	1	-0.0021034	41	0.2249	7.30834e-06
2	1	0	1	1	69.9516	0.451258	0.451067	0.0297194	2	-0.00209867	41	0.4298	1.34054e-05
2	1	0	1	1	70.2015	0.456256	0.456108	0.0460622	2	-0.00208919	41	0.6797	2.10093e-05
2	1	0	1	1	70.4514	0.461253	0.460812	0.0622226	2	-0.00207564	41	0.9296	2.86729e-05
2	1	0	1	1	70.7013	0.466251	0.466098	0.0782374	2	-0.00205807	41	1.1795	3.64663e-05
2	1	0	1	1	70.9511	0.471249	0.47098	0.093529	2	-0.0020366	41	1.4293	4.40503e-05
2	1	0	1	1	71.201	0.476246	0.476043	0.107998	2	-0.00201139	41	1.6792	5.14117e-05
2	1	0	1	1	71.4809	0.481843	0.481599	0.122352	2	-0.00197903	40	1.9591	5.89247e-05
2	1	0	1	1	71.7308	0.486841	0.486581	0.134656	2	-0.00194669	40	2.209	6.55212e-05
2	1	0	1	1	71.9806	0.491837	0.491393	0.145776	2	-0.00191143	40	2.4588	7.16331e-05
2	1	0	1	1	72.2305	0.496836	0.496508	0.155903	2	-0.0018735	40	2.7087	7.74068e-05
2	1	0	1	1	72.4804	0.501834	0.501399	0.16471	2	-0.00183321	40	2.9586	8.25855e-05
2	1	0	1	1	72.7303	0.506832	0.506574	0.172596	2	-0.00179083	40	3.2085	8.74328e-05
2	1	0	1	1	72.9802	0.511829	0.511565	0.179318	2	-0.00174658	40	3.4584	9.17327e-05
2	1	0	1	1	73.2301	0.516827	0.516483	0.185427	2	-0.00170074	40	3.7083	9.57698e-05
2	1	0	1	1	73.4799	0.521824	0.521616	0.190547	2	-0.00165351	40	3.9581	9.93926e-05
2	1	0	1	1	73.7298	0.526822	0.5265	0.195265	2	-0.00160502	40	4.208	0.000102807
2	1	0	1	1	73.9797	0.53182	0.531485	0.199251	2	-0.00155548	40	4.4579	0.000105899
2	1	0	1	1	74.2296	0.536817	0.536404	0.202678	2	-0.00150503	40	4.7078	0.000108717
2	1	0	1	1	74.4795	0.541815	0.541599	0.205645	2	-0.00145377	40	4.9577	0.000111377
2	1	0	1	1	74.7294	0.546814	0.546656	0.208085	2	-0.00140181	40	5.2076	0.000113751
2	1	0	1	1	74.9792	0.55181	0.551355	0.210477	2	-0.00134927	40	5.4574	0.000116047
2	1	0	1	1	75.2291	0.556808	0.556369	0.212438	2	-0.00129615	40	5.7073	0.000118194
2	1	0	1	1	75.479	0.561805	0.561596	0.214441	2	-0.00124255	40	5.9572	0.00012043
2	1	0	1	1	75.7289	0.566803	0.56647	0.21617	2	-0.0011885	40	6.2071	0.000122454
2	1	0	1	1	75.9788	0.571802	0.571592	0.21742	2	-0.00113407	40	6.457	0.000124276
2	1	0	1	1	76.2286	0.576798	0.576728	0.218712	2	-0.00107935	40	6.7068	0.000126137
2	1	0	1	1	76.4785	0.581796	0.58176	0.219731	2	-0.00102433	40	6.9567	0.000127831
2	1	0	1	1	76.7284	0.586794	0.586557	0.220667	2	-0.00096904	40	7.2066	0.000129433
2	1	0	1	1	76.9783	0.591791	0.591132	0.221992	2	-0.000913507	40	7.4565	0.000131227
2	1	0	1	1	77.2282	0.596789	0.59654	0.2229	2	-0.000857735	40	7.7064	0.000132969
2	1	0	1	1	77.478	0.601787	0.601353	0.22366	2	-0.000801776	40	7.9562	0.000134498
2	1	0	1	1	77.7279	0.606784	0.606621	0.224446	2	-0.000745608	40	8.2061	0.000136154
2	1	0	1	1	77.9778	0.611782	0.611376	0.22525	2	-0.00068927	40	8.456	0.000137712
2	1	0	1	1	78.2277	0.616779	0.61656	0.225922	2	-0.000632756	40	8.7059	0.000139295
2	1	0	1	1	78.4776	0.621777	0.621421	0.226645	2	-0.000576093	40	8.9558	0.000140842
2	1	0	1	1	78.7274	0.626774	0.626562	0.227154	2	-0.000519303	40	9.2056	0.000142326
2	1	0	1	1	78.9773	0.631772	0.631471	0.22803	2	-0.000462319	40	9.4555	0.000143994
2	1	0	1	1	79.2272	0.63677	0.636238	0.228848	2	-0.000405148	40	9.7054	0.000145602
2	1	0	1	1	79.4771	0.641768	0.641405	0.229454	2	-0.000347795	40	9.9553	0.000147173
2	1	0	1	1	79.727	0.646765	0.646463	0.230249	2	-0.000290248	40	10.2052	0.000148848
2	1	0	1	1	79.9768	0.651761	0.651384	0.231009	2	-0.000232543	40	10.455	0.000150476
2	1	0	1	1	80.2267	0.65676	0.656454	0.231492	2	-0.000174638	40	10.7049	0.000151964
2	1	0	1	1	80.4766	0.661758	0.661627	0.232249	2	-0.000116599	40	10.9548	0.000153663
2	1	0	1	1	80.7265	0.666756	0.666413	0.232994	2	-5.83948e-05	40	11.2047	0.00015527
2	1	0	1	1	80.9764	0.671753	0.671231	0.233717	2	-4.37742e-08	40	11.4546	0.000156878
2	1	0	1	1	81.2263	0.676751	0.676351	0.234482	2	5.85025e-05	40	11.7045	0.000158592
2	1	0	1	1	81.4761	0.681749	0.681407	0.2355	2	0.000117243	40	11.9543	0.000160471
2	1	0	1	1	81.726	0.686746	0.686386	0.236831	2	0.000176285	40	12.2042	0.000162558
2	1	0	1	1	81.9759	0.691744	0.691394	0.238185	2	0.00023567	40	12.4541	0.00016468
2	1	0	1	1	82.2258	0.696741	0.696316	0.239573	2	0.000295417	40	12.704	0.000166819
2	1	0	1	1	82.4538	0.69874	0.698384	0.238529	2	0.00035014	40	12.932	0.000166585
2	1	0	1	1	82.7036	0.693743	0.693528	0.235626	2	0.000409251	40	13.1818	0.000163413
2	1	0	1	1	82.9535	0.688745	0.688523	0.233983	2	0.000467866	40	13.4317	0.000161103
2	1	0	1	1	83.2034	0.683748	0.683503	0.233003	2	0.000526173	40	13.6816	0.000159258
2	1	0	1	1	83.4533	0.67875	0.678305	0.232241	2	0.000584271	40	13.9315	0.00015753
2	1	0	1	1	83.7032	0.673752	0.673498	0.231638	2	0.000642186	40	14.1814	0.000156007
2	1	0	1	1	83.953	0.668756	0.668575	0.230975	2	0.000699923	40	14.4312	0.000154424
2	1	0	1	1	84.2029	0.663757	0.663474	0.230568	2	0.000757535	40	14.6811	0.000152976
2	1	0	1	1	84.4528	0.658759	0.658481	0.229893	2	0.000815016	40	14.931	0.00015138
2	1	0	1	1	84.7027	0.653762	0.653399	0.229387	2	0.000872333	40	15.1809	0.000149881
2	1	0	1	1	84.9526	0.648764	0.64858	0.228798	2	0.000929483	40	15.4308	0.000148394
2	1	0	1	1	85.2025	0.643767	0.643368	0.228416	2	0.000986507	40	15.6807	0.000146955
2	1	0	1	1	85.4523	0.638769	0.638351	0.227887	2	0.00104339	40	15.9305	0.000145472
2	1	0	1	1	85.7022	0.633771	0.633571	0.227315	2	0.00110018	40	16.1804	0.00014402
2	1	0	1	1	85.9521	0.628774	0.62824	0.226929	2	0.00115684	40	16.4303	0.000142566
2	1	0	1	1	86.202	0.623776	0.623461	0.226407	2	0.00121335	40	16.6802	0.000141156
2	1	0	1	1	86.4519	0.618778	0.61872	0.225775	2	0.00126972	40	16.9301	0.000139691
2	1	0	1	1	86.7017	0.613781	0.61345	0.225052	2	0.00132589	40	17.1799	0.000138058
2	1	0	1	1	86.9516	0.608783	0.608417	0.224117	2	0.00138188	40	17.4298	0.000136357
2	1	0	1	1	87.2015	0.603786	0.603442	0.223108	2	0.00143762	40	17.6797	0.000134632
2	1	0	1	1	87.4514	0.598788	0.598538	0.222122	2	0.00149312	40	17.9296	0.000132948
2	1	0	1	1	87.7013	0.59379	0.59335	0.221102	2	0.00154835	40	18.1795	0.000131191
2	1	0	1	1	87.9512	0.588791	0.588565	0.219999	2	0.00160327	40	18.4294	0.000129484
2	1	0	1	1	88.201	0.583795	0.583552	0.218412	2	0.00165783	40	18.6792	0.000127455
2	1	0	1	1	88.4509	0.578797	0.578302	0.217141	2	0.00171202	40	18.9291	0.000125573
2	1	0	1	1	88.7008	0.5738	0.573316	0.215378	2	0.00176581	40	19.179	0.00012348
2	1	0	1	1	88.9507	0.568802	0.568456	0.213233	2	0.00181912	40	19.4289	0.000121213
2	1	0	1	1	89.2006	0.563805	0.563421	0.210989	2	0.0018719	40	19.6788	0.000118876
2	1	0	1	1	89.4504	0.558807	0.558566	0.208417	2	0.00192403	40	19.9286	0.000116415
2	1	0	1	1	89.7003	0.553809	0.553576	0.20543	2	0.00197547	40	20.1785	0.000113721
2	1	0	1	1	89.9502	0.548812	0.548518	0.201812	2	0.00202609	40	20.4284	0.000110697
2	1	0	1	1	90.2001	0.543814	0.54359	0.197815	2	0.00207577	40	20.6783	0.00010753
2	1	0	1	1	90.45	0.538816	0.538405	0.193213	2	0.00212438	40	20.9282	0.000104027
2	1	0	1	1	90.6998	0.533819	0.533513	0.188064	2	0.00217175	40	21.178	0.000100335
2	1	0	1	1	90.9497	0.528821	0.528607	0.181898	2	0.00221772	40	21.4279	9.61524e-05
2	1	0	1	1	91.1996	0.523824	0.523582	0.174977	2	0.0022621	40	21.6778	9.16149e-05
2	1	0	1	1	91.4495	0.518826	0.518714	0.167223	2	0.00230464	40	21.9277	8.67408e-05
2	1	0	1	1	91.6994	0.513828	0.51345	0.158586	2	0.00234513	40	22.1776	8.14259e-05
2	1	0	1	1	91.9492	0.508832	0.508454	0.148676	2	0.00238329	40	22.4274	7.55952e-05
2	1	0	1	1	92.1991	0.503833	0.503522	0.137737	2	0.00241888	40	22.6773	6.93537e-05
2	1	0	1	1	92.449	0.498835	0.498578	0.12558	2	0.00245161	40	22.9272	6.26116e-05
2	1	0	1	1	92.6989	0.493838	0.493626	0.112432	2	0.00248118	40	23.1771	5.54992e-05
2	1	0	1	1	92.9488	0.48884	0.488589	0.0982784	2	0.00250734	40	23.427	4.80177e-05
2	1	0	1	1	93.1987	0.483843	0.48369	0.083033	2	0.00252981	40	23.6769	4.01622e-05
2	1	0	1	1	93.4485	0.478845	0.478633	0.0668602	2	0.00254836	40	23.9267	3.20015e-05
2	1	0	1	1	93.6984	0.473847	0.47355	0.0501828	2	0.00256279	40	24.1766	2.37641e-05
2	1	0	1	1	93.9783	0.46825	0.467894	0.0303399	2	0.00257399	41	24.4565	1.41959e-05
2	1	0	1	1	94.2282	0.463252	0.462974	0.013074	2	0.00257939	41	24.7064	6.05291e-06
2	0	0	1	1	94.478	0.458256	0.457785	-0.00412164	2	0.00258051	41	0.0249	-1.88682e-06
2	0	0	1	1	94.7279	0.453257	0.452663	-0.0204369	2	0.00257743	41	0.2748	-9.25105e-06
2	0	0	1	1	94.9778	0.448259	0.447939	-0.0362121	2	0.00257031	41	0.5247	-1.62208e-05
2	0	0	1	1	95.2277	0.443262	0.443182	-0.0511515	2	0.00255936	41	0.7746	-2.26694e-05
2	0	0	1	1	95.4776	0.438264	0.438009	-0.0648015	2	0.00254484	41	1.0245	-2.83837e-05
2	0	0	1	1	95.7275	0.433267	0.433051	-0.0773548	2	0.00252705	41	1.2744	-3.34985e-05
2	0	0	1	1	95.9773	0.428269	0.428012	-0.0885586	2	0.00250631	41	1.5242	-3.79041e-05
2	0	0	1	1	96.2272	0.423271	0.422769	-0.0983684	2	0.00248292	41	1.7741	-4.15871e-05
2	0	0	1	1	96.4771	0.418274	0.418125	-0.107146	2	0.00245721	41	2.024	-4.48005e-05
2	0	0	1	1	96.757	0.412676	0.412336	-0.114804	2	0.00242603	40	2.3039	-4.73377e-05
2	0	0	1	1	97.0068	0.40768	0.407518	-0.121438	2	0.00239631	40	2.5537	-4.94882e-05
2	0	0	1	1	97.2567	0.402681	0.402499	-0.127089	2	0.00236507	40	2.8036	-5.11533e-05
2	0	0	1	1	97.5066	0.397684	0.397451	-0.131755	2	0.00233253	40	3.0535	-5.23661e-05
2	0	0	1	1	97.7565	0.392686	0.392273	-0.13578	2	0.00229887	40	3.3034	-5.3263e-05
2	0	0	1	1	98.0064	0.387688	0.387351	-0.139623	2	0.00226424	40	3.5533	-5.40832e-05
2	0	0	1	1	98.2562	0.382692	0.382391	-0.142504	2	0.0022288	40	3.8031	-5.44921e-05
2	0	0	1	1	98.5061	0.377693	0.377515	-0.144957	2	0.00219264	40	4.053	-5.47233e-05
2	0	0	1	1	98.756	0.372695	0.372398	-0.147243	2	0.00215588	40	4.3029	-5.48331e-05
2	0	0	1	1	99.0059	0.367698	0.367444	-0.14934	2	0.0021186	40	4.5528	-5.4874e-05
2	0	0	1	1	99.2558	0.3627	0.362319	-0.15103	2	0.00208084	40	4.8027	-5.47212e-05
2	0	0	1	1	99.5057	0.357703	0.357486	-0.152649	2	0.00204268	40	5.0526	-5.45699e-05
2	0	0	1	1	99.7555	0.352705	0.352452	-0.15395	2	0.00200419	40	5.3024	-5.42598e-05
2	0	0	1	1	100.005	0.347707	0.347376	-0.155156	2	0.00196537	40	5.5523	-5.38974e-05
2	0	0	1	1	100.255	0.34271	0.342252	-0.15601	2	0.00192628	40	5.8022	-5.33949e-05
2	0	0	1	1	100.505	0.337712	0.337437	-0.157028	2	0.00188694	40	6.0521	-5.29871e-05
2	0	0	1	1	100.755	0.332714	0.33237	-0.157889	2	0.00184738	40	6.302	-5.24776e-05
2	0	0	1	1	101.005	0.327715	0.327516	-0.158657	2	0.00180762	40	6.5519	-5.19627e-05
2	0	0	1	1	101.255	0.322719	0.322474	-0.159135	2	0.00176773	40	6.8017	-5.13168e-05
2	0	0	1	1	101.505	0.317722	0.317343	-0.159798	2	0.00172767	40	7.0516	-5.07108e-05
2	0	0	1	1	101.755	0.312724	0.312318	-0.160261	2	0.00168746	40	7.3015	-5.00526e-05
2	0	0	1	1	102.004	0.307726	0.307365	-0.160799	2	0.00164714	40	7.5514	-4.9424e-05
2	0	0	1	1	102.254	0.302729	0.302505	-0.161192	2	0.00160669	40	7.8013	-4.87612e-05
2	0	0	1	1	102.504	0.297731	0.297497	-0.161591	2	0.00156614	40	8.0511	-4.80729e-05
2	0	0	1	1	102.754	0.292733	0.292596	-0.161994	2	0.00152545	40	8.301	-4.73987e-05
2	0	0	1	1	103.004	0.287736	0.287544	-0.162472	2	0.00148469	40	8.5509	-4.67179e-05
2	0	0	1	1	103.254	0.282738	0.282315	-0.162679	2	0.00144386	40	8.8008	-4.59267e-05
2	0	0	1	1	103.504	0.277741	0.277521	-0.16311	2	0.00140296	40	9.0507	-4.52663e-05
2	0	0	1	1	103.754	0.272743	0.272438	-0.16324	2	0.00136199	40	9.3005	-4.44729e-05
2	0	0	1	1	104.003	0.267745	0.267326	-0.163401	2	0.00132094	40	9.5504	-4.36814e-05
2	0	0	1	1	104.253	0.262748	0.262439	-0.163769	2	0.00127982	40	9.8003	-4.29794e-05
2	0	0	1	1	104.503	0.25775	0.25758	-0.164099	2	0.00123862	40	10.0502	-4.22685e-05
2	0	0	1	1	104.753	0.252752	0.252462	-0.164244	2	0.00119736	40	10.3001	-4.14654e-05
2	0	0	1	1	105.003	0.247756	0.24748	-0.164367	2	0.00115605	40	10.5499	-4.06776e-05
2	0	0	1	1	105.253	0.242757	0.242206	-0.164645	2	0.00111468	40	10.7998	-3.9878e-05
2	0	0	1	1	105.503	0.23776	0.237446	-0.164739	2	0.00107325	40	11.0497	-3.91166e-05
2	0	0	1	1	105.753	0.232762	0.232248	-0.164766	2	0.00103179	40	11.2996	-3.82666e-05
2	0	0	1	1	106.003	0.227764	0.227532	-0.164898	2	0.000990294	40	11.5495	-3.75196e-05
2	0	0	1	1	106.252	0.222767	0.222523	-0.164897	2	0.00094878	40	11.7994	-3.66934e-05
2	0	0	1	1	106.502	0.217769	0.217592	-0.165098	2	0.00090724	40	12.0492	-3.5924e-05
2	0	0	1	1	106.752	0.212771	0.212419	-0.165346	2	0.000865659	40	12.2991	-3.51227e-05
2	0	0	1	1	107.002	0.207774	0.20741	-0.165545	2	0.000824029	40	12.549	-3.43356e-05
2	0	0	1	1	107.252	0.202776	0.202629	-0.165538	2	0.000782364	40	12.7989	-3.35429e-05
2	0	0	1	1	107.502	0.197779	0.197469	-0.165739	2	0.000740651	40	13.0488	-3.27284e-05
2	0	0	1	1	107.752	0.192781	0.19246	-0.165927	2	0.000698917	40	13.2986	-3.19344e-05
2	0	0	1	1	108.002	0.187783	0.187518	-0.165858	2	0.000657143	40	13.5485	-3.11013e-05
2	0	0	1	1	108.251	0.182786	0.182596	-0.165901	2	0.000615354	40	13.7984	-3.02928e-05
2	0	0	1	1	108.501	0.177788	0.177419	-0.165681	2	0.000573549	40	14.0483	-2.9395e-05
2	0	0	1	1	108.751	0.17279	0.172425	-0.165821	2	0.000531741	40	14.2982	-2.85916e-05
2	0	0	1	1	109.001	0.167792	0.167544	-0.165849	2	0.000489914	40	14.5481	-2.77871e-05
2	0	0	1	1	109.251	0.162795	0.162543	-0.165918	2	0.000448076	40	14.7979	-2.69687e-05
2	0	0	1	1	109.501	0.157798	0.157311	-0.165759	2	0.000406212	40	15.0478	-2.60757e-05
2	0	0	1	1	109.751	0.1528	0.152542	-0.166019	2	0.00036434	40	15.2977	-2.5325e-05
2	0	0	1	1	110.001	0.147802	0.147599	-0.166073	2	0.000322433	40	15.5476	-2.45123e-05
2	0	0	1	1	110.251	0.142805	0.142555	-0.166117	2	0.000280515	40	15.7975	-2.36809e-05
2	0	0	1	1	110.5	0.137807	0.137536	-0.166255	2	0.000238611	40	16.0473	-2.28661e-05
2	0	0	1	1	110.75	0.132809	0.132401	-0.166193	2	0.000196663	40	16.2972	-2.20041e-05
2	0	0	1	1	111	0.127812	0.127409	-0.166159	2	0.000154705	40	16.5471	-2.11701e-05
2	0	0	1	1	111.25	0.122814	0.122435	-0.16618	2	0.000112732	40	16.797	-2.03461e-05
2	0	0	1	1	111.5	0.117817	0.117612	-0.166388	2	7.07538e-05	40	17.0469	-1.95692e-05
2	0	0	1	1	111.75	0.112819	0.112559	-0.166352	2	2.87674e-05	40	17.2967	-1.87244e-05
2	0	0	1	1	112	0.107821	0.107645	-0.166456	2	-1.32442e-05	40	17.5466	-1.79181e-05
2	0	0	1	1	112.25	0.102824	0.102536	-0.166469	2	-5.52642e-05	40	17.7965	-1.70691e-05
2	0	0	1	1	112.499	0.097826	0.0973305	-0.166409	2	-9.72837e-05	40	18.0464	-1.61967e-05
2	0	0	1	1	112.749	0.0928284	0.0924645	-0.166423	2	-0.000139318	40	18.2963	-1.53882e-05
2	0	0	1	1	112.999	0.0878321	0.0876827	-0.166549	2	-0.000181355	40	18.5461	-1.46035e-05
2	0	0	1	1	113.249	0.0828332	0.082555	-0.166461	2	-0.000223426	40	18.796	-1.37422e-05
2	0	0	1	1	113.499	0.0778355	0.0775153	-0.1663	2	-0.000265494	40	19.0459	-1.28908e-05
2	0	0	1	1	113.749	0.0728379	0.0725811	-0.166294	2	-0.000307513	40	19.2958	-1.20698e-05
2	0	0	1	1	113.999	0.0678403	0.0676877	-0.166289	2	-0.000349476	40	19.5457	-1.12557e-05
2	0	0	1	1	114.249	0.0628427	0.062538	-0.166447	2	-0.000391455	40	19.7956	-1.04093e-05
2	0	0	1	1	114.498	0.057845	0.0576733	-0.166499	2	-0.000433478	40	20.0454	-9.60258e-06
2	0	0	1	1	114.748	0.0528474	0.0526821	-0.166999	2	-0.000475562	40	20.2953	-8.79788e-06
2	0	0	1	1	114.998	0.0478498	0.0476304	-0.166903	2	-0.000517676	40	20.5452	-7.94964e-06
2	0	0	1	1	115.248	0.0428522	0.0424978	-0.166939	2	-0.00055981	40	20.7951	-7.09453e-06
2	0	0	1	1	115.498	0.0378545	0.0374865	-0.167124	2	-0.000601967	40	21.045	-6.26488e-06
2	0	0	1	1	115.748	0.0328551	0.0325286	-0.16721	2	-0.000644143	40	21.2949	-5.43911e-06
2	0	0	1	1	115.998	0.0278593	0.0274771	-0.167158	2	-0.000686319	40	21.5447	-4.59302e-06
2	0	0	1	1	116.248	0.0228617	0.0225432	-0.167212	2	-0.000728508	40	21.7946	-3.76949e-06
2	0	0	1	1	116.498	0.017864	0.0174288	-0.16725	2	-0.000770686	40	22.0445	-2.91498e-06
2	0	0	1	1	116.747	0.0128664	0.0125996	-0.167278	2	-0.000812878	40	22.2944	-2.10764e-06
2	0	0	1	1	116.997	0.00786833	0.00759009	-0.167518	2	-0.000855081	40	22.5443	-1.27147e-06
2	0	0	1	1	117.247	0.00287116	0.00255847	-0.167438	2	-0.000897273	40	22.7941	-4.28386e-07
2	0	0	1	0	117.455	0.00127192	0.000870103	-0.169051	2	-0.000932312	40	23.002	-1.47092e-07
2	0	0	1	0	117.705	0.00626954	0.00592515	-0.168799	2	-0.000974195	40	23.2519	-1.00016e-06
2	0	0	1	0	117.955	0.0112672	0.010944	-0.168678	2	-0.00101604	40	23.5018	-1.84602e-06
2	0	0	1	0	118.205	0.0162666	0.0160477	-0.168727	2	-0.00105785	40	23.7517	-2.70768e-06
2	0	0	1	0	118.455	0.0212624	0.02102	-0.168689	2	-0.00109962	40	24.0015	-3.54585e-06
2	0	0	1	0	118.704	0.02626	0.0258684	-0.1685	2	-0.00114139	40	24.2514	-4.35883e-06
2	0	0	1	0	118.954	0.0312577	0.0310442	-0.16861	2	-0.00118313	40	24.5013	-5.23437e-06
2	0	0	1	0	119.204	0.0362553	0.0360252	-0.168439	2	-0.00122488	40	24.7512	-6.06804e-06
2	0	0	1	0	119.454	0.0412534	0.0412089	-0.168544	2	-0.00126662	40	25.0011	-6.94552e-06
2	0	0	1	0	119.704	0.0462505	0.0459257	-0.168581	2	-0.00130833	40	25.2509	-7.7422e-06
2	0	0	1	0	119.954	0.0512482	0.0508315	-0.168334	2	-0.00135004	40	25.5008	-8.55668e-06
2	0	0	1	0	120.204	0.0562458	0.0559753	-0.168416	2	-0.00139174	40	25.7507	-9.42713e-06
2	0	0	1	0	120.454	0.0612434	0.0611174	-0.168304	2	-0.00143343	40	26.0006	-1.02863e-05
2	0	0	1	0	120.704	0.066241	0.0658179	-0.168434	2	-0.00147511	40	26.2505	-1.10859e-05
2	0	0	1	0	120.953	0.0712387	0.0708991	-0.168479	2	-0.00151678	40	26.5003	-1.1945e-05
2	0	0	1	0	121.203	0.0762363	0.0760588	-0.168502	2	-0.00155848	40	26.7502	-1.28161e-05
2	0	0	1	0	121.453	0.0812339	0.0809574	-0.168269	2	-0.00160017	40	27.0001	-1.36226e-05
2	0	0	1	0	121.703	0.0862315	0.0859645	-0.168197	2	-0.00164182	40	27.25	-1.44589e-05
2	0	0	1	0	121.953	0.0912292	0.0908571	-0.168052	2	-0.00168343	40	27.4999	-1.52688e-05
2	0	0	1	0	122.203	0.0962263	0.0959156	-0.167765	2	-0.00172498	40	27.7497	-1.60913e-05
2	0	0	1	0	122.453	0.101224	0.101115	-0.167814	2	-0.00176652	40	27.9996	-1.69686e-05
2	0	0	1	0	122.703	0.106222	0.106035	-0.167775	2	-0.00180803	40	28.2495	-1.77901e-05
2	0	0	1	0	122.952	0.11122	0.110998	-0.167267	2	-0.00184949	40	28.4994	-1.85662e-05
2	0	0	1	0	123.202	0.116217	0.115931	-0.167197	2	-0.0018909	40	28.7493	-1.93832e-05
2	0	0	1	0	123.452	0.121213	0.121061	-0.167018	2	-0.00193226	40	28.9991	-2.02194e-05
2	0	0	1	0	123.702	0.126213	0.1259	-0.166794	2	-0.0019736	40	29.249	-2.09994e-05
2	0	0	1	0	123.952	0.13121	0.13104	-0.166983	2	-0.00201493	40	29.4989	-2.18814e-05
2	0	0	1	0	124.202	0.136208	0.135998	-0.166663	2	-0.00205621	40	29.7488	-2.26658e-05
2	0	0	1	0	124.452	0.141205	0.140845	-0.166407	2	-0.00209744	40	29.9987	-2.34376e-05
2	0	0	1	0	124.702	0.146203	0.145805	-0.166326	2	-0.00213861	40	30.2486	-2.42511e-05
2	0	0	1	0	124.951	0.151201	0.150851	-0.166133	2	-0.00217973	40	30.4984	-2.50613e-05
2	0	0	1	0	125.201	0.156198	0.155817	-0.165719	2	-0.00222082	40	30.7483	-2.5822e-05
2	0	0	1	0	125.451	0.161196	0.160797	-0.165317	2	-0.00226185	40	30.9982	-2.65825e-05
2	0	0	1	0	125.701	0.166194	0.165858	-0.165356	2	-0.00230282	40	31.2481	-2.74256e-05
2	0	0	1	0	125.951	0.171191	0.171033	-0.16516	2	-0.00234373	40	31.498	-2.82478e-05
2	0	0	1	0	126.201	0.17619	0.175857	-0.164643	2	-0.00238456	40	31.7479	-2.89535e-05
2	0	0	1	0	126.451	0.181186	0.180884	-0.164404	2	-0.00242531	40	31.9977	-2.9738e-05
2	0	0	1	0	126.701	0.186184	0.185821	-0.16395	2	-0.00246599	40	32.2476	-3.04654e-05
2	0	0	1	0	126.951	0.191182	0.190931	-0.163828	2	-0.00250662	40	32.4975	-3.12799e-05
2	0	0	1	0	127.2	0.196179	0.195852	-0.163247	2	-0.00254716	40	32.7474	-3.19723e-05
2	0	0	1	0	127.45	0.201177	0.200823	-0.163031	2	-0.00258761	40	32.9973	-3.27404e-05
2	0	0	1	0	127.7	0.206175	0.205662	-0.162739	2	-0.00262797	40	33.2471	-3.34693e-05
2	0	0	1	0	127.95	0.211172	0.210789	-0.162202	2	-0.00266823	40	33.497	-3.41904e-05
2	0	0	1	0	128.2	0.21617	0.215767	-0.161655	2	-0.00270839	40	33.7469	-3.48797e-05
2	0	0	1	0	128.45	0.221167	0.220881	-0.161325	2	-0.00274845	40	33.9968	-3.56338e-05
2	0	0	1	0	128.7	0.226165	0.225944	-0.160832	2	-0.00278839	40	34.2467	-3.63391e-05
2	0	0	1	0	128.95	0.231163	0.230781	-0.160375	2	-0.00282817	40	34.4965	-3.70114e-05
2	0	0	1	0	129.199	0.23616	0.235743	-0.159598	2	-0.00286785	40	34.7464	-3.76242e-05
2	0	0	1	0	129.449	0.241158	0.24071	-0.159093	2	-0.00290737	40	34.9963	-3.82954e-05
2	0	0	1	0	129.699	0.246156	0.245827	-0.158296	2	-0.00294673	40	35.2462	-3.89135e-05
2	0	0	1	0	129.949	0.251153	0.250815	-0.157526	2	-0.0029859	40	35.4961	-3.95098e-05
2	0	0	1	0	130.199	0.25615	0.255787	-0.15668	2	-0.00302488	40	35.7459	-4.00765e-05
2	0	0	1	0	130.449	0.261148	0.260888	-0.155764	2	-0.00306367	40	35.9958	-4.06371e-05
2	0	0	1	0	130.699	0.266146	0.265755	-0.155073	2	-0.00310226	40	36.2457	-4.12115e-05
2	0	0	1	0	130.949	0.271144	0.27097	-0.154247	2	-0.00314065	40	36.4956	-4.17964e-05
2	0	0	1	0	131.199	0.276141	0.275826	-0.153292	2	-0.00317882	40	36.7455	-4.22818e-05
2	0	0	1	0	131.448	0.281139	0.281007	-0.152407	2	-0.00321676	40	36.9954	-4.28274e-05
2	0	0	1	0	131.698	0.286137	0.285695	-0.151505	2	-0.00325447	40	37.2452	-4.32842e-05
2	0	0	1	0	131.948	0.291134	0.290723	-0.150704	2	-0.00329197	40	37.4951	-4.38132e-05
2	0	0	1	0	132.198	0.296132	0.295876	-0.149598	2	-0.00332924	40	37.745	-4.42625e-05
2	0	0	1	0	132.448	0.301129	0.300655	-0.148691	2	-0.00336628	40	37.9949	-4.47047e-05
2	0	0	1	0	132.698	0.306127	0.305899	-0.147961	2	-0.00340312	40	38.2448	-4.52613e-05
2	0	0	1	0	132.948	0.311125	0.311024	-0.147223	2	-0.00343975	40	38.4946	-4.579e-05
2	0	0	1	0	133.198	0.316122	0.315751	-0.146476	2	-0.00347619	40	38.7445	-4.62499e-05
2	0	0	1	0	133.447	0.32112	0.320693	-0.145518	2	-0.00351243	40	38.9944	-4.66667e-05
2	0	0	1	0	133.697	0.326118	0.325911	-0.144736	2	-0.00354845	40	39.2443	-4.71709e-05
2	0	0	1	0	133.947	0.331115	0.330727	-0.143633	2	-0.00358426	40	39.4942	-4.75033e-05
2	0	0	1	0	134.197	0.336114	0.335977	-0.142669	2	-0.00361981	40	39.7441	-4.79334e-05
2	0	0	1	0	134.447	0.34111	0.340712	-0.141432	2	-0.00365509	40	39.9939	-4.81875e-05
2	0	0	1	0	134.697	0.346108	0.345769	-0.140065	2	-0.00369007	40	40.2438	-4.843e-05
2	0	0	1	0	134.947	0.351106	0.350791	-0.13876	2	-0.0037247	40	40.4937	-4.86758e-05
2	0	0	1	0	135.197	0.356103	0.355878	-0.136837	2	-0.00375892	40	40.7436	-4.86974e-05
2	0	0	1	0	135.447	0.361101	0.360611	-0.134657	2	-0.00379264	40	40.9935	-4.85587e-05
2	0	0	1	0	135.696	0.366099	0.365836	-0.132189	2	-0.00382577	40	41.2433	-4.83596e-05
2	0	0	1	0	135.946	0.371096	0.371051	-0.129244	2	-0.00385823	40	41.4932	-4.79563e-05
2	0	0	1	0	136.196	0.376094	0.375698	-0.125809	2	-0.00388988	40	41.7431	-4.72662e-05
2	0	0	1	0	136.446	0.381091	0.380905	-0.121723	2	-0.00392059	40	41.993	-4.63648e-05
2	0	0	1	0	136.696	0.386089	0.386002	-0.117065	2	-0.00395021	40	42.2429	-4.51872e-05
2	0	0	1	0	136.946	0.391087	0.390645	-0.111548	2	-0.00397855	40	42.4927	-4.35758e-05
2	0	0	1	0	137.196	0.396084	0.395763	-0.105056	2	-0.00400541	40	42.7426	-4.15773e-05
2	0	0	1	0	137.446	0.401082	0.400695	-0.097789	2	-0.00403056	40	42.9925	-3.91836e-05
2	0	0	1	0	137.695	0.40608	0.405841	-0.0897045	2	-0.00405379	40	43.2424	-3.64057e-05
2	0	0	1	0	137.945	0.411077	0.410741	-0.0804985	2	-0.00407485	40	43.4923	-3.3064e-05
2	0	0	1	0	138.195	0.416074	0.415705	-0.0698972	2	-0.00409346	40	43.7421	-2.90566e-05
2	0	0	1	0	138.445	0.421072	0.420793	-0.0587236	2	-0.00410934	40	43.992	-2.47105e-05
2	0	0	1	0	138.695	0.42607	0.425643	-0.0462725	2	-0.00412224	40	44.2419	-1.96956e-05
2	0	0	1	0	138.975	0.431667	0.431508	-0.0302668	2	-0.00413286	41	44.5218	-1.30603e-05
2	0	0	1	0	139.225	0.436665	0.43638	-0.015799	2	-0.00413862	41	44.7717	-6.89438e-06
2	0	0	1	0	139.475	0.441663	0.441471	-0.000517693	2	-0.00414066	41	45.0215	-2.28546e-07
2	1	0	1	0	139.724	0.44666	0.446311	0.0152572	2	-0.00413882	41	0.2249	6.80946e-06
2	1	0	1	0	139.886	0.449934	0.449336	0.0257027	2	-0.00413551	41	0.3868	1.15491e-05