File: Python/Data/GoldElectrode/240313/240313-CVEIS_PostActivation-Fe2Fe3_5mM-HCl1M-2000RPM-Ag_AgCl_BLF8-Au_RDE_01_CV_C15.mpt
EC-Lab ASCII FILE
Nb header lines : 60

Cyclic Voltammetry

Run on channel : 15 (SN 19485)
User :
Electrode connection : standard
Potential control : Ewe
Ewe ctrl range : min = -1.00 V, max = 1.00 V
Ewe,I filtering : <None>
Safety Limits :
	Do not start on E overload
Channel : Floating
Acquisition started on : 03/13/2024 18:03:19.717
Loaded Setting File :  NONE
Saved on :
	File : 240313-CVEIS_PostActivation-Fe2Fe3_5mM-HCl1M-2000RPM-Ag_AgCl_BLF8-Au_RDE_01_CV_C15.mpr
	Directory : C:\Data\mathias\GoldElectrode\
	Host : 192.168.0.1
Device : VMP-300 (SN 0826)
Address : USB
EC-Lab for windows v11.52 (software)
Internet server v11.52 (firmware)
Command interpretor v11.52 (firmware)
Electrode material :
Initial state :
Electrolyte :
Comments :
Cable : special
Electrode surface area : 0.001 cm²
Characteristic mass : 0.001 g
Equivalent Weight : 0.000 g/eq.
Density : 0.000 g/cm3
Volume (V) : 0.001 cm³
Record EIS quality indicators
Cycle Definition : Charge/Discharge alternance
Ei (V)              0.000
vs.                 Eoc
dE/dt               20.000
dE/dt unit          mV/s
E1 (V)              0.700
vs.                 Ref
Step percent        50
N                   10
E range min (V)     -1.000
E range max (V)     1.000
I Range             Auto
I Range min         Unset
I Range max         Unset
I Range init        Unset
Bandwidth           8
E2 (V)              0.000
vs.                 Ref
nc cycles           1
Reverse Scan        1
Ef (V)              0.000
vs.                 Eoc

mode	ox/red	error	control changes	counter inc.	time/s	control/V	Ewe/V	<I>/mA	cycle number	(Q-Qo)/C	I Range	step time/s	P/W
2	1	0	1	0	0.000000000000000E+000	0.441588	0.440705	0.00675576	1	0.0000000E+000	42	0.000000000000000E+000	2.9773e-06
2	1	0	1	0	0.2687	0.44696	0.446681	0.0248238	1	4.2289e-06	41	0.2549	1.10883e-05
2	1	0	1	0	0.5186	0.451958	0.451976	0.0415026	1	1.25313e-05	41	0.5048	1.87582e-05
2	1	0	1	0	0.7684	0.456955	0.456157	0.0582443	1	2.50085e-05	41	0.7546	2.65686e-05
2	1	0	1	0	1.0183	0.461953	0.461716	0.0750855	1	4.16869e-05	41	1.0045	3.46682e-05
2	1	0	1	0	1.2682	0.466951	0.466578	0.0918897	1	6.25601e-05	41	1.2544	4.28738e-05
2	1	0	1	0	1.5181	0.471948	0.471376	0.108623	1	8.76365e-05	41	1.5043	5.1202e-05
2	1	0	1	0	1.798	0.477546	0.477335	0.126697	1	0.00012064	40	1.7842	6.04771e-05
2	1	0	1	0	2.0478	0.482543	0.482452	0.142994	1	0.000154446	40	2.034	6.89879e-05
2	1	0	1	0	2.2977	0.487541	0.487334	0.15915	1	0.000192319	40	2.2839	7.75591e-05
2	1	0	1	0	2.5476	0.492538	0.492307	0.174742	1	0.000234163	40	2.5338	8.60269e-05
2	1	0	1	0	2.7975	0.497536	0.497184	0.19035	1	0.00027992	40	2.7837	9.46389e-05
2	1	0	1	0	3.0474	0.502534	0.502296	0.205345	1	0.000329486	40	3.0336	0.000103144
2	1	0	1	0	3.2972	0.507531	0.507312	0.220141	1	0.000382746	40	3.2834	0.00011168
2	1	0	1	0	3.5471	0.512529	0.512219	0.234402	1	0.000439647	40	3.5333	0.000120065
2	1	0	1	0	3.797	0.517527	0.517053	0.248711	1	0.000500134	40	3.7832	0.000128597
2	1	0	1	0	4.0469	0.522524	0.522122	0.262344	1	0.000564085	40	4.0331	0.000136975
2	1	0	1	0	4.2968	0.527522	0.526945	0.275653	1	0.000631401	40	4.283	0.000145254
2	1	0	1	0	4.5466	0.532519	0.532181	0.288757	1	0.000701964	40	4.5328	0.000153671
2	1	0	1	0	4.7965	0.537517	0.537291	0.301224	1	0.000775748	40	4.7827	0.000161845
2	1	0	1	0	5.0464	0.542515	0.542082	0.313384	1	0.00085268	40	5.0326	0.00016988
2	1	0	1	0	5.2963	0.547512	0.54714	0.325536	1	0.000932604	40	5.2825	0.000178113
2	1	0	1	0	5.5462	0.55251	0.552217	0.3373	1	0.00101551	40	5.5324	0.000186263
2	1	0	1	0	5.796	0.557507	0.557114	0.348985	1	0.00110132	40	5.7822	0.000194425
2	1	0	1	0	6.0459	0.562505	0.562176	0.360431	1	0.00119005	40	6.0321	0.000202625
2	1	0	1	0	6.2958	0.567503	0.567073	0.371469	1	0.00128157	40	6.282	0.00021065
2	1	0	1	0	6.5457	0.5725	0.57224	0.381909	1	0.00137579	40	6.5319	0.000218544
2	1	0	1	0	6.7956	0.577498	0.5771	0.393212	1	0.00147272	40	6.7818	0.000226923
2	1	0	1	0	7.0455	0.582496	0.582166	0.404055	1	0.00157243	40	7.0317	0.000235227
2	1	0	1	0	7.2953	0.587493	0.587163	0.413484	1	0.00167453	40	7.2815	0.000242782
2	1	0	1	0	7.5452	0.592491	0.592064	0.423665	1	0.00177922	40	7.5314	0.000250837
2	1	0	1	0	7.7951	0.597489	0.597033	0.434096	1	0.00188645	40	7.7813	0.00025917
2	1	0	1	0	8.045	0.602486	0.602337	0.443384	1	0.00199616	40	8.0312	0.000267067
2	1	0	1	0	8.2949	0.607484	0.607253	0.453247	1	0.00210823	40	8.2811	0.000275235
2	1	0	1	0	8.5448	0.612483	0.612253	0.462426	1	0.00222271	40	8.531	0.000283122
2	1	0	1	0	8.7946	0.617479	0.61716	0.471984	1	0.00233948	40	8.7808	0.00029129
2	1	0	1	0	9.0445	0.622477	0.622027	0.482156	1	0.00245871	40	9.0307	0.000299914
2	1	0	1	0	9.2944	0.627474	0.627342	0.490444	1	0.00258024	40	9.2806	0.000307676
2	1	0	1	0	9.5443	0.632472	0.632184	0.499303	1	0.00270405	40	9.5305	0.000315651
2	1	0	1	0	9.7942	0.63747	0.63717	0.508119	1	0.00282995	40	9.7804	0.000323758
2	1	0	1	0	10.044	0.642467	0.642209	0.516325	1	0.00295802	40	10.0302	0.000331589
2	1	0	1	0	10.2939	0.647465	0.647286	0.52474	1	0.00308821	40	10.2801	0.000339657
2	1	0	1	0	10.5438	0.652462	0.652093	0.534442	1	0.00322054	40	10.53	0.000348506
2	1	0	1	0	10.7937	0.65746	0.657058	0.54331	1	0.00335526	40	10.7799	0.000356986
2	1	0	1	0	11.0436	0.662458	0.662103	0.551137	1	0.00349192	40	11.0298	0.000364909
2	1	0	1	0	11.2934	0.667455	0.667032	0.560929	1	0.00363079	40	11.2796	0.000374157
2	1	0	1	0	11.5433	0.672453	0.672204	0.569583	1	0.00377223	40	11.5295	0.000382876
2	1	0	1	0	11.7932	0.677451	0.677101	0.576159	1	0.00391547	40	11.7794	0.000390118
2	1	0	1	0	12.0431	0.682448	0.682043	0.584122	1	0.00406053	40	12.0293	0.000398397
2	1	0	1	0	12.293	0.687446	0.687171	0.592316	1	0.00420748	40	12.2792	0.000407022
2	1	0	1	0	12.5428	0.692443	0.692192	0.599891	1	0.00435653	40	12.529	0.00041524
2	1	0	1	0	12.7927	0.697441	0.697041	0.608926	1	0.00450763	40	12.7789	0.000424446
2	1	0	1	0	13.0108	0.698241	0.697794	0.612145	1	0.00464103	40	12.997	0.000427151
2	1	0	1	0	13.2607	0.693243	0.692585	0.610645	1	0.00479378	40	13.2469	0.000422923
2	1	0	1	0	13.5106	0.688245	0.687983	0.608345	1	0.00494613	40	13.4968	0.000418531
2	1	0	1	0	13.7604	0.683248	0.682876	0.607814	1	0.00509801	40	13.7466	0.000415062
2	1	0	1	0	14.0103	0.67825	0.677941	0.604952	1	0.00524937	40	13.9965	0.000410122
2	1	0	1	0	14.2602	0.673253	0.673009	0.599342	1	0.00539991	40	14.2464	0.000403362
2	1	0	1	0	14.5101	0.668255	0.667694	0.597168	1	0.00554938	40	14.4963	0.000398725
2	1	0	1	0	14.76	0.663257	0.662961	0.595713	1	0.00569821	40	14.7462	0.000394934
2	1	0	1	0	15.0098	0.65826	0.657985	0.590392	1	0.00584613	40	14.996	0.000388469
2	1	0	1	0	15.2597	0.653262	0.652747	0.585412	1	0.00599302	40	15.2459	0.000382125
2	1	0	1	0	15.5096	0.648264	0.648003	0.582232	1	0.00613883	40	15.4958	0.000377288
2	1	0	1	0	15.7595	0.643267	0.642966	0.578562	1	0.00628377	40	15.7457	0.000371996
2	1	0	1	0	16.0094	0.638269	0.637962	0.574204	1	0.00642773	40	15.9956	0.00036632
2	1	0	1	0	16.2592	0.633272	0.632862	0.569287	1	0.00657052	40	16.2454	0.00036028
2	1	0	1	0	16.5091	0.628274	0.627821	0.564279	1	0.00671215	40	16.4953	0.000354266
2	1	0	1	0	16.759	0.623276	0.62293	0.559128	1	0.0068525	40	16.7452	0.000348298
2	1	0	1	0	17.0089	0.618279	0.617796	0.554596	1	0.00699163	40	16.9951	0.000342627
2	1	0	1	0	17.2588	0.613281	0.613001	0.549488	1	0.00712954	40	17.245	0.000336837
2	1	0	1	0	17.5086	0.608285	0.608092	0.54257	1	0.00726578	40	17.4948	0.000329933
2	1	0	1	0	17.7585	0.603286	0.602987	0.536751	1	0.00740064	40	17.7447	0.000323654
2	1	0	1	0	18.0084	0.598288	0.597877	0.53129	1	0.00753404	40	17.9946	0.000317646
2	1	0	1	0	18.2583	0.593291	0.593013	0.524997	1	0.00766595	40	18.2445	0.00031133
2	1	0	1	0	18.5082	0.588293	0.588054	0.517558	1	0.00779619	40	18.4944	0.000304352
2	1	0	1	0	18.7581	0.583295	0.582933	0.50918	1	0.00792446	40	18.7443	0.000296818
2	1	0	1	0	19.0079	0.578298	0.577855	0.501005	1	0.00805056	40	18.9941	0.000289509
2	1	0	1	0	19.2578	0.5733	0.572945	0.49298	1	0.00817463	40	19.244	0.000282451
2	1	0	1	0	19.5077	0.568302	0.568126	0.484546	1	0.0082967	40	19.4939	0.000275283
2	1	0	1	0	19.7576	0.563305	0.563037	0.473415	1	0.00841623	40	19.7438	0.00026655
2	1	0	1	0	20.0075	0.558307	0.557999	0.464157	1	0.00853339	40	19.9937	0.000259
2	1	0	1	0	20.2574	0.553308	0.552796	0.452385	1	0.0086479	40	20.2436	0.000250077
2	1	0	1	0	20.5072	0.548312	0.547763	0.44045	1	0.00875929	40	20.4934	0.000241262
2	1	0	1	0	20.7571	0.543314	0.543262	0.42787	1	0.0088677	40	20.7433	0.000232445
2	1	0	1	0	21.007	0.538317	0.53783	0.414112	1	0.00897279	40	20.9932	0.000222722
2	1	0	1	0	21.2569	0.533319	0.533025	0.399757	1	0.00907434	40	21.2431	0.00021308
2	1	0	1	0	21.5068	0.528321	0.527852	0.384464	1	0.00917218	40	21.493	0.00020294
2	1	0	1	0	21.7566	0.523324	0.523027	0.368367	1	0.00926614	40	21.7428	0.000192666
2	1	0	1	0	22.0065	0.518326	0.517824	0.351044	1	0.00935591	40	21.9927	0.000181779
2	1	0	1	0	22.2564	0.513329	0.512927	0.332726	1	0.00944118	40	22.2426	0.000170664
2	1	0	1	0	22.5063	0.508331	0.50796	0.313932	1	0.00952185	40	22.4925	0.000159465
2	1	0	1	0	22.7562	0.503333	0.502914	0.294227	1	0.00959771	40	22.7424	0.000147971
2	1	0	1	0	23.006	0.498336	0.497961	0.273205	1	0.00966845	40	22.9922	0.000136045
2	1	0	1	0	23.2559	0.493338	0.492948	0.251567	1	0.00973388	40	23.2421	0.000124009
2	1	0	1	0	23.5058	0.48834	0.488208	0.229248	1	0.00979379	40	23.492	0.000111921
2	1	0	1	0	23.7557	0.483343	0.483041	0.205868	1	0.009848	40	23.7419	9.94426e-05
2	1	0	1	0	24.0056	0.478345	0.477962	0.182421	1	0.00989634	40	23.9918	8.71902e-05
2	1	0	1	0	24.2554	0.473348	0.473086	0.158274	1	0.0099387	40	24.2416	7.48771e-05
2	1	0	1	0	24.5053	0.46835	0.467968	0.133719	1	0.00997498	40	24.4915	6.25762e-05
2	1	0	1	0	24.7552	0.463352	0.463183	0.109217	1	0.0100051	40	24.7414	5.05873e-05
2	1	0	1	0	25.0051	0.458355	0.458056	0.0847729	1	0.0100292	40	24.9913	3.88307e-05
2	1	0	1	0	25.255	0.453357	0.45308	0.0605791	1	0.0100471	40	25.2412	2.74472e-05
2	1	0	1	0	25.5348	0.44776	0.447482	0.032969	1	0.0100601	41	25.521	1.4753e-05
2	1	0	1	0	25.7847	0.442762	0.442627	0.00972868	1	0.0100654	41	25.7709	4.30617e-06
2	0	0	1	0	26.0346	0.437765	0.43716	-0.0128199	1	0.010065	41	0.1249	-5.60432e-06
2	0	0	1	0	26.2845	0.432767	0.432516	-0.0345503	1	0.0100591	41	0.3748	-1.49436e-05
2	0	0	1	0	26.5344	0.427769	0.427717	-0.0553425	1	0.0100478	41	0.6247	-2.36709e-05
2	0	0	1	0	26.7842	0.422772	0.422438	-0.075238	1	0.0100314	41	0.8745	-3.17834e-05
2	0	0	1	0	27.0341	0.417774	0.41731	-0.0941765	1	0.0100102	41	1.1244	-3.93008e-05
2	0	0	1	0	27.314	0.412177	0.411989	-0.113076	1	0.00998105	40	1.4043	-4.65859e-05
2	0	0	1	0	27.5639	0.407179	0.406876	-0.129691	1	0.00995044	40	1.6542	-5.27683e-05
2	0	0	1	0	27.8138	0.402181	0.401729	-0.145719	1	0.00991573	40	1.9041	-5.85397e-05
2	0	0	1	0	28.0636	0.397184	0.396828	-0.160715	1	0.00987717	40	2.1539	-6.37762e-05
2	0	0	1	0	28.3135	0.392186	0.392067	-0.174682	1	0.00983501	40	2.4038	-6.84868e-05
2	0	0	1	0	28.5634	0.387189	0.386804	-0.18707	1	0.00978953	40	2.6537	-7.23594e-05
2	0	0	1	0	28.8133	0.382191	0.381882	-0.199224	1	0.00974093	40	2.9036	-7.60801e-05
2	0	0	1	0	29.0632	0.377193	0.376824	-0.210785	1	0.00968941	40	3.1535	-7.94291e-05
2	0	0	1	0	29.313	0.372196	0.371932	-0.221197	1	0.00963515	40	3.4033	-8.22704e-05
2	0	0	1	0	29.5629	0.367198	0.366884	-0.231102	1	0.0095783	40	3.6532	-8.47877e-05
2	0	0	1	0	29.8128	0.3622	0.361934	-0.240319	1	0.00951906	40	3.9031	-8.69797e-05
2	0	0	1	0	30.0627	0.357203	0.356914	-0.248872	1	0.00945763	40	4.153	-8.88257e-05
2	0	0	1	0	30.3126	0.352205	0.351891	-0.256977	1	0.00939408	40	4.4029	-9.0428e-05
2	0	0	1	0	30.5624	0.347209	0.346851	-0.264594	1	0.00932863	40	4.6527	-9.17749e-05
2	0	0	1	0	30.8123	0.34221	0.341834	-0.271249	1	0.0092613	40	4.9026	-9.27221e-05
2	0	0	1	0	31.0622	0.337212	0.336883	-0.277891	1	0.00919234	40	5.1525	-9.36166e-05
2	0	0	1	0	31.3121	0.332215	0.33211	-0.283582	1	0.00912178	40	5.4024	-9.41804e-05
2	0	0	1	0	31.562	0.327217	0.326936	-0.28954	1	0.00904987	40	5.6523	-9.4661e-05
2	0	0	1	0	31.8119	0.322219	0.322084	-0.294477	1	0.0089766	40	5.9022	-9.48464e-05
2	0	0	1	0	32.0617	0.317222	0.31711	-0.299566	1	0.00890205	40	6.152	-9.49953e-05
2	0	0	1	0	32.3116	0.312224	0.311982	-0.304436	1	0.00882626	40	6.4019	-9.49786e-05
2	0	0	1	0	32.5615	0.307227	0.307106	-0.308694	1	0.00874932	40	6.6518	-9.48019e-05
2	0	0	1	0	32.8114	0.302229	0.301654	-0.312796	1	0.00867137	40	6.9017	-9.43563e-05
2	0	0	1	0	33.0613	0.297231	0.296999	-0.315777	1	0.0085925	40	7.1516	-9.37854e-05
2	0	0	1	0	33.3112	0.292232	0.291936	-0.319342	1	0.00851278	40	7.4015	-9.32273e-05
2	0	0	1	0	33.561	0.287236	0.287043	-0.324317	1	0.00843212	40	7.6513	-9.30929e-05
2	0	0	1	0	33.8109	0.282238	0.281841	-0.327963	1	0.00835043	40	7.9012	-9.24333e-05
2	0	0	1	0	34.0608	0.277241	0.276963	-0.330156	1	0.00826792	40	8.1511	-9.14408e-05
2	0	0	1	0	34.3107	0.272243	0.27197	-0.33297	1	0.00818476	40	8.401	-9.05578e-05
2	0	0	1	0	34.5606	0.267245	0.266888	-0.335463	1	0.00810087	40	8.6509	-8.95308e-05
2	0	0	1	0	34.8104	0.262248	0.261984	-0.340313	1	0.00801616	40	8.9007	-8.91567e-05
2	0	0	1	0	35.0603	0.25725	0.257206	-0.341833	1	0.00793078	40	9.1506	-8.79216e-05
2	0	0	1	0	35.3102	0.252253	0.252095	-0.344389	1	0.00784473	40	9.4005	-8.68187e-05
2	0	0	1	0	35.5601	0.247255	0.246867	-0.348027	1	0.00775783	40	9.6504	-8.59166e-05
2	0	0	1	0	35.81	0.242257	0.242133	-0.350484	1	0.00767021	40	9.9003	-8.48635e-05
2	0	0	1	0	36.0598	0.23726	0.236918	-0.352213	1	0.00758208	40	10.1501	-8.34456e-05
2	0	0	1	0	36.3097	0.232262	0.231861	-0.354735	1	0.00749348	40	10.4	-8.22493e-05
2	0	0	1	0	36.5596	0.227265	0.226942	-0.357188	1	0.00740432	40	10.6499	-8.1061e-05
2	0	0	1	0	36.8095	0.222267	0.222117	-0.360269	1	0.0073144	40	10.8998	-8.0022e-05
2	0	0	1	0	37.0594	0.217269	0.217128	-0.361094	1	0.00722391	40	11.1497	-7.84037e-05
2	0	0	1	0	37.3092	0.212272	0.211825	-0.364124	1	0.00713294	40	11.3995	-7.71304e-05
2	0	0	1	0	37.5591	0.207274	0.207168	-0.365521	1	0.00704153	40	11.6494	-7.57242e-05
2	0	0	1	0	37.809	0.202276	0.202191	-0.368104	1	0.00694952	40	11.8993	-7.44273e-05
2	0	0	1	0	38.0589	0.197279	0.197036	-0.36916	1	0.00685705	40	12.1492	-7.27378e-05
2	0	0	1	0	38.3088	0.192281	0.191929	-0.371719	1	0.00676402	40	12.3991	-7.13438e-05
2	0	0	1	0	38.5586	0.187285	0.187306	-0.373621	1	0.00667064	40	12.6489	-6.99816e-05
2	0	0	1	0	38.8085	0.182286	0.181964	-0.375873	1	0.00657661	40	12.8988	-6.83953e-05
2	0	0	1	0	39.0584	0.177288	0.177006	-0.378428	1	0.00648205	40	13.1487	-6.69838e-05
2	0	0	1	0	39.3083	0.172291	0.172006	-0.37888	1	0.00638698	40	13.3986	-6.51695e-05
2	0	0	1	0	39.5582	0.167293	0.166917	-0.381396	1	0.00629159	40	13.6485	-6.36617e-05
2	0	0	1	0	39.8081	0.162295	0.16219	-0.382148	1	0.00619602	40	13.8984	-6.19804e-05
2	0	0	1	0	40.0579	0.157298	0.157146	-0.383588	1	0.00610005	40	14.1482	-6.02795e-05
2	0	0	1	0	40.3078	0.1523	0.151956	-0.385359	1	0.00600364	40	14.3981	-5.85574e-05
2	0	0	1	0	40.5577	0.147303	0.147196	-0.386761	1	0.00590671	40	14.648	-5.69296e-05
2	0	0	1	0	40.8076	0.142305	0.142129	-0.387565	1	0.00580984	40	14.8979	-5.50844e-05
2	0	0	1	0	41.0575	0.137307	0.136955	-0.388918	1	0.00571247	40	15.1478	-5.32644e-05
2	0	0	1	0	41.3074	0.132308	0.132036	-0.389436	1	0.00561504	40	15.3977	-5.14195e-05
2	0	0	1	0	41.5572	0.127312	0.127072	-0.390898	1	0.00551731	40	15.6475	-4.9672e-05
2	0	0	1	0	41.8071	0.122314	0.121986	-0.390942	1	0.0054193	40	15.8974	-4.76896e-05
2	0	0	1	0	42.057	0.117317	0.117018	-0.392415	1	0.00532118	40	16.1473	-4.59197e-05
2	0	0	1	0	42.3069	0.112319	0.111975	-0.394366	1	0.00522272	40	16.3972	-4.41591e-05
2	0	0	1	0	42.5568	0.107322	0.107079	-0.395246	1	0.00512375	40	16.6471	-4.23227e-05
2	0	0	1	0	42.8066	0.102324	0.102045	-0.395598	1	0.0050248	40	16.8969	-4.0369e-05
2	0	0	1	0	43.0565	0.0973263	0.0970133	-0.395861	1	0.00492571	40	17.1468	-3.84038e-05
2	0	0	1	0	43.3064	0.0923286	0.091958	-0.397748	1	0.00482644	40	17.3967	-3.65761e-05
2	0	0	1	0	43.5563	0.087331	0.0869938	-0.397242	1	0.0047268	40	17.6466	-3.45576e-05
2	0	0	1	0	43.8062	0.0823334	0.0821246	-0.398651	1	0.0046272	40	17.8965	-3.27391e-05
2	0	0	1	0	44.056	0.0773358	0.0768279	-0.398168	1	0.00452737	40	18.1463	-3.05904e-05
2	0	0	1	0	44.3059	0.0723381	0.0720205	-0.398672	1	0.00442762	40	18.3962	-2.87125e-05
2	0	0	1	0	44.5558	0.0673405	0.0671682	-0.400093	1	0.00432755	40	18.6461	-2.68735e-05
2	0	0	1	0	44.8057	0.0623429	0.0621239	-0.399921	1	0.00422735	40	18.896	-2.48446e-05
2	0	0	1	0	45.0556	0.0573453	0.0569072	-0.400779	1	0.00412703	40	19.1459	-2.28072e-05
2	0	0	1	0	45.3054	0.0523485	0.0521217	-0.402736	1	0.0040263	40	19.3957	-2.09913e-05
2	0	0	1	0	45.5553	0.04735	0.0471311	-0.40104	1	0.00392583	40	19.6456	-1.89014e-05
2	0	0	1	0	45.8052	0.0423524	0.0421932	-0.401796	1	0.00382523	40	19.8955	-1.6953e-05
2	0	0	1	0	46.0551	0.0373548	0.0373099	-0.403107	1	0.00372451	40	20.1454	-1.50399e-05
2	0	0	1	0	46.305	0.0323571	0.0320211	-0.402365	1	0.00362376	40	20.3953	-1.28842e-05
2	0	0	1	0	46.5549	0.0273595	0.0269045	-0.402234	1	0.00352312	40	20.6452	-1.08219e-05
2	0	0	1	0	46.8047	0.0223619	0.0220289	-0.403604	1	0.00342212	40	20.895	-8.89095e-06
2	0	0	1	0	47.0546	0.0173643	0.0170142	-0.404523	1	0.00332105	40	21.1449	-6.88262e-06
2	0	0	1	0	47.3045	0.0123666	0.0124482	-0.405643	1	0.00321956	40	21.3948	-5.04954e-06
2	0	0	1	0	47.5544	0.00736902	0.00723668	-0.404843	1	0.00311812	40	21.6447	-2.92972e-06
2	0	0	1	0	47.8043	0.00237139	0.00184723	-0.405253	1	0.00301682	40	21.8946	-7.48594e-07
2	0	0	1	1	48.012	0.00177034	0.00126085	-0.406122	1	0.00293256	40	22.1023	-5.12061e-07
2	0	0	1	1	48.2619	0.0067693	0.00634796	-0.404986	1	0.00283147	40	22.3522	-2.57083e-06
2	0	0	1	1	48.5118	0.0117669	0.0113864	-0.40432	1	0.00273053	40	22.6021	-4.60377e-06
2	0	0	1	1	48.7617	0.0167646	0.0161997	-0.403059	1	0.00262974	40	22.852	-6.52944e-06
2	0	0	1	1	49.0116	0.0217622	0.0214797	-0.403241	1	0.00252926	40	23.1019	-8.66151e-06
2	0	0	1	1	49.2615	0.0267598	0.0262803	-0.402854	1	0.00242879	40	23.3518	-1.05871e-05
2	0	0	1	1	49.5113	0.0317574	0.0314365	-0.400584	1	0.00232879	40	23.6016	-1.2593e-05
2	0	0	1	1	49.7612	0.0367551	0.0362445	-0.399468	1	0.00222907	40	23.8515	-1.44785e-05
2	0	0	1	1	50.0111	0.0417527	0.0414886	-0.399224	1	0.00212949	40	24.1014	-1.65632e-05
2	0	0	1	1	50.261	0.0467503	0.0464907	-0.39842	1	0.00203001	40	24.3513	-1.85228e-05
2	0	0	1	1	50.5109	0.0517479	0.0516963	-0.398261	1	0.00193043	40	24.6012	-2.05886e-05
2	0	0	1	1	50.7608	0.0567473	0.0565173	-0.396743	1	0.0018314	40	24.8511	-2.24228e-05
2	0	0	1	1	51.0106	0.0617432	0.0616182	-0.395279	1	0.00173266	40	25.1009	-2.43564e-05
2	0	0	1	1	51.2605	0.0667408	0.0664911	-0.393881	1	0.00163419	40	25.3508	-2.61896e-05
2	0	0	1	1	51.5104	0.0717384	0.0715166	-0.394775	1	0.00153585	40	25.6007	-2.82329e-05
2	0	0	1	1	51.7603	0.0767361	0.076279	-0.392674	1	0.00143768	40	25.8506	-2.99528e-05
2	0	0	1	1	52.0102	0.0817341	0.0813823	-0.390835	1	0.00134002	40	26.1005	-3.18071e-05
2	0	0	1	1	52.26	0.0867313	0.0864624	-0.389767	1	0.00124261	40	26.3503	-3.37002e-05
2	0	0	1	1	52.5099	0.0917289	0.0912348	-0.388866	1	0.00114544	40	26.6002	-3.54781e-05
2	0	0	1	1	52.7598	0.0967266	0.0964205	-0.386567	1	0.00104865	40	26.8501	-3.7273e-05
2	0	0	1	1	53.0097	0.101724	0.101406	-0.385548	1	0.000952333	40	27.1	-3.9097e-05
2	0	0	1	1	53.2596	0.106722	0.106362	-0.384113	1	0.000856287	40	27.3499	-4.0855e-05
2	0	0	1	1	53.5094	0.111719	0.111497	-0.383133	1	0.000760658	40	27.5997	-4.27181e-05
2	0	0	1	1	53.7593	0.116717	0.116392	-0.382531	1	0.000665036	40	27.8496	-4.45236e-05
2	0	0	1	1	54.0092	0.121715	0.121339	-0.379894	1	0.000569935	40	28.0995	-4.60962e-05
2	0	0	1	1	54.2591	0.126712	0.126213	-0.378318	1	0.000475368	40	28.3494	-4.77484e-05
2	0	0	1	1	54.509	0.13171	0.1314	-0.377988	1	0.000380962	40	28.5993	-4.96678e-05
2	0	0	1	1	54.7588	0.136707	0.136383	-0.374814	1	0.000287218	40	28.8491	-5.11183e-05
2	0	0	1	1	55.0087	0.141705	0.141295	-0.373613	1	0.000193838	40	29.099	-5.27897e-05
2	0	0	1	1	55.2586	0.146703	0.146378	-0.371428	1	0.000100865	40	29.3489	-5.4369e-05
2	0	0	1	1	55.5085	0.1517	0.151335	-0.368324	1	8.49674e-06	40	29.5988	-5.57404e-05
2	0	0	1	1	55.7584	0.156698	0.15615	-0.366409	1	-8.31384e-05	40	29.8487	-5.7215e-05
2	0	0	1	1	56.0082	0.161694	0.161223	-0.364096	1	-0.0001743	40	30.0985	-5.87007e-05
2	0	0	1	1	56.2581	0.166693	0.166298	-0.36224	1	-0.000264931	40	30.3484	-6.02398e-05
2	0	0	1	1	56.508	0.171691	0.171539	-0.360182	1	-0.000355081	40	30.5983	-6.17852e-05
2	0	0	1	1	56.7579	0.176689	0.176419	-0.357112	1	-0.000444536	40	30.8482	-6.30015e-05
2	0	0	1	1	57.0078	0.181686	0.181249	-0.35591	1	-0.000533469	40	31.0981	-6.45085e-05
2	0	0	1	1	57.2577	0.186684	0.186552	-0.353157	1	-0.000621818	40	31.348	-6.58822e-05
2	0	0	1	1	57.5075	0.191681	0.191456	-0.349607	1	-0.00070944	40	31.5978	-6.69342e-05
2	0	0	1	1	57.7574	0.196679	0.196392	-0.346897	1	-0.000796338	40	31.8477	-6.8128e-05
2	0	0	1	1	58.0073	0.201677	0.201356	-0.344441	1	-0.000882587	40	32.0976	-6.93553e-05
2	0	0	1	1	58.2572	0.206674	0.20645	-0.34163	1	-0.000968117	40	32.3475	-7.05295e-05
2	0	0	1	1	58.5071	0.211672	0.211356	-0.339244	1	-0.001053	40	32.5974	-7.17014e-05
2	0	0	1	1	58.757	0.216671	0.21625	-0.335694	1	-0.00113708	40	32.8473	-7.25937e-05
2	0	0	1	1	59.0068	0.221667	0.221169	-0.33223	1	-0.00122029	40	33.0971	-7.3479e-05
2	0	0	1	1	59.2567	0.226665	0.226127	-0.329348	1	-0.0013028	40	33.347	-7.44746e-05
2	0	0	1	1	59.5066	0.231662	0.231263	-0.32649	1	-0.00138455	40	33.5969	-7.5505e-05
2	0	0	1	1	59.7565	0.23666	0.236275	-0.323244	1	-0.00146548	40	33.8468	-7.63744e-05
2	0	0	1	1	60.0064	0.241658	0.241376	-0.319999	1	-0.00154559	40	34.0967	-7.724e-05
2	0	0	1	1	60.2562	0.246655	0.246365	-0.316301	1	-0.00162488	40	34.3465	-7.79257e-05
2	0	0	1	1	60.5061	0.251653	0.251332	-0.313003	1	-0.00170335	40	34.5964	-7.86676e-05
2	0	0	1	1	60.756	0.256651	0.256403	-0.309325	1	-0.00178087	40	34.8463	-7.93119e-05
2	0	0	1	1	61.0059	0.261648	0.261221	-0.305891	1	-0.00185744	40	35.0962	-7.99052e-05
2	0	0	1	1	61.2558	0.266646	0.266179	-0.302273	1	-0.00193315	40	35.3461	-8.04589e-05
2	0	0	1	1	61.5056	0.271643	0.271417	-0.298975	1	-0.00200799	40	35.5959	-8.1147e-05
2	0	0	1	1	61.7555	0.276641	0.276301	-0.296484	1	-0.00208201	40	35.8458	-8.19189e-05
2	0	0	1	1	62.0054	0.281639	0.281365	-0.293082	1	-0.00215533	40	36.0957	-8.24629e-05
2	0	0	1	1	62.2553	0.286636	0.28639	-0.290444	1	-0.0022279	40	36.3456	-8.31804e-05
2	0	0	1	1	62.5052	0.291634	0.291271	-0.287443	1	-0.00229983	40	36.5955	-8.3724e-05
2	0	0	1	1	62.755	0.296631	0.296209	-0.285186	1	-0.00237104	40	36.8453	-8.44745e-05
2	0	0	1	1	63.0049	0.301629	0.30117	-0.282125	1	-0.00244158	40	37.0952	-8.49675e-05
2	0	0	1	1	63.2548	0.306627	0.306304	-0.27971	1	-0.00251142	40	37.3451	-8.56762e-05
2	0	0	1	1	63.5047	0.311624	0.31131	-0.276525	1	-0.0025806	40	37.595	-8.60848e-05
2	0	0	1	1	63.7546	0.316622	0.31624	-0.274163	1	-0.00264917	40	37.8449	-8.67014e-05
2	0	0	1	1	64.0044	0.321618	0.321224	-0.270732	1	-0.00271693	40	38.0947	-8.69658e-05
2	0	0	1	1	64.2543	0.326617	0.326314	-0.267382	1	-0.00278384	40	38.3446	-8.72505e-05
2	0	0	1	1	64.5042	0.331615	0.331564	-0.262734	1	-0.00284973	40	38.5945	-8.7113e-05
2	0	0	1	1	64.7541	0.336613	0.336162	-0.258161	1	-0.00291453	40	38.8444	-8.67839e-05
2	0	0	1	1	65.004	0.34161	0.341331	-0.253524	1	-0.00297815	40	39.0943	-8.65356e-05
2	0	0	1	1	65.2539	0.346608	0.346166	-0.247898	1	-0.00304045	40	39.3442	-8.58136e-05
2	0	0	1	1	65.5037	0.351605	0.35137	-0.241628	1	-0.00310129	40	39.594	-8.49007e-05
2	0	0	1	1	65.7536	0.356603	0.356199	-0.233824	1	-0.00316034	40	39.8439	-8.3288e-05
2	0	0	1	1	66.0035	0.361601	0.361349	-0.226091	1	-0.00321752	40	40.0938	-8.16977e-05
2	0	0	1	1	66.2534	0.366598	0.366102	-0.216388	1	-0.00327252	40	40.3437	-7.922e-05
2	0	0	1	1	66.5033	0.371596	0.371157	-0.206825	1	-0.00332515	40	40.5936	-7.67644e-05
2	0	0	1	1	66.7532	0.376594	0.376396	-0.196117	1	-0.00337523	40	40.8435	-7.38177e-05
2	0	0	1	1	67.003	0.381591	0.381493	-0.184566	1	-0.00342251	40	41.0933	-7.04107e-05
2	0	0	1	1	67.2529	0.386589	0.386273	-0.172752	1	-0.00346689	40	41.3432	-6.67293e-05
2	0	0	1	1	67.5028	0.391586	0.391298	-0.159881	1	-0.00350816	40	41.5931	-6.25612e-05
2	0	0	1	1	67.7527	0.396584	0.396245	-0.146851	1	-0.00354619	40	41.843	-5.81889e-05
2	0	0	1	1	68.0026	0.401582	0.401144	-0.132019	1	-0.00358071	40	42.0929	-5.29586e-05
2	0	0	1	1	68.2524	0.406579	0.406394	-0.11671	1	-0.00361154	40	42.3427	-4.74303e-05
2	0	0	1	1	68.5023	0.411577	0.411285	-0.101192	1	-0.0036385	40	42.5926	-4.16187e-05
2	0	0	1	1	68.7522	0.416575	0.416012	-0.0839853	1	-0.00366142	40	42.8425	-3.49389e-05
2	0	0	1	1	69.0021	0.421572	0.421179	-0.0668325	1	-0.00368006	40	43.0924	-2.81485e-05
2	0	0	1	1	69.252	0.42657	0.42614	-0.0487248	1	-0.00369427	40	43.3423	-2.07636e-05
2	0	0	1	1	69.5318	0.432167	0.431836	-0.0267879	1	-0.00370476	41	43.6221	-1.1568e-05
2	0	0	1	1	69.7817	0.437165	0.436696	-0.00718801	1	-0.003709	41	43.872	-3.13898e-06
2	1	0	1	1	70.0066	0.441663	0.441714	0.0108264	2	-0.00370858	41	0.1012	4.78218e-06
2	1	0	1	1	70.2565	0.44666	0.446389	0.0314599	2	-0.00370327	41	0.3511	1.40433e-05
2	1	0	1	1	70.5064	0.451658	0.451179	0.0524098	2	-0.00369279	41	0.601	2.36462e-05
2	1	0	1	1	70.7562	0.456655	0.456211	0.0736885	2	-0.00367702	41	0.8508	3.36175e-05
2	1	0	1	1	71.0061	0.461653	0.461155	0.0950989	2	-0.00365591	41	1.1007	4.38553e-05
2	1	0	1	1	71.286	0.46725	0.467015	0.11844	2	-0.00362592	40	1.3806	5.53131e-05
2	1	0	1	1	71.5359	0.472248	0.472021	0.139833	2	-0.00359344	40	1.6305	6.60041e-05
2	1	0	1	1	71.7858	0.477246	0.477071	0.160965	2	-0.00355566	40	1.8804	7.67916e-05
2	1	0	1	1	72.0356	0.482243	0.481768	0.181911	2	-0.00351264	40	2.1302	8.7639e-05
2	1	0	1	1	72.2855	0.487241	0.486865	0.201974	2	-0.00346449	40	2.3801	9.8334e-05
2	1	0	1	1	72.5354	0.492239	0.491979	0.221741	2	-0.00341137	40	2.63	0.000109092
2	1	0	1	1	72.7853	0.497236	0.496856	0.241042	2	-0.00335337	40	2.8799	0.000119763
2	1	0	1	1	73.0352	0.502234	0.501977	0.25934	2	-0.00329068	40	3.1298	0.000130183
2	1	0	1	1	73.285	0.507231	0.506784	0.2769	2	-0.00322355	40	3.3796	0.000140329
2	1	0	1	1	73.5349	0.512229	0.511757	0.293713	2	-0.00315207	40	3.6295	0.000150309
2	1	0	1	1	73.7848	0.517227	0.51698	0.31008	2	-0.00307647	40	3.8794	0.000160305
2	1	0	1	1	74.0347	0.522224	0.521907	0.325721	2	-0.00299689	40	4.1293	0.000169996
2	1	0	1	1	74.2846	0.527222	0.526837	0.34075	2	-0.00291345	40	4.3792	0.00017952
2	1	0	1	1	74.5344	0.532218	0.53169	0.354889	2	-0.0028265	40	4.629	0.000188691
2	1	0	1	1	74.7843	0.537217	0.537021	0.367753	2	-0.00273609	40	4.8789	0.000197491
2	1	0	1	1	75.0342	0.542215	0.541801	0.380911	2	-0.00264241	40	5.1288	0.000206378
2	1	0	1	1	75.2841	0.547212	0.54682	0.393398	2	-0.00254546	40	5.3787	0.000215118
2	1	0	1	1	75.534	0.55221	0.551847	0.404471	2	-0.00244569	40	5.6286	0.000223206
2	1	0	1	1	75.7839	0.557208	0.556957	0.415043	2	-0.00234315	40	5.8785	0.000231161
2	1	0	1	1	76.0337	0.562205	0.56195	0.425264	2	-0.00223808	40	6.1283	0.000238977
2	1	0	1	1	76.2836	0.567203	0.566814	0.435655	2	-0.00213038	40	6.3782	0.000246936
2	1	0	1	1	76.5335	0.572201	0.572032	0.4451	2	-0.00202026	40	6.6281	0.000254612
2	1	0	1	1	76.7834	0.577198	0.576892	0.454791	2	-0.00190769	40	6.878	0.000262365
2	1	0	1	1	77.0333	0.582196	0.581856	0.46336	2	-0.00179282	40	7.1279	0.000269608
2	1	0	1	1	77.2832	0.587195	0.586846	0.471894	2	-0.00167591	40	7.3778	0.000276929
2	1	0	1	1	77.533	0.592191	0.591931	0.479594	2	-0.00155698	40	7.6276	0.000283886
2	1	0	1	1	77.7829	0.597189	0.59692	0.486948	2	-0.00143612	40	7.8775	0.000290669
2	1	0	1	1	78.0328	0.602186	0.601743	0.494129	2	-0.00131342	40	8.1274	0.000297339
2	1	0	1	1	78.2827	0.607184	0.607011	0.502064	2	-0.00118884	40	8.3773	0.000304759
2	1	0	1	1	78.5326	0.612182	0.611647	0.50947	2	-0.00106233	40	8.6272	0.000311615
2	1	0	1	1	78.7824	0.617179	0.616727	0.515265	2	-0.000934316	40	8.877	0.000317778
2	1	0	1	1	79.0323	0.622177	0.622237	0.5219	2	-0.000804645	40	9.1269	0.000324746
2	1	0	1	1	79.2822	0.627174	0.626758	0.53014	2	-0.000673149	40	9.3768	0.000332269
2	1	0	1	1	79.5321	0.632172	0.631885	0.535776	2	-0.000539846	40	9.6267	0.000338549
2	1	0	1	1	79.782	0.63717	0.636684	0.543703	2	-0.000404986	40	9.8766	0.000346167
2	1	0	1	1	80.0318	0.642167	0.641796	0.550579	2	-0.000268336	40	10.1264	0.00035336
2	1	0	1	1	80.2817	0.647165	0.646819	0.555919	2	-0.000130126	40	10.3763	0.000359579
2	1	0	1	1	80.5316	0.652163	0.651945	0.563679	2	9.89774e-06	40	10.6262	0.000367488
2	1	0	1	1	80.7815	0.65716	0.656805	0.568794	2	0.000151262	40	10.8761	0.000373587
2	1	0	1	1	81.0314	0.662158	0.661744	0.574901	2	0.000294123	40	11.126	0.000380438
2	1	0	1	1	81.2812	0.667155	0.666884	0.581567	2	0.000438638	40	11.3758	0.000387838
2	1	0	1	1	81.5311	0.672153	0.671822	0.589021	2	0.000584954	40	11.6257	0.000395717
2	1	0	1	1	81.781	0.677151	0.676846	0.595612	2	0.000732999	40	11.8756	0.000403137
2	1	0	1	1	82.0309	0.682148	0.681776	0.602575	2	0.000882668	40	12.1255	0.000410821
2	1	0	1	1	82.2808	0.687146	0.686939	0.607586	2	0.00103392	40	12.3754	0.000417374
2	1	0	1	1	82.5306	0.692142	0.691869	0.614692	2	0.00118657	40	12.6252	0.000425286
2	1	0	1	1	82.7805	0.697141	0.696922	0.622288	2	0.00134118	40	12.8751	0.000433687
2	1	0	1	1	82.9886	0.69874	0.698536	0.625269	2	0.00147121	40	13.0832	0.000436773
2	1	0	1	1	83.2385	0.693743	0.693161	0.623024	2	0.00162713	40	13.3331	0.000431856
2	1	0	1	1	83.4884	0.688745	0.688441	0.618583	2	0.00178241	40	13.583	0.000425858
2	1	0	1	1	83.7382	0.683748	0.683468	0.617175	2	0.00193668	40	13.8328	0.00042182
2	1	0	1	1	83.9881	0.67875	0.678319	0.613683	2	0.00209045	40	14.0827	0.000416273
2	1	0	1	1	84.238	0.673752	0.67324	0.610628	2	0.00224339	40	14.3326	0.000411099
2	1	0	1	1	84.4879	0.668755	0.668358	0.608168	2	0.00239575	40	14.5825	0.000406474
2	1	0	1	1	84.7378	0.663757	0.663359	0.604813	2	0.00254735	40	14.8324	0.000401208
2	1	0	1	1	84.9876	0.65876	0.658433	0.600915	2	0.00269783	40	15.0822	0.000395662
2	1	0	1	1	85.2375	0.653762	0.653416	0.59755	2	0.00284748	40	15.3321	0.000390448
2	1	0	1	1	85.4874	0.648764	0.648536	0.593609	2	0.00299619	40	15.582	0.000384977
2	1	0	1	1	85.7373	0.643767	0.643459	0.590615	2	0.00314411	40	15.8319	0.000380036
2	1	0	1	1	85.9872	0.638769	0.638465	0.585101	2	0.00329075	40	16.0818	0.000373567
2	1	0	1	1	86.2371	0.633771	0.6334	0.580094	2	0.00343632	40	16.3317	0.000367431
2	1	0	1	1	86.4869	0.628774	0.628525	0.575288	2	0.00358051	40	16.5815	0.000361583
2	1	0	1	1	86.7368	0.623776	0.623404	0.571706	2	0.00372383	40	16.8314	0.000356404
2	1	0	1	1	86.9867	0.618778	0.618557	0.564973	2	0.00386578	40	17.0813	0.000349468
2	1	0	1	1	87.2366	0.613781	0.613221	0.559858	2	0.00400637	40	17.3312	0.000343317
2	1	0	1	1	87.4865	0.608783	0.608441	0.554849	2	0.00414558	40	17.5811	0.000337593
2	1	0	1	1	87.7364	0.603784	0.603409	0.550735	2	0.00428375	40	17.831	0.000332319
2	1	0	1	1	87.9862	0.598788	0.598187	0.543652	2	0.00442034	40	18.0808	0.000325206
2	1	0	1	1	88.2361	0.59379	0.593508	0.536099	2	0.00455516	40	18.3307	0.000318179
2	1	0	1	1	88.486	0.588793	0.588572	0.5303	2	0.00468846	40	18.5806	0.00031212
2	1	0	1	1	88.7359	0.583795	0.583522	0.522066	2	0.00481983	40	18.8305	0.000304637
2	1	0	1	1	88.9858	0.578797	0.578576	0.514213	2	0.00494934	40	19.0804	0.000297512
2	1	0	1	1	89.2356	0.5738	0.573467	0.504604	2	0.00507654	40	19.3302	0.000289374
2	1	0	1	1	89.4855	0.568802	0.56822	0.496214	2	0.00520152	40	19.5801	0.000281958
2	1	0	1	1	89.7354	0.563805	0.563327	0.48667	2	0.00532424	40	19.83	0.000274154
2	1	0	1	1	89.9853	0.558807	0.558587	0.476348	2	0.00544449	40	20.0799	0.000266081
2	1	0	1	1	90.2352	0.553809	0.553637	0.465195	2	0.00556205	40	20.3298	0.000257549
2	1	0	1	1	90.485	0.548812	0.548617	0.453706	2	0.00567669	40	20.5796	0.000248911
2	1	0	1	1	90.7349	0.543814	0.543299	0.441043	2	0.00578834	40	20.8295	0.000239618
2	1	0	1	1	90.9848	0.538816	0.538404	0.427504	2	0.00589672	40	21.0794	0.00023017
2	1	0	1	1	91.2347	0.533819	0.533458	0.413473	2	0.00600171	40	21.3293	0.00022057
2	1	0	1	1	91.4846	0.528821	0.528409	0.398219	2	0.006103	40	21.5792	0.000210423
2	1	0	1	1	91.7344	0.523824	0.523505	0.381775	2	0.00620029	40	21.829	0.000199861
2	1	0	1	1	91.9843	0.518826	0.51834	0.364875	2	0.00629343	40	22.0789	0.00018913
2	1	0	1	1	92.2342	0.513828	0.513715	0.346344	2	0.00638219	40	22.3288	0.000177922
2	1	0	1	1	92.4841	0.508831	0.508589	0.327272	2	0.00646626	40	22.5787	0.000166447
2	1	0	1	1	92.734	0.503833	0.503323	0.307239	2	0.00654538	40	22.8286	0.00015464
2	1	0	1	1	92.9838	0.498837	0.498436	0.286043	2	0.00661932	40	23.0784	0.000142574
2	1	0	1	1	93.2337	0.493838	0.493533	0.264007	2	0.00668791	40	23.3283	0.000130296
2	1	0	1	1	93.4836	0.48884	0.488533	0.240995	2	0.00675082	40	23.5782	0.000117734
2	1	0	1	1	93.7335	0.483843	0.483566	0.217153	2	0.00680789	40	23.8281	0.000105008
2	1	0	1	1	93.9834	0.478845	0.478491	0.19286	2	0.00685896	40	24.078	9.2282e-05
2	1	0	1	1	94.2333	0.473847	0.473572	0.167811	2	0.00690384	40	24.3279	7.94707e-05
2	1	0	1	1	94.4831	0.46885	0.468331	0.142722	2	0.00694242	40	24.5777	6.68409e-05
2	1	0	1	1	94.733	0.463852	0.463513	0.117358	2	0.00697469	40	24.8276	5.4397e-05
2	1	0	1	1	94.9829	0.458854	0.458451	0.0916407	2	0.0070006	40	25.0775	4.20128e-05
2	1	0	1	1	95.2328	0.453857	0.453529	0.0666218	2	0.00702016	40	25.3274	3.02149e-05
2	1	0	1	1	95.5126	0.448261	0.447769	0.0381201	2	0.00703472	41	25.6072	1.7069e-05
2	1	0	1	1	95.7625	0.443262	0.443244	0.0138005	2	0.00704117	41	25.8571	6.11701e-06
2	0	0	1	1	96.0124	0.438264	0.437902	-0.0095966	2	0.00704168	41	0.075	-4.20237e-06
2	0	0	1	1	96.2623	0.433267	0.432696	-0.0321705	2	0.00703642	41	0.3249	-1.392e-05
2	0	0	1	1	96.5122	0.428269	0.427941	-0.0537458	2	0.00702564	41	0.5748	-2.30001e-05
2	0	0	1	1	96.7621	0.423271	0.422834	-0.0742578	2	0.0070096	41	0.8247	-3.13987e-05
2	0	0	1	1	97.0119	0.418274	0.417878	-0.093854	2	0.00698857	41	1.0745	-3.92195e-05
2	0	0	1	1	97.2918	0.412676	0.412138	-0.113504	2	0.0069594	40	1.3544	-4.67791e-05
2	0	0	1	1	97.5417	0.407679	0.407287	-0.13092	2	0.00692858	40	1.6043	-5.33218e-05
2	0	0	1	1	97.7916	0.402681	0.402337	-0.146513	2	0.00689362	40	1.8542	-5.89477e-05
2	0	0	1	1	98.0414	0.397685	0.397264	-0.161954	2	0.0068548	40	2.104	-6.43383e-05
2	0	0	1	1	98.2913	0.392686	0.392373	-0.176424	2	0.00681225	40	2.3539	-6.92241e-05
2	0	0	1	1	98.5412	0.387688	0.38725	-0.189344	2	0.00676631	40	2.6038	-7.33233e-05
2	0	0	1	1	98.7911	0.382691	0.382454	-0.201369	2	0.00671721	40	2.8537	-7.70144e-05
2	0	0	1	1	99.041	0.377693	0.377493	-0.212407	2	0.00666519	40	3.1036	-8.01822e-05
2	0	0	1	1	99.2909	0.372695	0.372722	-0.223665	2	0.00661035	40	3.3535	-8.33648e-05
2	0	0	1	1	99.5407	0.367698	0.367236	-0.23366	2	0.00655292	40	3.6033	-8.58082e-05
2	0	0	1	1	99.7906	0.3627	0.362233	-0.242855	2	0.00649307	40	3.8532	-8.79699e-05
2	0	0	1	1	100.04	0.357703	0.357271	-0.251421	2	0.00643098	40	4.1031	-8.98254e-05
2	0	0	1	1	100.29	0.352705	0.352532	-0.258728	2	0.00636692	40	4.353	-9.12099e-05
2	0	0	1	1	100.54	0.347707	0.347468	-0.266156	2	0.00630098	40	4.6029	-9.24808e-05
2	0	0	1	1	100.79	0.342708	0.342419	-0.272588	2	0.00623336	40	4.8528	-9.33392e-05
2	0	0	1	1	101.04	0.337712	0.337496	-0.279393	2	0.00616409	40	5.1026	-9.42939e-05
2	0	0	1	1	101.29	0.332714	0.332506	-0.284279	2	0.00609332	40	5.3525	-9.45244e-05
2	0	0	1	1	101.54	0.327717	0.327695	-0.290261	2	0.00602117	40	5.6024	-9.51171e-05
2	0	0	1	1	101.79	0.322719	0.322332	-0.294974	2	0.00594776	40	5.8523	-9.50796e-05
2	0	0	1	1	102.04	0.317721	0.317367	-0.300145	2	0.00587306	40	6.1022	-9.52561e-05
2	0	0	1	1	102.289	0.312724	0.312376	-0.30375	2	0.00579734	40	6.352	-9.48842e-05
2	0	0	1	1	102.539	0.307726	0.307551	-0.308439	2	0.00572046	40	6.6019	-9.48607e-05
2	0	0	1	1	102.789	0.302729	0.302339	-0.31148	2	0.00564253	40	6.8518	-9.41728e-05
2	0	0	1	1	103.039	0.297731	0.297475	-0.315459	2	0.00556392	40	7.1017	-9.38413e-05
2	0	0	1	1	103.289	0.292733	0.292213	-0.318686	2	0.00548423	40	7.3516	-9.31241e-05
2	0	0	1	1	103.539	0.287736	0.287377	-0.322391	2	0.00540386	40	7.6014	-9.26478e-05
2	0	0	1	1	103.789	0.282738	0.282517	-0.325786	2	0.00532257	40	7.8513	-9.20399e-05
2	0	0	1	1	104.039	0.277741	0.27734	-0.329337	2	0.00524042	40	8.1012	-9.13381e-05
2	0	0	1	1	104.288	0.272743	0.272488	-0.330818	2	0.00515761	40	8.3511	-9.0144e-05
2	0	0	1	1	104.538	0.267745	0.267467	-0.334257	2	0.00507426	40	8.601	-8.94028e-05
2	0	0	1	1	104.788	0.262748	0.262476	-0.336951	2	0.00499003	40	8.8508	-8.84415e-05
2	0	0	1	1	105.038	0.25775	0.257305	-0.340238	2	0.0049051	40	9.1007	-8.75451e-05
2	0	0	1	1	105.288	0.252752	0.252555	-0.342425	2	0.00481949	40	9.3506	-8.64813e-05
2	0	0	1	1	105.538	0.247755	0.24748	-0.345067	2	0.00473317	40	9.6005	-8.5397e-05
2	0	0	1	1	105.788	0.242757	0.242473	-0.346896	2	0.00464641	40	9.8504	-8.4113e-05
2	0	0	1	1	106.038	0.237761	0.237312	-0.349475	2	0.00455887	40	10.1002	-8.29344e-05
2	0	0	1	1	106.287	0.232762	0.232509	-0.351338	2	0.00447097	40	10.3501	-8.16895e-05
2	0	0	1	1	106.537	0.227764	0.227529	-0.354238	2	0.00438246	40	10.6	-8.05993e-05
2	0	0	1	1	106.787	0.222767	0.222509	-0.356307	2	0.00429341	40	10.8499	-7.92814e-05
2	0	0	1	1	107.037	0.217769	0.217668	-0.359958	2	0.00420363	40	11.0998	-7.83513e-05
2	0	0	1	1	107.287	0.212771	0.212615	-0.361346	2	0.00411311	40	11.3497	-7.68278e-05
2	0	0	1	1	107.537	0.207774	0.207475	-0.362344	2	0.00402242	40	11.5995	-7.51775e-05
2	0	0	1	1	107.787	0.202776	0.202518	-0.366765	2	0.00393087	40	11.8494	-7.42767e-05
2	0	0	1	1	108.037	0.197779	0.197466	-0.367338	2	0.00383888	40	12.0993	-7.25367e-05
2	0	0	1	1	108.287	0.192781	0.192313	-0.368974	2	0.00374668	40	12.3492	-7.09584e-05
2	0	0	1	1	108.536	0.187783	0.187691	-0.371579	2	0.0036537	40	12.5991	-6.97422e-05
2	0	0	1	1	108.786	0.182784	0.182476	-0.373092	2	0.00356039	40	12.849	-6.80802e-05
2	0	0	1	1	109.036	0.177788	0.1774	-0.374966	2	0.00346658	40	13.0988	-6.65191e-05
2	0	0	1	1	109.286	0.17279	0.172506	-0.376177	2	0.0033725	40	13.3487	-6.48929e-05
2	0	0	1	1	109.536	0.167793	0.167519	-0.378271	2	0.00327785	40	13.5986	-6.33674e-05
2	0	0	1	1	109.786	0.162795	0.162447	-0.378938	2	0.00318286	40	13.8485	-6.15574e-05
2	0	0	1	1	110.036	0.157797	0.157666	-0.381104	2	0.00308756	40	14.0984	-6.00872e-05
2	0	0	1	1	110.286	0.1528	0.152584	-0.38115	2	0.00299211	40	14.3482	-5.81576e-05
2	0	0	1	1	110.535	0.147802	0.147469	-0.382744	2	0.0028963	40	14.5981	-5.64429e-05
2	0	0	1	1	110.785	0.142805	0.142642	-0.383745	2	0.0028001	40	14.848	-5.47383e-05
2	0	0	1	1	111.035	0.137807	0.137364	-0.385412	2	0.00270378	40	15.0979	-5.29415e-05
2	0	0	1	1	111.285	0.132809	0.132519	-0.386139	2	0.00260714	40	15.3478	-5.11705e-05
2	0	0	1	1	111.535	0.127812	0.127748	-0.387222	2	0.00251026	40	15.5976	-4.94668e-05
2	0	0	1	1	111.785	0.122814	0.122471	-0.387814	2	0.00241308	40	15.8475	-4.7496e-05
2	0	0	1	1	112.035	0.117817	0.117512	-0.389356	2	0.00231555	40	16.0974	-4.57541e-05
2	0	0	1	1	112.285	0.112819	0.112561	-0.390022	2	0.00221789	40	16.3473	-4.39013e-05
2	0	0	1	1	112.535	0.107821	0.107594	-0.391102	2	0.00212011	40	16.5972	-4.20803e-05
2	0	0	1	1	112.784	0.102824	0.102465	-0.39155	2	0.00202205	40	16.847	-4.012e-05
2	0	0	1	1	113.034	0.097826	0.0976538	-0.393017	2	0.00192367	40	17.0969	-3.83796e-05
2	0	0	1	1	113.284	0.0928284	0.0924559	-0.393504	2	0.00182519	40	17.3468	-3.63818e-05
2	0	0	1	1	113.534	0.0878308	0.087457	-0.394767	2	0.00172648	40	17.5967	-3.45251e-05
2	0	0	1	1	113.784	0.0828332	0.0826758	-0.394573	2	0.00162771	40	17.8466	-3.26217e-05
2	0	0	1	1	114.034	0.0778373	0.0773868	-0.394799	2	0.00152891	40	18.0964	-3.05522e-05
2	0	0	1	1	114.284	0.0728379	0.0725692	-0.395592	2	0.00142982	40	18.3463	-2.87078e-05
2	0	0	1	1	114.534	0.0678403	0.0674113	-0.395496	2	0.00133064	40	18.5962	-2.66609e-05
2	0	0	1	1	114.783	0.0628427	0.062584	-0.398415	2	0.00123131	40	18.8461	-2.49344e-05
2	0	0	1	1	115.033	0.057845	0.0575335	-0.397474	2	0.00113183	40	19.096	-2.28681e-05
2	0	0	1	1	115.283	0.0528474	0.0524909	-0.397034	2	0.00103231	40	19.3459	-2.08407e-05
2	0	0	1	1	115.533	0.0478498	0.0475795	-0.398119	2	0.000932625	40	19.5957	-1.89423e-05
2	0	0	1	1	115.783	0.0428522	0.0426102	-0.399712	2	0.000832663	40	19.8456	-1.70318e-05
2	0	0	1	1	116.033	0.0378545	0.0376551	-0.399687	2	0.00073264	40	20.0955	-1.50502e-05
2	0	0	1	1	116.283	0.0328569	0.0326659	-0.399537	2	0.000632582	40	20.3454	-1.30512e-05
2	0	0	1	1	116.533	0.0278593	0.0276096	-0.398983	2	0.000532471	40	20.5953	-1.10157e-05
2	0	0	1	1	116.783	0.0228603	0.0224451	-0.401046	2	0.000432333	40	20.8452	-9.00152e-06
2	0	0	1	1	117.032	0.017864	0.0175322	-0.401543	2	0.00033183	40	21.095	-7.03993e-06
2	0	0	1	1	117.282	0.0128664	0.0126273	-0.401816	2	0.000231165	40	21.3449	-5.07384e-06
2	0	0	1	1	117.532	0.00786878	0.00764674	-0.402362	2	0.00013045	40	21.5948	-3.07676e-06
2	0	0	1	1	117.782	0.00287116	0.00276106	-0.401629	2	2.96295e-05	40	21.8447	-1.10892e-06
2	0	0	1	0	117.99	0.00127192	0.000990324	-0.401438	2	-5.38494e-05	40	22.0525	-3.97554e-07
2	0	0	1	0	118.24	0.00626954	0.00582816	-0.401882	2	-0.000153984	40	22.3023	-2.34223e-06
2	0	0	1	0	118.49	0.0112672	0.0108872	-0.400338	2	-0.000253926	40	22.5522	-4.35856e-06
2	0	0	1	0	118.739	0.0162648	0.0161452	-0.400348	2	-0.000353769	40	22.8021	-6.46368e-06
2	0	0	1	0	118.989	0.0212624	0.0207113	-0.398675	2	-0.000453325	40	23.052	-8.25707e-06
2	0	0	1	0	119.239	0.02626	0.02599	-0.398996	2	-0.000552854	40	23.3019	-1.03699e-05
2	0	0	1	0	119.489	0.0312586	0.0307778	-0.398427	2	-0.000652271	40	23.5518	-1.22627e-05
2	0	0	1	0	119.739	0.0362553	0.0359444	-0.397894	2	-0.000751608	40	23.8016	-1.43021e-05
2	0	0	1	0	119.989	0.0412529	0.0410558	-0.397049	2	-0.000850627	40	24.0515	-1.63012e-05
2	0	0	1	0	120.239	0.0462505	0.0457846	-0.395316	2	-0.000949458	40	24.3014	-1.80994e-05
2	0	0	1	0	120.489	0.0512482	0.0509469	-0.393875	2	-0.0010478	40	24.5513	-2.00667e-05
2	0	0	1	0	120.739	0.0562458	0.0559264	-0.394282	2	-0.0011461	40	24.8012	-2.20508e-05
2	0	0	1	0	120.988	0.0612434	0.0610012	-0.393305	2	-0.0012443	40	25.051	-2.39921e-05
2	0	0	1	0	121.238	0.066241	0.0658674	-0.39193	2	-0.0013423	40	25.3009	-2.58154e-05
2	0	0	1	0	121.488	0.0712387	0.0709307	-0.391303	2	-0.00143997	40	25.5508	-2.77554e-05
2	0	0	1	0	121.738	0.0762363	0.0760175	-0.38984	2	-0.00153738	40	25.8007	-2.96346e-05
2	0	0	1	0	121.988	0.0812339	0.0807274	-0.387467	2	-0.0016345	40	26.0506	-3.12792e-05
2	0	0	1	0	122.238	0.0862315	0.0860774	-0.387489	2	-0.00173108	40	26.3004	-3.33541e-05
2	0	0	1	0	122.488	0.0912292	0.0910787	-0.385725	2	-0.00182754	40	26.5503	-3.51313e-05
2	0	0	1	0	122.738	0.0962268	0.0959861	-0.384298	2	-0.00192359	40	26.8002	-3.68872e-05
2	0	0	1	0	122.987	0.101224	0.100981	-0.382649	2	-0.00201928	40	27.0501	-3.86403e-05
2	0	0	1	0	123.237	0.106222	0.105763	-0.381356	2	-0.00211479	40	27.3	-4.03333e-05
2	0	0	1	0	123.487	0.111218	0.110686	-0.380554	2	-0.00220977	40	27.5498	-4.21222e-05
2	0	0	1	0	123.737	0.116217	0.115925	-0.378656	2	-0.00230455	40	27.7997	-4.38958e-05
2	0	0	1	0	123.987	0.121215	0.120874	-0.376956	2	-0.00239891	40	28.0496	-4.55643e-05
2	0	0	1	0	124.237	0.126213	0.126021	-0.376545	2	-0.00249283	40	28.2995	-4.74524e-05
2	0	0	1	0	124.487	0.13121	0.131099	-0.373906	2	-0.00258644	40	28.5494	-4.90186e-05
2	0	0	1	0	124.737	0.136208	0.136174	-0.375346	2	-0.00267974	40	28.7993	-5.11122e-05
2	0	0	1	0	124.986	0.141205	0.140726	-0.370979	2	-0.00277258	40	29.0491	-5.22063e-05
2	0	0	1	0	125.236	0.146203	0.145798	-0.36835	2	-0.00286477	40	29.299	-5.37048e-05
2	0	0	1	0	125.486	0.151201	0.150923	-0.366737	2	-0.00295645	40	29.5489	-5.53491e-05
2	0	0	1	0	125.736	0.156198	0.155911	-0.36439	2	-0.00304759	40	29.7988	-5.68125e-05
2	0	0	1	0	125.986	0.161196	0.160848	-0.362125	2	-0.0031382	40	30.0487	-5.8247e-05
2	0	0	1	0	126.236	0.166195	0.166124	-0.35943	2	-0.00322822	40	30.2986	-5.971e-05
2	0	0	1	0	126.486	0.171191	0.170849	-0.3577	2	-0.00331762	40	30.5484	-6.11127e-05
2	0	0	1	0	126.736	0.176189	0.175844	-0.355643	2	-0.00340649	40	30.7983	-6.25376e-05
2	0	0	1	0	126.986	0.181186	0.180753	-0.352242	2	-0.00349475	40	31.0482	-6.36688e-05
2	0	0	1	0	127.235	0.186184	0.185844	-0.349936	2	-0.00358237	40	31.2981	-6.50337e-05
2	0	0	1	0	127.485	0.191182	0.190746	-0.347403	2	-0.00366927	40	31.548	-6.62657e-05
2	0	0	1	0	127.735	0.196179	0.195771	-0.344583	2	-0.00375553	40	31.7978	-6.74593e-05
2	0	0	1	0	127.985	0.201177	0.200848	-0.342234	2	-0.00384125	40	32.0477	-6.87373e-05
2	0	0	1	0	128.235	0.206175	0.20592	-0.339599	2	-0.00392619	40	32.2976	-6.99301e-05
2	0	0	1	0	128.485	0.211172	0.210811	-0.336571	2	-0.00401052	40	32.5475	-7.09528e-05
2	0	0	1	0	128.735	0.21617	0.215891	-0.334061	2	-0.00409409	40	32.7974	-7.21208e-05
2	0	0	1	0	128.985	0.221167	0.220603	-0.3309	2	-0.00417691	40	33.0472	-7.29975e-05
2	0	0	1	0	129.234	0.226165	0.22579	-0.327472	2	-0.00425899	40	33.2971	-7.39398e-05
2	0	0	1	0	129.484	0.231163	0.230846	-0.323719	2	-0.00434015	40	33.547	-7.47293e-05
2	0	0	1	0	129.734	0.23616	0.235816	-0.321036	2	-0.00442046	40	33.7969	-7.57054e-05
2	0	0	1	0	129.984	0.241158	0.240937	-0.317842	2	-0.0045	40	34.0468	-7.65801e-05
2	0	0	1	0	130.234	0.246155	0.245947	-0.314725	2	-0.00457874	40	34.2966	-7.74056e-05
2	0	0	1	0	130.484	0.251153	0.25073	-0.311923	2	-0.00465676	40	34.5465	-7.82085e-05
2	0	0	1	0	130.734	0.256151	0.255939	-0.307675	2	-0.00473406	40	34.7964	-7.8746e-05
2	0	0	1	0	130.984	0.261148	0.260777	-0.303815	2	-0.00481019	40	35.0463	-7.92281e-05
2	0	0	1	0	131.234	0.266146	0.265947	-0.301157	2	-0.00488542	40	35.2962	-8.00919e-05
2	0	0	1	0	131.483	0.271142	0.270742	-0.297463	2	-0.00495997	40	35.546	-8.05359e-05
2	0	0	1	0	131.733	0.276141	0.275885	-0.293548	2	-0.00503351	40	35.7959	-8.09857e-05
2	0	0	1	0	131.983	0.281139	0.280999	-0.291345	2	-0.00510645	40	36.0458	-8.18677e-05
2	0	0	1	0	132.233	0.286137	0.285952	-0.288247	2	-0.00517847	40	36.2957	-8.24249e-05
2	0	0	1	0	132.483	0.291134	0.290801	-0.286016	2	-0.00524995	40	36.5456	-8.31738e-05
2	0	0	1	0	132.733	0.296132	0.295801	-0.283573	2	-0.00532088	40	36.7955	-8.38813e-05
2	0	0	1	0	132.983	0.301129	0.300976	-0.281049	2	-0.00539105	40	37.0453	-8.45891e-05
2	0	0	1	0	133.233	0.306127	0.305863	-0.278915	2	-0.00546076	40	37.2952	-8.53097e-05
2	0	0	1	0	133.482	0.311125	0.310903	-0.276696	2	-0.00552986	40	37.5451	-8.60254e-05
2	0	0	1	0	133.732	0.316122	0.315838	-0.273898	2	-0.00559835	40	37.795	-8.65076e-05
2	0	0	1	0	133.982	0.32112	0.320793	-0.270407	2	-0.00566606	40	38.0449	-8.67449e-05
2	0	0	1	0	134.232	0.326119	0.325867	-0.267038	2	-0.00573294	40	38.2948	-8.7019e-05
2	0	0	1	0	134.482	0.331115	0.33071	-0.264083	2	-0.00579894	40	38.5446	-8.7335e-05
2	0	0	1	0	134.732	0.336113	0.335911	-0.259059	2	-0.00586403	40	38.7945	-8.70206e-05
2	0	0	1	0	134.982	0.34111	0.340743	-0.254484	2	-0.00592784	40	39.0444	-8.67138e-05
2	0	0	1	0	135.232	0.346108	0.345711	-0.248451	2	-0.00599038	40	39.2943	-8.58923e-05
2	0	0	1	0	135.482	0.351106	0.350946	-0.243364	2	-0.00605159	40	39.5442	-8.54077e-05
2	0	0	1	0	135.731	0.356103	0.35578	-0.236611	2	-0.00611123	40	39.794	-8.41816e-05
2	0	0	1	0	135.981	0.361101	0.360822	-0.228596	2	-0.00616912	40	40.0439	-8.24825e-05
2	0	0	1	0	136.231	0.366099	0.365818	-0.220171	2	-0.00622489	40	40.2938	-8.05427e-05
2	0	0	1	0	136.481	0.371096	0.370528	-0.210186	2	-0.00627835	40	40.5437	-7.78796e-05
2	0	0	1	0	136.731	0.376094	0.375669	-0.200075	2	-0.00632937	40	40.7936	-7.51619e-05
2	0	0	1	0	136.981	0.381091	0.380634	-0.188912	2	-0.00637765	40	41.0434	-7.19065e-05
2	0	0	1	0	137.231	0.386089	0.385841	-0.176904	2	-0.00642307	40	41.2933	-6.82568e-05
2	0	0	1	0	137.481	0.391087	0.390585	-0.164132	2	-0.00646539	40	41.5432	-6.41073e-05
2	0	0	1	0	137.73	0.396084	0.395813	-0.150047	2	-0.00650443	40	41.7931	-5.93906e-05
2	0	0	1	0	137.98	0.401082	0.400647	-0.135763	2	-0.00653991	40	42.043	-5.4393e-05
2	0	0	1	0	138.23	0.406079	0.405621	-0.120508	2	-0.00657167	40	42.2928	-4.88807e-05
2	0	0	1	0	138.48	0.411077	0.410891	-0.104377	2	-0.00659951	40	42.5427	-4.28877e-05
2	0	0	1	0	138.73	0.416075	0.41579	-0.0873188	2	-0.00662321	40	42.7926	-3.63063e-05
2	0	0	1	0	138.98	0.421072	0.42071	-0.0696139	2	-0.00664259	40	43.0425	-2.92873e-05
2	0	0	1	0	139.23	0.42607	0.425824	-0.0509201	2	-0.00665743	40	43.2924	-2.1683e-05
2	0	0	1	0	139.51	0.431667	0.431387	-0.0283401	2	-0.00666842	41	43.5722	-1.22256e-05
2	0	0	1	0	139.759	0.436665	0.436469	-0.00808783	2	-0.00667298	41	43.8221	-3.53009e-06
2	1	0	1	0	139.917	0.439839	0.439739	0.0050312	2	-0.00667323	41	0.0323	2.21241e-06