File: Python/Data/GoldElectrode/240313/240313-CVEIS_Activation-0p5H2SO4-Ag_AgCl_BLF8-Au_RDE-80cycles_04_PEIS_C15.mpt
EC-Lab ASCII FILE
Nb header lines : 66

Potentio Electrochemical Impedance Spectroscopy

Run on channel : 15 (SN 19485)
User :
Electrode connection : standard
Potential control : Ewe
Ewe ctrl range : min = -2.50 V, max = 2.50 V
Ewe,I filtering : 50 kHz
Safety Limits :
	Do not start on E overload
Channel : Floating
Acquisition started on : 03/13/2024 15:25:11.595
Loaded Setting File :  C:\Data\mathias\GoldElectrode\240308-CVEIS_Activation-0p5H2SO4-Ag_AgCl_BLF8-Au_RDE-80cycles-C15.mps
Saved on :
	File : 240313-CVEIS_Activation-0p5H2SO4-Ag_AgCl_BLF8-Au_RDE-80cycles_04_PEIS_C15.mpr
	Directory : C:\Data\mathias\GoldElectrode\
	Host : 192.168.0.1
Device : VMP-300 (SN 0826)
Address : USB
EC-Lab for windows v11.52 (software)
Internet server v11.52 (firmware)
Command interpretor v11.52 (firmware)
Electrode material :
Initial state :
Electrolyte :
Comments :
Cable : special
Electrode surface area : 0.001 cm²
Characteristic mass : 0.001 g
Equivalent Weight : 0.000 g/eq.
Density : 0.000 g/cm3
Volume (V) : 0.001 cm³
Record EIS quality indicators
Cycle Definition : Charge/Discharge alternance
Mode                Single sine
E (V)               0.0000
vs.                 Eoc
tE (h:m:s)          0:00:0.0000
record              0
dI                  0.000
unit dI             mA
dt (s)              0.000
fi                  100.000
unit fi             kHz
ff                  100.000
unit ff             Hz
Nd                  10
Points              per decade
spacing             Logarithmic
Va (mV)             5.0
pw                  0.10
Na                  2
corr                0
E range min (V)     -2.500
E range max (V)     2.500
I Range             Auto
Bandwidth           8
nc cycles           0
goto Ns'            0
nr cycles           0
inc. cycle          0

freq/Hz	Re(Z)/Ohm	-Im(Z)/Ohm	|Z|/Ohm	Phase(Z)/deg	time/s	<Ewe>/V	<I>/mA	Cs/µF	Cp/µF	cycle number	I Range	|Ewe|/V	|I|/A	Ns	(Q-Qo)/mA.h	THD Ewe/%	NSD Ewe/%	NSR Ewe/%	|Ewe h2|/V	|Ewe h3|/V	|Ewe h4|/V	|Ewe h5|/V	|Ewe h6|/V	|Ewe h7|/V	THD I/%	NSD I/%	NSR I/%	|I h2|/A	|I h3|/A	|I h4|/A	|I h5|/A	|I h6|/A	|I h7|/A	Re(Y)/Ohm-1	Im(Y)/Ohm-1	|Y|/Ohm-1	Phase(Y)/deg	Re(C)/nF	Im(C)/nF	|C|/nF	Phase(C)/deg	Re(M)	Im(M)	|M|	Phase(M)/deg	Re(Permittivity)	Im(Permittivity)	|Permittivity|	Phase(Permittivity)/deg	Re(Resistivity)/Ohm.cm	Im(Resistivity)/Ohm.cm	|Resistivity|/Ohm.cm	Phase(Resistivity)/deg	Re(Conductivity)/mS/cm	Im(Conductivity)/mS/cm	|Conductivity|/mS/cm	Phase(Conductivity)/deg	Tan(Delta)	Loss Angle(Delta)/deg	dq/mA.h
100004	7.42835	0.757742	7.46689	-5.82441	390.347	0.448448	-0.0183125	2.10031	0.0216294	1	38	0.00479503	0.000642172	0	-5.20902e-06	2.18597	1.17968	47.9804	4.18574e-05	4.81565e-05	3.5662e-05	1.62921e-05	4.09391e-05	4.51058e-05	0.363105	0.175429	5.83831	7.1652e-07	1.20729e-06	4.31361e-07	1.16551e-06	5.21494e-07	1.02723e-06	0.133233	0.0135907	0.133924	5.82441	21.6295	212.039	213.14	-84.1756	0.0000000E+000	0.0000000E+000	0.0000000E+000	84.1756	0.0000000E+000	0.0000000E+000	0.0000000E+000	-84.1756	0.0000000E+000	0.0000000E+000	0.0000000E+000	-5.82441	0.0000000E+000	0.0000000E+000	0.0000000E+000	5.82441	9.80327	84.1756	-5.20902e-06
79433.3	7.53172	0.751616	7.56913	-5.69887	391.161	0.448481	-0.00920011	2.66576	0.0262858	1	38	0.00512331	0.000676869	0	-6.15695e-06	2.0925	1.06728	46.8035	6.12496e-05	3.59781e-05	4.55086e-05	2.64372e-05	4.25125e-05	3.3395e-05	0.308314	0.170179	5.57203	1.30263e-06	5.24839e-07	4.42639e-07	8.24079e-07	6.73834e-07	7.70925e-07	0.131463	0.0131191	0.132116	5.69887	26.2858	263.402	264.711	-84.3011	0.0000000E+000	0.0000000E+000	0.0000000E+000	84.3011	0.0000000E+000	0.0000000E+000	0.0000000E+000	-84.3011	0.0000000E+000	0.0000000E+000	0.0000000E+000	-5.69887	0.0000000E+000	0.0000000E+000	0.0000000E+000	5.69887	10.0207	84.3011	-9.47933e-07
63093.8	7.52025	0.691385	7.55197	-5.2528	391.975	0.448476	-0.0077087	3.64849	0.0305797	1	38	0.00517148	0.000684786	0	-6.88666e-06	2.42564	1.46292	44.5436	6.64619e-05	8.67747e-05	2.86522e-05	1.72548e-05	3.21087e-05	3.35721e-05	0.282291	0.172221	5.49345	9.5354e-07	5.21905e-07	1.32414e-06	4.44946e-07	2.96e-07	3.5784e-07	0.13186	0.0121227	0.132416	5.2528	30.5797	332.618	334.021	-84.7472	0.0000000E+000	0.0000000E+000	0.0000000E+000	84.7472	0.0000000E+000	0.0000000E+000	0.0000000E+000	-84.7472	0.0000000E+000	0.0000000E+000	0.0000000E+000	-5.2528	0.0000000E+000	0.0000000E+000	0.0000000E+000	5.2528	10.8771	84.7472	-7.29705e-07
50122.5	7.53057	0.68953	7.56208	-5.23165	392.789	0.448475	-0.00905302	4.60505	0.0382877	1	38	0.00517654	0.000684539	0	-7.20255e-06	2.45651	1.40179	44.1996	4.07569e-05	2.71203e-05	7.06138e-05	4.34813e-05	3.70219e-05	5.13202e-05	0.260656	0.262992	5.61273	9.09017e-07	6.67717e-07	4.89982e-07	6.86286e-07	8.69754e-07	5.31947e-07	0.131688	0.0120579	0.132239	5.23165	38.2877	418.151	419.901	-84.7683	0.0000000E+000	0.0000000E+000	0.0000000E+000	84.7683	0.0000000E+000	0.0000000E+000	0.0000000E+000	-84.7683	0.0000000E+000	0.0000000E+000	0.0000000E+000	-5.23165	0.0000000E+000	0.0000000E+000	0.0000000E+000	5.23165	10.9213	84.7683	-3.15887e-07
39814.1	7.61054	0.724295	7.64493	-5.43646	393.603	0.448443	-0.00790979	5.5191	0.0495395	1	38	0.00520733	0.000681147	0	-8.48922e-06	2.71889	1.16148	46.4743	7.32284e-05	3.30895e-05	3.88718e-05	5.55334e-05	5.04322e-05	7.47979e-05	0.333158	0.144844	5.59408	9.85445e-07	6.92935e-07	7.86003e-07	9.55949e-07	7.58564e-07	1.00153e-06	0.130217	0.0123928	0.130806	5.43646	49.5395	520.538	522.89	-84.5635	0.0000000E+000	0.0000000E+000	0.0000000E+000	84.5635	0.0000000E+000	0.0000000E+000	0.0000000E+000	-84.5635	0.0000000E+000	0.0000000E+000	0.0000000E+000	-5.43646	0.0000000E+000	0.0000000E+000	0.0000000E+000	5.43646	10.5075	84.5635	-1.28667e-06
31621.1	7.71275	0.830116	7.7573	-6.14304	394.417	0.448496	-0.00769753	6.06323	0.0694321	1	38	0.00519211	0.000669319	0	-9.92648e-06	2.43191	1.0307	45.1303	8.05599e-05	2.94046e-05	5.10094e-05	3.91232e-05	4.1063e-05	4.17635e-05	0.373215	0.168967	5.63163	1.95022e-06	3.6691e-07	8.30133e-07	4.51603e-07	5.35009e-07	7.94971e-07	0.128171	0.0137949	0.128911	6.14304	69.4321	645.106	648.832	-83.857	0.0000000E+000	0.0000000E+000	0.0000000E+000	83.857	0.0000000E+000	0.0000000E+000	0.0000000E+000	-83.857	0.0000000E+000	0.0000000E+000	0.0000000E+000	-6.14304	0.0000000E+000	0.0000000E+000	0.0000000E+000	6.14304	9.29118	83.857	-1.43727e-06
25116.9	7.69105	0.87275	7.74041	-6.47401	395.232	0.448405	-0.00783531	7.26046	0.0923031	1	38	0.00515616	0.000666136	0	-1.19498e-05	2.23374	3.01761	45.3291	6.09617e-05	3.57351e-05	5.08674e-05	5.73389e-05	1.47568e-05	2.34695e-05	0.45437	0.26301	5.87931	8.92024e-07	1.29153e-06	1.53289e-06	6.51765e-07	1.42478e-06	1.10328e-06	0.128368	0.0145667	0.129192	6.47401	92.3031	813.414	818.635	-83.526	0.0000000E+000	0.0000000E+000	0.0000000E+000	83.526	0.0000000E+000	0.0000000E+000	0.0000000E+000	-83.526	0.0000000E+000	0.0000000E+000	0.0000000E+000	-6.47401	0.0000000E+000	0.0000000E+000	0.0000000E+000	6.47401	8.81243	83.526	-2.02327e-06
19948.8	7.745	1.14003	7.82845	-8.37355	396.046	0.448463	-0.00821329	6.99822	0.148412	1	38	0.00518237	0.000661991	0	-1.28687e-05	3.36798	1.25106	45.7272	1.83139e-05	4.32033e-05	0.000147656	4.4629e-05	2.45052e-05	3.76201e-05	0.339551	0.238729	5.76525	5.57356e-07	1.05183e-06	1.11489e-06	3.39222e-07	7.08567e-07	7.73648e-07	0.126377	0.0186022	0.127739	8.37355	148.412	1008.26	1019.13	-81.6265	0.0000000E+000	0.0000000E+000	0.0000000E+000	81.6265	0.0000000E+000	0.0000000E+000	0.0000000E+000	-81.6265	0.0000000E+000	0.0000000E+000	0.0000000E+000	-8.37355	0.0000000E+000	0.0000000E+000	0.0000000E+000	8.37355	6.79368	81.6265	-9.18972e-07
15847.7	7.84565	1.2619	7.94649	-9.13725	396.86	0.448488	-0.00800103	7.95845	0.200692	1	38	0.00516568	0.000650059	0	-1.48542e-05	2.09918	1.56427	45.2136	4.88396e-05	3.41135e-05	3.88764e-05	9.32103e-06	4.97951e-05	6.18302e-05	0.404263	0.130874	5.90362	9.01304e-07	7.19325e-07	9.46078e-07	1.43789e-06	7.71093e-07	1.13817e-06	0.124245	0.0199837	0.125842	9.13725	200.692	1247.77	1263.8	-80.8627	0.0000000E+000	0.0000000E+000	0.0000000E+000	80.8627	0.0000000E+000	0.0000000E+000	0.0000000E+000	-80.8627	0.0000000E+000	0.0000000E+000	0.0000000E+000	-9.13725	0.0000000E+000	0.0000000E+000	0.0000000E+000	9.13725	6.21732	80.8627	-1.98549e-06
12590.9	7.84692	1.45381	7.98046	-10.4963	397.674	0.448508	-0.00826542	8.6947	0.288546	1	38	0.00506523	0.000634704	0	-1.64042e-05	2.42267	1.17565	46.5166	6.19092e-05	4.84574e-05	5.24979e-05	2.87356e-05	3.74081e-05	5.73708e-05	0.288285	0.262652	6.00949	3.24064e-07	4.87094e-07	7.95537e-07	6.12143e-07	5.22416e-07	1.16187e-06	0.123209	0.0228272	0.125306	10.4963	288.546	1557.42	1583.92	-79.5037	0.0000000E+000	0.0000000E+000	0.0000000E+000	79.5037	0.0000000E+000	0.0000000E+000	0.0000000E+000	-79.5037	0.0000000E+000	0.0000000E+000	0.0000000E+000	-10.4963	0.0000000E+000	0.0000000E+000	0.0000000E+000	10.4963	5.39749	79.5037	-1.54997e-06
10002.2	7.89144	1.73717	8.08038	-12.4147	398.488	0.448474	-0.00775525	9.1597	0.423352	1	38	0.00502525	0.000621908	0	-1.92714e-05	2.29522	1.56229	46.0326	4.72465e-05	5.57263e-05	3.97868e-05	4.52603e-05	2.83051e-05	3.97254e-05	0.256562	0.172509	6.09373	1.85556e-07	5.00933e-07	5.84375e-07	6.97361e-07	4.3607e-07	9.35333e-07	0.120863	0.0266059	0.123756	12.4147	423.352	1923.16	1969.21	-77.5853	0.0000000E+000	0.0000000E+000	0.0000000E+000	77.5853	0.0000000E+000	0.0000000E+000	0.0000000E+000	-77.5853	0.0000000E+000	0.0000000E+000	0.0000000E+000	-12.4147	0.0000000E+000	0.0000000E+000	0.0000000E+000	12.4147	4.5427	77.5853	-2.86724e-06
7944	7.97425	2.13487	8.25508	-14.9878	399.338	0.44836	-0.00790793	9.38447	0.627639	1	38	0.00516078	0.000625164	0	-2.18892e-05	2.27252	1.46444	46.9559	3.81176e-05	5.97947e-05	5.6155e-05	1.64773e-05	4.12864e-05	5.2965e-05	0.394192	0.140614	6.21324	8.98016e-07	1.13382e-06	1.47898e-06	6.65471e-07	3.1019e-07	6.85674e-07	0.117017	0.0313277	0.121138	14.9878	627.639	2344.38	2426.94	-75.0122	0.0000000E+000	0.0000000E+000	0.0000000E+000	75.0122	0.0000000E+000	0.0000000E+000	0.0000000E+000	-75.0122	0.0000000E+000	0.0000000E+000	0.0000000E+000	-14.9878	0.0000000E+000	0.0000000E+000	0.0000000E+000	14.9878	3.73524	75.0122	-2.61777e-06
6307.74	8.16856	2.48061	8.53691	-16.8924	400.237	0.448326	-0.00814812	10.1716	0.858823	1	38	0.00506524	0.000593334	0	-2.35677e-05	2.09766	1.9488	45.0921	2.80773e-05	7.10454e-05	4.56328e-05	3.44463e-05	3.1961e-05	3.05524e-05	0.357539	0.314323	6.45315	4.16636e-07	1.40843e-06	9.13509e-08	7.50059e-07	7.09282e-07	8.2274e-07	0.112084	0.0340375	0.117138	16.8924	858.823	2828.08	2955.6	-73.1076	0.0000000E+000	0.0000000E+000	0.0000000E+000	73.1076	0.0000000E+000	0.0000000E+000	0.0000000E+000	-73.1076	0.0000000E+000	0.0000000E+000	0.0000000E+000	-16.8924	0.0000000E+000	0.0000000E+000	0.0000000E+000	16.8924	3.29297	73.1076	-1.67852e-06
5011.6	8.23115	3.09374	8.79336	-20.5991	400.994	0.448339	-0.00723391	10.265	1.27063	1	38	0.0054237	0.000616796	0	-2.5628e-05	2.28264	1.15577	42.9245	4.08864e-05	2.36752e-05	4.64015e-05	5.31077e-05	3.89764e-05	7.29431e-05	0.29396	0.2077	6.2792	5.94824e-07	7.45757e-07	6.89259e-07	7.60411e-07	2.5241e-07	1.01254e-06	0.106451	0.0400106	0.113722	20.5991	1270.63	3380.61	3611.51	-69.4009	0.0000000E+000	0.0000000E+000	0.0000000E+000	69.4009	0.0000000E+000	0.0000000E+000	0.0000000E+000	-69.4009	0.0000000E+000	0.0000000E+000	0.0000000E+000	-20.5991	0.0000000E+000	0.0000000E+000	0.0000000E+000	20.5991	2.66058	69.4009	-2.0603e-06
3981.28	8.28507	3.74549	9.09236	-24.3267	401.959	0.448344	-0.00724881	10.6731	1.81114	1	38	0.00517971	0.000569677	0	-2.74891e-05	2.83781	1.24755	44.9316	2.39149e-05	2.8749e-05	4.03125e-05	7.99969e-05	7.28576e-05	4.6524e-05	0.420226	0.228602	6.71098	9.01764e-07	6.32463e-07	8.99345e-07	1.21366e-06	6.71562e-07	1.14365e-06	0.100217	0.045306	0.109982	24.3267	1811.15	4006.27	4396.64	-65.6733	0.0000000E+000	0.0000000E+000	0.0000000E+000	65.6733	0.0000000E+000	0.0000000E+000	0.0000000E+000	-65.6733	0.0000000E+000	0.0000000E+000	0.0000000E+000	-24.3267	0.0000000E+000	0.0000000E+000	0.0000000E+000	24.3267	2.21201	65.6733	-1.86112e-06
3163.04	8.44938	4.44533	9.54741	-27.7494	402.702	0.448374	-0.00719109	11.3191	2.45385	1	38	0.00529665	0.000554774	0	-2.87541e-05	2.21265	1.32056	44.3755	4.68216e-05	5.50412e-05	4.49463e-05	5.35279e-05	3.4178e-05	4.4853e-05	0.323178	0.162102	6.9261	8.68375e-07	5.30556e-07	1.02786e-06	2.43033e-07	7.17612e-07	5.32809e-07	0.0926945	0.0487678	0.10474	27.7494	2453.85	4664.12	5270.23	-62.2506	0.0000000E+000	0.0000000E+000	0.0000000E+000	62.2506	0.0000000E+000	0.0000000E+000	0.0000000E+000	-62.2506	0.0000000E+000	0.0000000E+000	0.0000000E+000	-27.7494	0.0000000E+000	0.0000000E+000	0.0000000E+000	27.7494	1.90073	62.2506	-1.26496e-06
2512.41	8.60993	5.5102	10.2222	-32.6185	403.445	0.448336	-0.00713151	11.4964	3.34048	1	38	0.0053681	0.000525141	0	-3.01118e-05	2.48013	1.34128	43.928	2.72016e-05	3.65993e-05	5.28148e-05	7.00381e-05	3.38086e-05	5.53463e-05	0.421299	0.181658	7.4992	1.27697e-06	6.29596e-07	2.30705e-07	9.20056e-07	8.77788e-07	5.645e-07	0.082397	0.0527326	0.0978264	32.6185	3340.48	5219.65	6197.06	-57.3815	0.0000000E+000	0.0000000E+000	0.0000000E+000	57.3815	0.0000000E+000	0.0000000E+000	0.0000000E+000	-57.3815	0.0000000E+000	0.0000000E+000	0.0000000E+000	-32.6185	0.0000000E+000	0.0000000E+000	0.0000000E+000	32.6185	1.56254	57.3815	-1.35766e-06
1995.64	8.72365	6.3793	10.8073	-36.1767	404.41	0.448311	-0.00680567	12.5016	4.3559	1	38	0.00476827	0.000441209	0	-3.18215e-05	2.25478	3.04755	49.2836	4.80616e-05	2.22951e-05	1.69947e-05	3.71854e-05	4.67019e-05	6.56855e-05	0.573724	0.51499	8.47711	1.03573e-06	7.92314e-07	1.19379e-06	1.09334e-06	1.04306e-06	3.71665e-07	0.0746904	0.0546184	0.0925301	36.1767	4355.9	5956.66	7379.41	-53.8233	0.0000000E+000	0.0000000E+000	0.0000000E+000	53.8233	0.0000000E+000	0.0000000E+000	0.0000000E+000	-53.8233	0.0000000E+000	0.0000000E+000	0.0000000E+000	-36.1767	0.0000000E+000	0.0000000E+000	0.0000000E+000	36.1767	1.36749	53.8233	-1.70976e-06
1584.49	8.86432	8.42248	12.2276	-43.5359	405.154	0.448363	-0.00629923	11.9259	5.65831	1	38	0.00483276	0.000395233	0	-3.293e-05	2.54904	1.20651	47.9673	6.08967e-05	2.71498e-05	4.28669e-05	7.28693e-05	1.81409e-05	5.25859e-05	0.654795	0.277243	9.67215	6.175e-07	1.15544e-06	9.19713e-07	5.0318e-07	1.42931e-06	1.10487e-06	0.0592874	0.0563322	0.0817821	43.5359	5658.31	5955.15	8214.64	-46.4641	0.0000000E+000	0.0000000E+000	0.0000000E+000	46.4641	0.0000000E+000	0.0000000E+000	0.0000000E+000	-46.4641	0.0000000E+000	0.0000000E+000	0.0000000E+000	-43.5359	0.0000000E+000	0.0000000E+000	0.0000000E+000	43.5359	1.05246	46.4641	-1.10846e-06
1258.79	8.96616	10.3991	13.7307	-49.2318	405.897	0.448353	-0.00547998	12.1583	6.97388	1	38	0.00477261	0.000347587	0	-3.42399e-05	2.46186	1.80261	50.2382	6.07917e-05	4.36965e-05	2.5754e-05	5.16054e-05	1.5311e-05	5.77161e-05	0.588598	0.342079	11.1438	3.70985e-07	6.5963e-07	3.72937e-07	1.25075e-06	1.19284e-06	6.48305e-07	0.0475577	0.0551579	0.0728295	49.2318	6973.88	6012.95	9208.18	-40.7682	0.0000000E+000	0.0000000E+000	0.0000000E+000	40.7682	0.0000000E+000	0.0000000E+000	0.0000000E+000	-40.7682	0.0000000E+000	0.0000000E+000	0.0000000E+000	-49.2318	0.0000000E+000	0.0000000E+000	0.0000000E+000	49.2318	0.86221	40.7682	-1.30988e-06
999.682	9.38911	12.79	15.8663	-53.7177	406.641	0.448345	-0.0058263	12.4477	8.08868	1	38	0.00472625	0.00029788	0	-3.52943e-05	2.13832	1.08787	48.0997	4.78011e-05	5.40753e-05	4.10149e-05	1.74727e-05	2.87335e-05	3.62805e-05	0.706683	0.449029	13.1727	7.39662e-07	1.15775e-06	7.69409e-07	5.31576e-07	9.86e-07	5.46197e-07	0.0372969	0.0508065	0.0630267	53.7177	8088.68	5937.88	10034.2	-36.2823	0.0000000E+000	0.0000000E+000	0.0000000E+000	36.2823	0.0000000E+000	0.0000000E+000	0.0000000E+000	-36.2823	0.0000000E+000	0.0000000E+000	0.0000000E+000	-53.7177	0.0000000E+000	0.0000000E+000	0.0000000E+000	53.7177	0.734097	36.2823	-1.05446e-06
794.239	9.47288	15.798	18.4204	-59.052	407.384	0.448311	-0.00563638	12.6843	9.32979	1	38	0.00464647	0.000252246	0	-3.66174e-05	2.88045	2.6163	50.3518	9.80103e-05	2.39604e-05	6.34666e-05	3.01059e-05	1.81184e-05	4.20305e-05	0.753583	0.543514	15.7025	9.05382e-07	3.10536e-07	8.74184e-07	7.54747e-07	6.74883e-07	7.54782e-07	0.027918	0.0465589	0.0542877	59.052	9329.79	5594.4	10878.5	-30.948	0.0000000E+000	0.0000000E+000	0.0000000E+000	30.948	0.0000000E+000	0.0000000E+000	0.0000000E+000	-30.948	0.0000000E+000	0.0000000E+000	0.0000000E+000	-59.052	0.0000000E+000	0.0000000E+000	0.0000000E+000	59.052	0.599627	30.948	-1.32312e-06
631.01	10.2145	19.5047	22.0175	-62.3592	408.128	0.448456	-0.00126456	12.9314	10.1482	1	38	0.00466767	0.000211999	0	-3.72422e-05	2.10294	1.26782	50.6576	5.50729e-05	3.77277e-05	4.94125e-05	2.32364e-05	5.36524e-06	3.32605e-05	0.887674	0.437324	17.7416	6.25023e-07	1.24362e-06	5.62629e-07	7.11449e-07	3.80431e-07	5.22992e-07	0.0210709	0.0402351	0.0454185	62.3592	10148.2	5314.55	11455.6	-27.6408	0.0000000E+000	0.0000000E+000	0.0000000E+000	27.6408	0.0000000E+000	0.0000000E+000	0.0000000E+000	-27.6408	0.0000000E+000	0.0000000E+000	0.0000000E+000	-62.3592	0.0000000E+000	0.0000000E+000	0.0000000E+000	62.3592	0.523694	27.6408	-6.24756e-07
501.122	10.5813	24.3913	26.5876	-66.548	408.871	0.448405	-0.0031656	13.0209	10.9586	1	38	0.00466895	0.000175607	0	-3.78426e-05	2.44205	2.42671	50.4736	2.9156e-05	2.89507e-05	5.25994e-05	5.08145e-05	1.77071e-05	7.0475e-05	1.16305	1.16113	22.6174	1.03303e-06	9.11904e-07	5.93683e-07	1.13062e-06	5.89609e-07	2.95006e-07	0.0149687	0.0345046	0.0376115	66.548	10958.6	4754.01	11945.3	-23.452	0.0000000E+000	0.0000000E+000	0.0000000E+000	23.452	0.0000000E+000	0.0000000E+000	0.0000000E+000	-23.452	0.0000000E+000	0.0000000E+000	0.0000000E+000	-66.548	0.0000000E+000	0.0000000E+000	0.0000000E+000	66.548	0.433817	23.452	-6.00398e-07
398.089	11.3746	29.9912	32.0757	-69.23	409.871	0.448346	-0.000594763	13.3305	11.6542	1	39	0.00480609	0.000149836	0	-3.83355e-05	2.56548	0.93065	47.6598	6.96678e-05	4.58785e-05	4.49487e-05	3.67361e-05	4.59564e-05	3.61414e-05	0.942322	0.446669	12.959	4.61572e-07	8.04778e-07	5.13882e-07	7.16907e-07	2.55683e-07	1.45214e-07	0.0110556	0.0291502	0.0311762	69.23	11654.2	4420.01	12464.2	-20.77	0.0000000E+000	0.0000000E+000	0.0000000E+000	20.77	0.0000000E+000	0.0000000E+000	0.0000000E+000	-20.77	0.0000000E+000	0.0000000E+000	0.0000000E+000	-69.23	0.0000000E+000	0.0000000E+000	0.0000000E+000	69.23	0.379265	20.77	-4.92875e-07
316.316	11.9964	37.4189	39.2949	-72.2243	410.613	0.448374	-0.000406335	13.4465	12.1932	1	39	0.00475571	0.000121026	0	-3.85241e-05	2.89588	1.16895	47.7495	4.3715e-05	5.17319e-05	3.78875e-05	7.15978e-05	6.57905e-05	4.3563e-05	0.942648	0.484887	15.8649	5.12903e-07	6.39725e-07	1.88249e-07	4.21212e-07	4.85971e-07	3.79233e-07	0.00776924	0.0242337	0.0254486	72.2243	12193.2	3909.11	12804.5	-17.7757	0.0000000E+000	0.0000000E+000	0.0000000E+000	17.7757	0.0000000E+000	0.0000000E+000	0.0000000E+000	-17.7757	0.0000000E+000	0.0000000E+000	0.0000000E+000	-72.2243	0.0000000E+000	0.0000000E+000	0.0000000E+000	72.2243	0.320597	17.7757	-1.88673e-07
251.206	12.838	46.7592	48.4895	-74.6474	411.356	0.44839	-0.000216601	13.5495	12.5997	1	39	0.00473265	9.76014e-05	0	-3.85642e-05	1.64506	1.0904	47.0065	6.27117e-05	2.93329e-05	1.86261e-05	2.18273e-05	1.09982e-05	5.44977e-06	1.02476	0.63895	19.7169	6.77284e-07	1.40656e-07	2.99974e-07	4.86623e-07	2.22597e-07	2.04703e-07	0.00546012	0.0198871	0.020623	74.6474	12599.7	3459.34	13066	-15.3526	0.0000000E+000	0.0000000E+000	0.0000000E+000	15.3526	0.0000000E+000	0.0000000E+000	0.0000000E+000	-15.3526	0.0000000E+000	0.0000000E+000	0.0000000E+000	-74.6474	0.0000000E+000	0.0000000E+000	0.0000000E+000	74.6474	0.274556	15.3526	-4.00777e-08
199.553	14.5158	57.5124	59.316	-75.8347	412.101	0.448389	-0.000402608	13.8675	13.037	1	39	0.00466686	7.8678e-05	0	-3.87499e-05	2.10309	1.62564	47.1063	3.58744e-05	3.48819e-05	3.95567e-05	4.11672e-05	3.73618e-05	3.24794e-05	1.37306	0.653671	24.0787	4.53209e-07	3.35357e-07	3.66063e-07	2.56902e-07	2.75272e-07	5.98275e-07	0.0041257	0.0163463	0.0168589	75.8347	13037	3290.47	13445.9	-14.1653	0.0000000E+000	0.0000000E+000	0.0000000E+000	14.1653	0.0000000E+000	0.0000000E+000	0.0000000E+000	-14.1653	0.0000000E+000	0.0000000E+000	0.0000000E+000	-75.8347	0.0000000E+000	0.0000000E+000	0.0000000E+000	75.8347	0.252394	14.1653	-1.85693e-07
158.529	16.1872	71.3259	73.1397	-77.2135	412.849	0.448387	-0.00017243	14.0755	13.3861	1	39	0.00466059	6.37217e-05	0	-3.87799e-05	2.26145	2.13425	49.121	6.95086e-05	1.67614e-05	2.0042e-05	5.49133e-05	3.00721e-05	3.08283e-05	1.9295	0.923725	29.3744	5.4614e-07	3.591e-07	1.53762e-07	6.41143e-07	5.75115e-07	3.13484e-07	0.00302598	0.0133334	0.0136725	77.2135	13386.1	3037.93	13726.5	-12.7865	0.0000000E+000	0.0000000E+000	0.0000000E+000	12.7865	0.0000000E+000	0.0000000E+000	0.0000000E+000	-12.7865	0.0000000E+000	0.0000000E+000	0.0000000E+000	-77.2135	0.0000000E+000	0.0000000E+000	0.0000000E+000	77.2135	0.226947	12.7865	-2.99797e-08
125.927	18.7596	87.2377	89.2319	-77.8639	413.589	0.448387	-0.000309233	14.4877	13.8473	1	39	0.0045764	5.12866e-05	0	-3.87915e-05	2.23499	1.48092	49.962	2.06415e-05	2.70851e-05	2.8979e-05	3.6421e-05	6.2038e-05	5.13909e-05	1.65085	0.827976	37.035	1.95567e-07	3.35702e-07	3.1568e-07	5.08149e-07	3.59774e-07	2.10388e-07	0.00235604	0.0109563	0.0112068	77.8639	13847.3	2977.73	14163.9	-12.1361	0.0000000E+000	0.0000000E+000	0.0000000E+000	12.1361	0.0000000E+000	0.0000000E+000	0.0000000E+000	-12.1361	0.0000000E+000	0.0000000E+000	0.0000000E+000	-77.8639	0.0000000E+000	0.0000000E+000	0.0000000E+000	77.8639	0.21504	12.1361	-1.16086e-08
99.9682	20.7992	110.964	112.897	-79.3837	414.321	0.448417	-0.000454422	14.3474	13.8605	1	39	0.00465335	4.12177e-05	0	-3.88245e-05	1.99031	1.5824	47.4647	1.53874e-05	2.73303e-05	4.09239e-05	4.66192e-05	3.61877e-05	4.59731e-05	2.21697	1.77206	46.7887	4.29885e-07	5.71132e-07	3.42726e-07	2.80548e-07	1.74126e-07	1.68435e-07	0.00163186	0.00870602	0.00885764	79.3837	13860.5	2598.01	14101.9	-10.6163	0.0000000E+000	0.0000000E+000	0.0000000E+000	10.6163	0.0000000E+000	0.0000000E+000	0.0000000E+000	-10.6163	0.0000000E+000	0.0000000E+000	0.0000000E+000	-79.3837	0.0000000E+000	0.0000000E+000	0.0000000E+000	79.3837	0.18744	10.6163	-3.29525e-08