File: Python/Data/GoldElectrode/240313/240313-CVEIS_PostActivation-Fe2Fe3_5mM-HCl1M-2000RPM-Ag_AgCl_BLF8-Au_RDE_02_PEIS_C15.mpt
EC-Lab ASCII FILE
Nb header lines : 66

Potentio Electrochemical Impedance Spectroscopy

Run on channel : 15 (SN 19485)
User :
Electrode connection : standard
Potential control : Ewe
Ewe ctrl range : min = -1.00 V, max = 1.00 V
Ewe,I filtering : <None>
Safety Limits :
	Do not start on E overload
Channel : Floating
Acquisition started on : 03/13/2024 18:03:19.717
Loaded Setting File :  NONE
Saved on :
	File : 240313-CVEIS_PostActivation-Fe2Fe3_5mM-HCl1M-2000RPM-Ag_AgCl_BLF8-Au_RDE_02_PEIS_C15.mpr
	Directory : C:\Data\mathias\GoldElectrode\
	Host : 192.168.0.1
Device : VMP-300 (SN 0826)
Address : USB
EC-Lab for windows v11.52 (software)
Internet server v11.52 (firmware)
Command interpretor v11.52 (firmware)
Electrode material :
Initial state :
Electrolyte :
Comments :
Cable : special
Electrode surface area : 0.001 cm²
Characteristic mass : 0.001 g
Equivalent Weight : 0.000 g/eq.
Density : 0.000 g/cm3
Volume (V) : 0.001 cm³
Record EIS quality indicators
Cycle Definition : Charge/Discharge alternance
Mode                Single sine
E (V)               0.0000
vs.                 Eoc
tE (h:m:s)          0:01:0.0000
record              0
dI                  0.000
unit dI             mA
dt (s)              0.000
fi                  400.000
unit fi             kHz
ff                  100.000
unit ff             mHz
Nd                  10
Points              per decade
spacing             Logarithmic
Va (mV)             5.0
pw                  0.10
Na                  3
corr                0
E range min (V)     -1.000
E range max (V)     1.000
I Range             Auto
Bandwidth           8
nc cycles           0
goto Ns'            0
nr cycles           0
inc. cycle          1

freq/Hz	Re(Z)/Ohm	-Im(Z)/Ohm	|Z|/Ohm	Phase(Z)/deg	time/s	<Ewe>/V	<I>/mA	Cs/µF	Cp/µF	cycle number	I Range	|Ewe|/V	|I|/A	Ns	(Q-Qo)/mA.h	THD Ewe/%	NSD Ewe/%	NSR Ewe/%	|Ewe h2|/V	|Ewe h3|/V	|Ewe h4|/V	|Ewe h5|/V	|Ewe h6|/V	|Ewe h7|/V	THD I/%	NSD I/%	NSR I/%	|I h2|/A	|I h3|/A	|I h4|/A	|I h5|/A	|I h6|/A	|I h7|/A	Re(Y)/Ohm-1	Im(Y)/Ohm-1	|Y|/Ohm-1	Phase(Y)/deg	Re(C)/nF	Im(C)/nF	|C|/nF	Phase(C)/deg	Re(M)	Im(M)	|M|	Phase(M)/deg	Re(Permittivity)	Im(Permittivity)	|Permittivity|	Phase(Permittivity)/deg	Re(Resistivity)/Ohm.cm	Im(Resistivity)/Ohm.cm	|Resistivity|/Ohm.cm	Phase(Resistivity)/deg	Re(Conductivity)/mS/cm	Im(Conductivity)/mS/cm	|Conductivity|/mS/cm	Phase(Conductivity)/deg	Tan(Delta)	Loss Angle(Delta)/deg	dq/mA.h
399996	3.24034	1.39484	3.5278	-23.2899	203.253	0.439658	-0.00578722	0.28526	0.0445943	1	38	0.00456647	0.00129442	0	3.9924e-05	-1	-1	-1	0	0	0	0	0	0	-1	-1	-1	0	0	0	0	0	0	0.260365	0.112077	0.283463	23.2899	44.5943	103.597	112.787	-66.7101	0.0000000E+000	0.0000000E+000	0.0000000E+000	66.7101	0.0000000E+000	0.0000000E+000	0.0000000E+000	-66.7101	0.0000000E+000	0.0000000E+000	0.0000000E+000	-23.2899	0.0000000E+000	0.0000000E+000	0.0000000E+000	23.2899	2.3231	66.7101	3.9924e-05
317705	3.19321	1.11656	3.3828	-19.2731	204.4	0.439674	0.00298627	0.448655	0.0488795	1	38	0.00508534	0.00150329	0	3.93955e-05	-1	-1	-1	0	0	0	0	0	0	-1	-1	-1	0	0	0	0	0	0	0.279046	0.0975733	0.295613	19.2731	48.8795	139.789	148.088	-70.7269	0.0000000E+000	0.0000000E+000	0.0000000E+000	70.7269	0.0000000E+000	0.0000000E+000	0.0000000E+000	-70.7269	0.0000000E+000	0.0000000E+000	0.0000000E+000	-19.2731	0.0000000E+000	0.0000000E+000	0.0000000E+000	19.2731	2.85986	70.7269	-5.28441e-07
252347	3.16714	0.949038	3.30628	-16.6809	205.547	0.439651	0.00313337	0.664565	0.0547553	1	38	0.00516707	0.00156281	0	4.00189e-05	-1	-1	-1	0	0	0	0	0	0	-1	-1	-1	0	0	0	0	0	0	0.289727	0.086817	0.302455	16.6809	54.7553	182.73	190.758	-73.3191	0.0000000E+000	0.0000000E+000	0.0000000E+000	73.3191	0.0000000E+000	0.0000000E+000	0.0000000E+000	-73.3191	0.0000000E+000	0.0000000E+000	0.0000000E+000	-16.6809	0.0000000E+000	0.0000000E+000	0.0000000E+000	16.6809	3.33721	73.3191	6.23338e-07
200434	3.22168	0.313702	3.23691	-5.56149	207.13	0.439642	-0.00197586	2.53123	0.0237741	1	37	0.00464541	0.00143514	0	4.06673e-05	-1	-1	-1	0	0	0	0	0	0	-1	-1	-1	0	0	0	0	0	0	0.307482	0.0299402	0.308936	5.56149	23.774	244.156	245.311	-84.4385	0.0000000E+000	0.0000000E+000	0.0000000E+000	84.4385	0.0000000E+000	0.0000000E+000	0.0000000E+000	-84.4385	0.0000000E+000	0.0000000E+000	0.0000000E+000	-5.56149	0.0000000E+000	0.0000000E+000	0.0000000E+000	5.56149	10.2699	84.4385	6.48473e-07
159201	3.19316	0.337084	3.2109	-6.02607	208.279	0.439677	-0.00257142	2.96577	0.0326858	1	37	0.00512443	0.00159595	0	3.76503e-05	-1	-1	-1	0	0	0	0	0	0	-1	-1	-1	0	0	0	0	0	0	0.309718	0.0326952	0.311439	6.02607	32.6858	309.629	311.35	-83.9739	0.0000000E+000	0.0000000E+000	0.0000000E+000	83.9739	0.0000000E+000	0.0000000E+000	0.0000000E+000	-83.9739	0.0000000E+000	0.0000000E+000	0.0000000E+000	-6.02607	0.0000000E+000	0.0000000E+000	0.0000000E+000	6.02607	9.4729	83.9739	-3.01699e-06
126447	3.1878	0.364434	3.20856	-6.52182	209.427	0.439672	-0.00316698	3.45375	0.0445561	1	37	0.00521506	0.00162536	0	3.58268e-05	-1	-1	-1	0	0	0	0	0	0	-1	-1	-1	0	0	0	0	0	0	0.309649	0.0353995	0.311666	6.52182	44.5561	389.744	392.283	-83.4782	0.0000000E+000	0.0000000E+000	0.0000000E+000	83.4782	0.0000000E+000	0.0000000E+000	0.0000000E+000	-83.4782	0.0000000E+000	0.0000000E+000	0.0000000E+000	-6.52182	0.0000000E+000	0.0000000E+000	0.0000000E+000	6.52182	8.74727	83.4782	-1.82357e-06
100431	3.21298	0.398798	3.23763	-7.07541	210.575	0.439629	0.00381224	3.97376	0.0602909	1	37	0.00522345	0.00161335	0	3.33585e-05	1.28125	0.632466	20.771	2.77317e-05	3.39855e-05	2.64644e-05	2.8052e-05	2.21716e-05	1.55662e-05	0.584066	0.299005	10.8927	3.7564e-06	3.96194e-06	3.30766e-06	2.93462e-06	3.30558e-06	3.18704e-06	0.306515	0.038045	0.308868	7.07541	60.2909	485.743	489.471	-82.9246	0.0000000E+000	0.0000000E+000	0.0000000E+000	82.9246	0.0000000E+000	0.0000000E+000	0.0000000E+000	-82.9246	0.0000000E+000	0.0000000E+000	0.0000000E+000	-7.07541	0.0000000E+000	0.0000000E+000	0.0000000E+000	7.07541	8.05666	82.9246	-2.46825e-06
79767.3	3.23351	0.443145	3.26374	-7.80363	211.723	0.43966	0.00247223	4.50245	0.0830062	1	37	0.00518557	0.00158884	0	3.35053e-05	0.930336	0.481654	20.6185	1.79538e-05	1.37504e-05	9.76647e-06	1.47349e-05	2.73891e-05	2.2352e-05	0.529516	0.244397	11.0289	4.06092e-06	3.80433e-06	1.62013e-06	2.72998e-06	3.26559e-06	1.98848e-06	0.30356	0.0416021	0.306397	7.80363	83.0062	605.674	611.336	-82.1964	0.0000000E+000	0.0000000E+000	0.0000000E+000	82.1964	0.0000000E+000	0.0000000E+000	0.0000000E+000	-82.1964	0.0000000E+000	0.0000000E+000	0.0000000E+000	-7.80363	0.0000000E+000	0.0000000E+000	0.0000000E+000	7.80363	7.29674	82.1964	1.46754e-07
63362.9	3.26274	0.510631	3.30246	-8.89484	212.871	0.439662	0.0037378	4.91902	0.117603	1	37	0.00517397	0.0015667	0	3.56946e-05	0.881723	0.585954	20.9164	2.06301e-05	1.87545e-05	1.21964e-05	1.19552e-05	1.96653e-05	1.92017e-05	0.669211	0.415505	11.2737	4.56082e-06	4.03162e-06	4.14214e-06	2.83748e-06	5.1685e-06	3.28037e-06	0.299163	0.0468201	0.302805	8.89484	117.603	751.438	760.585	-81.1052	0.0000000E+000	0.0000000E+000	0.0000000E+000	81.1052	0.0000000E+000	0.0000000E+000	0.0000000E+000	-81.1052	0.0000000E+000	0.0000000E+000	0.0000000E+000	-8.89484	0.0000000E+000	0.0000000E+000	0.0000000E+000	8.89484	6.38963	81.1052	2.18936e-06
50326.6	3.3201	0.578788	3.37017	-9.88891	214.019	0.439649	0.00656671	5.4639	0.161153	1	37	0.00521369	0.00154701	0	3.78419e-05	1.01916	0.94163	20.2881	1.89823e-05	3.1139e-05	2.04721e-05	1.77234e-05	1.08623e-05	1.61182e-05	0.552852	0.297179	11.4132	1.86922e-06	4.97506e-06	3.62015e-06	3.67042e-06	1.65604e-06	1.52132e-06	0.292312	0.0509584	0.296721	9.88891	161.153	924.42	938.362	-80.1111	0.0000000E+000	0.0000000E+000	0.0000000E+000	80.1111	0.0000000E+000	0.0000000E+000	0.0000000E+000	-80.1111	0.0000000E+000	0.0000000E+000	0.0000000E+000	-9.88891	0.0000000E+000	0.0000000E+000	0.0000000E+000	9.88891	5.73629	80.1111	2.1473e-06
39971.8	3.37092	0.650944	3.4332	-10.9296	215.168	0.439678	0.00392391	6.11678	0.219893	1	37	0.00519474	0.00151309	0	3.78178e-05	1.15663	0.718595	20.4821	2.33598e-05	2.22669e-05	2.19829e-05	1.41608e-05	2.93221e-05	2.17408e-05	0.555594	0.389613	11.6861	4.09486e-06	2.41022e-06	1.73915e-06	3.6593e-06	4.30276e-06	2.01402e-06	0.28599	0.0552262	0.291274	10.9296	219.893	1138.72	1159.76	-79.0704	0.0000000E+000	0.0000000E+000	0.0000000E+000	79.0704	0.0000000E+000	0.0000000E+000	0.0000000E+000	-79.0704	0.0000000E+000	0.0000000E+000	0.0000000E+000	-10.9296	0.0000000E+000	0.0000000E+000	0.0000000E+000	10.9296	5.17852	79.0704	-2.41667e-08
31751	3.41233	0.742238	3.49213	-12.2716	216.316	0.439645	0.00595255	6.75335	0.305088	1	37	0.00517007	0.00148049	0	4.18614e-05	0.820988	0.597953	20.504	9.23741e-06	9.57323e-06	2.09558e-05	1.55371e-05	1.78842e-05	1.61179e-05	0.584249	0.307958	11.9621	2.54492e-06	2.58556e-06	3.90305e-06	3.10009e-06	3.53729e-06	3.44954e-06	0.279816	0.0608644	0.286359	12.2716	305.088	1402.6	1435.4	-77.7284	0.0000000E+000	0.0000000E+000	0.0000000E+000	77.7284	0.0000000E+000	0.0000000E+000	0.0000000E+000	-77.7284	0.0000000E+000	0.0000000E+000	0.0000000E+000	-12.2716	0.0000000E+000	0.0000000E+000	0.0000000E+000	12.2716	4.59736	77.7284	4.04367e-06
25219	3.45999	0.859946	3.56525	-13.9575	217.464	0.439642	0.00392392	7.33874	0.426956	1	37	0.00515759	0.00144663	0	4.37396e-05	1.27203	0.627634	20.4146	3.49709e-05	2.32171e-05	1.35613e-05	2.48426e-05	2.03866e-05	2.77374e-05	0.734607	0.46593	12.3667	3.66928e-06	2.65417e-06	4.00148e-06	4.38659e-06	4.72351e-06	5.12629e-06	0.272204	0.0676535	0.280485	13.9575	426.956	1717.86	1770.12	-76.0425	0.0000000E+000	0.0000000E+000	0.0000000E+000	76.0425	0.0000000E+000	0.0000000E+000	0.0000000E+000	-76.0425	0.0000000E+000	0.0000000E+000	0.0000000E+000	-13.9575	0.0000000E+000	0.0000000E+000	0.0000000E+000	13.9575	4.0235	76.0425	1.87816e-06
20032.3	3.54143	0.995735	3.67875	-15.7043	218.612	0.439639	0.00552449	7.97895	0.584566	1	37	0.00520273	0.00141427	0	4.62546e-05	0.993762	0.555016	20.593	2.70575e-05	2.53777e-05	1.39646e-05	1.93121e-05	1.64029e-05	1.49954e-05	0.772409	0.436442	12.4941	3.20928e-06	1.27082e-06	7.32013e-06	4.37707e-06	1.64131e-06	4.20144e-06	0.261685	0.0735773	0.271832	15.7043	584.566	2079.06	2159.68	-74.2957	0.0000000E+000	0.0000000E+000	0.0000000E+000	74.2957	0.0000000E+000	0.0000000E+000	0.0000000E+000	-74.2957	0.0000000E+000	0.0000000E+000	0.0000000E+000	-15.7043	0.0000000E+000	0.0000000E+000	0.0000000E+000	15.7043	3.55659	74.2957	2.51499e-06
15912.6	3.59443	1.17141	3.78049	-18.0506	219.76	0.439648	0.00783229	8.53825	0.819766	1	37	0.00509711	0.00134827	0	4.69042e-05	1.1504	0.637004	21.1737	1.72044e-05	1.71424e-05	2.63115e-05	2.14998e-05	1.24522e-05	3.3885e-05	0.727474	0.471239	13.2079	2.55925e-06	4.66135e-06	5.02311e-06	4.17753e-06	1.9554e-06	3.99269e-06	0.251497	0.0819619	0.264516	18.0506	819.766	2515.42	2645.63	-71.9494	0.0000000E+000	0.0000000E+000	0.0000000E+000	71.9494	0.0000000E+000	0.0000000E+000	0.0000000E+000	-71.9494	0.0000000E+000	0.0000000E+000	0.0000000E+000	-18.0506	0.0000000E+000	0.0000000E+000	0.0000000E+000	18.0506	3.06847	71.9494	6.4957e-07
12637.3	3.64658	1.36071	3.89218	-20.4629	220.908	0.439655	0.00169057	9.2555	1.13121	1	37	0.00511125	0.00131321	0	4.51624e-05	1.1714	0.506033	21.3701	2.57296e-05	1.91503e-05	1.27014e-05	3.44725e-05	2.09004e-05	2.29847e-05	0.739139	0.311764	13.3905	3.72482e-06	3.86574e-06	2.32303e-06	5.05143e-06	4.22975e-06	2.63591e-06	0.240713	0.0898212	0.256925	20.4629	1131.21	3031.55	3235.73	-69.5371	0.0000000E+000	0.0000000E+000	0.0000000E+000	69.5371	0.0000000E+000	0.0000000E+000	0.0000000E+000	-69.5371	0.0000000E+000	0.0000000E+000	0.0000000E+000	-20.4629	0.0000000E+000	0.0000000E+000	0.0000000E+000	20.4629	2.67991	69.5371	-1.74177e-06
10039.3	3.72384	1.64336	4.07034	-23.8122	222.056	0.439656	0.00271419	9.64678	1.57248	1	37	0.00505865	0.00124281	0	4.35026e-05	1.16613	0.618861	20.4906	2.93798e-05	1.60994e-05	2.05974e-05	1.75613e-05	1.5298e-05	3.30029e-05	0.795011	0.441136	14.2484	3.85669e-06	2.60594e-06	2.06028e-06	3.41563e-06	5.51851e-06	4.82192e-06	0.224766	0.0991909	0.24568	23.8122	1572.48	3563.24	3894.79	-66.1878	0.0000000E+000	0.0000000E+000	0.0000000E+000	66.1878	0.0000000E+000	0.0000000E+000	0.0000000E+000	-66.1878	0.0000000E+000	0.0000000E+000	0.0000000E+000	-23.8122	0.0000000E+000	0.0000000E+000	0.0000000E+000	23.8122	2.266	66.1878	-1.65979e-06
7967.67	3.80335	1.99992	4.29711	-27.7367	223.571	0.439529	0.00326742	9.98796	2.16345	1	38	0.00480339	0.00111782	0	4.34244e-05	1.20249	0.492733	21.2068	2.54064e-05	2.19306e-05	2.47867e-05	2.80826e-05	1.27049e-05	1.17629e-05	0.138116	0.0946349	2.62488	7.13898e-07	7.36232e-07	5.21008e-07	3.1559e-07	4.65222e-07	6.40679e-07	0.205974	0.108308	0.232714	27.7367	2163.45	4114.36	4648.49	-62.2633	0.0000000E+000	0.0000000E+000	0.0000000E+000	62.2633	0.0000000E+000	0.0000000E+000	0.0000000E+000	-62.2633	0.0000000E+000	0.0000000E+000	0.0000000E+000	-27.7367	0.0000000E+000	0.0000000E+000	0.0000000E+000	27.7367	1.90176	62.2633	-7.82403e-08
6332.63	3.92306	2.4252	4.61216	-31.7239	224.808	0.43953	0.00367891	10.3631	2.86533	1	38	0.00513803	0.00111402	0	4.59685e-05	1.03929	0.768989	21.0714	2.21973e-05	5.8845e-06	1.89242e-05	2.21183e-05	2.89144e-05	2.09009e-05	0.164461	0.0780895	2.64552	7.83941e-07	4.50921e-07	7.32535e-07	8.48035e-07	7.53487e-07	6.83559e-07	0.184424	0.114009	0.216818	31.7239	2865.33	4635.03	5449.19	-58.2761	0.0000000E+000	0.0000000E+000	0.0000000E+000	58.2761	0.0000000E+000	0.0000000E+000	0.0000000E+000	-58.2761	0.0000000E+000	0.0000000E+000	0.0000000E+000	-31.7239	0.0000000E+000	0.0000000E+000	0.0000000E+000	31.7239	1.61763	58.2761	2.54414e-06
5028.39	4.04423	2.91864	4.98741	-35.8172	226.15	0.439521	0.00201433	10.8445	3.71382	1	38	0.00501391	0.00100531	0	4.69158e-05	0.998419	0.574619	20.5605	1.93568e-05	2.16603e-05	2.12476e-05	2.24814e-05	1.60026e-05	1.65002e-05	0.138369	0.0663799	3.00128	5.05998e-07	5.62071e-07	2.33833e-07	9.4927e-07	4.27011e-07	3.64283e-07	0.162587	0.117336	0.200505	35.8172	3713.82	5146.09	6346.23	-54.1828	0.0000000E+000	0.0000000E+000	0.0000000E+000	54.1828	0.0000000E+000	0.0000000E+000	0.0000000E+000	-54.1828	0.0000000E+000	0.0000000E+000	0.0000000E+000	-35.8172	0.0000000E+000	0.0000000E+000	0.0000000E+000	35.8172	1.38566	54.1828	9.47333e-07
3993.72	4.16475	3.53623	5.46352	-40.3341	227.256	0.439553	0.00215211	11.2694	4.72104	1	38	0.00529596	0.000969331	0	4.7848e-05	1.07759	0.711202	19.0627	1.73298e-05	1.23658e-05	2.57615e-05	3.37462e-05	2.59816e-05	9.48582e-06	0.210337	0.0860406	3.03782	1.35168e-06	3.26862e-07	4.5828e-07	1.00749e-06	4.82978e-07	6.18263e-07	0.139522	0.118466	0.183032	40.3341	4721.04	5560.15	7294.07	-49.6659	0.0000000E+000	0.0000000E+000	0.0000000E+000	49.6659	0.0000000E+000	0.0000000E+000	0.0000000E+000	-49.6659	0.0000000E+000	0.0000000E+000	0.0000000E+000	-40.3341	0.0000000E+000	0.0000000E+000	0.0000000E+000	40.3341	1.17774	49.6659	9.32208e-07
3171.96	4.33234	4.33307	6.12737	-45.0048	228.362	0.439525	0.00247423	11.5797	5.79083	1	38	0.00533029	0.000869916	0	4.90028e-05	1.18334	0.402604	19.6602	3.05269e-05	2.71733e-05	1.23858e-05	1.75062e-05	2.50759e-05	2.11087e-05	0.299959	0.146122	3.53009	1.87288e-06	7.94407e-07	6.90934e-07	7.14611e-07	9.27295e-07	5.3885e-07	0.115392	0.115411	0.163202	45.0048	5790.83	5789.85	8188.77	-44.9952	0.0000000E+000	0.0000000E+000	0.0000000E+000	44.9952	0.0000000E+000	0.0000000E+000	0.0000000E+000	-44.9952	0.0000000E+000	0.0000000E+000	0.0000000E+000	-45.0048	0.0000000E+000	0.0000000E+000	0.0000000E+000	45.0048	0.999831	44.9951	1.1548e-06
2519.19	4.55162	5.30006	6.98626	-49.3445	229.469	0.439544	0.00248353	11.9201	6.86041	1	38	0.00522144	0.000747387	0	4.96319e-05	0.925007	0.332255	19.2765	1.55762e-05	1.51643e-05	1.66561e-05	1.15424e-05	1.88608e-05	2.49195e-05	0.401301	0.183186	3.9536	2.11643e-06	1.38987e-06	3.50748e-07	1.07045e-06	8.5773e-07	4.00463e-07	0.0932559	0.10859	0.143138	49.3445	6860.41	5891.63	9043.04	-40.6555	0.0000000E+000	0.0000000E+000	0.0000000E+000	40.6555	0.0000000E+000	0.0000000E+000	0.0000000E+000	-40.6555	0.0000000E+000	0.0000000E+000	0.0000000E+000	-49.3445	0.0000000E+000	0.0000000E+000	0.0000000E+000	49.3445	0.858787	40.6555	6.29079e-07
2001.92	4.84173	6.45227	8.06685	-53.1157	230.574	0.439547	0.0024947	12.3214	7.88275	1	38	0.00506523	0.000627907	0	5.09734e-05	1.00214	0.693359	20.69	1.89346e-05	2.50586e-05	1.3396e-05	1.80169e-05	1.89098e-05	1.20888e-05	0.42293	0.133038	4.75084	2.04319e-06	1.1433e-06	3.20523e-07	3.49826e-07	7.31691e-07	7.06017e-07	0.0744034	0.0991526	0.123964	53.1157	7882.75	5915.16	9855.3	-36.8843	0.0000000E+000	0.0000000E+000	0.0000000E+000	36.8843	0.0000000E+000	0.0000000E+000	0.0000000E+000	-36.8843	0.0000000E+000	0.0000000E+000	0.0000000E+000	-53.1157	0.0000000E+000	0.0000000E+000	0.0000000E+000	53.1157	0.750392	36.8843	1.34152e-06
1589.49	5.22485	7.90251	9.47358	-56.5288	231.681	0.439528	0.00152835	12.6706	8.81654	1	38	0.00493809	0.000521248	0	5.12923e-05	1.10532	0.3769	20.6588	1.76686e-05	2.361e-05	2.85218e-05	2.12733e-05	1.00019e-05	1.41721e-05	0.563416	0.166148	5.74168	1.96651e-06	1.21961e-06	7.52338e-07	1.32624e-06	7.19431e-07	5.19216e-07	0.0582165	0.0880515	0.105557	56.5288	8816.54	5829.18	10569.3	-33.4712	0.0000000E+000	0.0000000E+000	0.0000000E+000	33.4712	0.0000000E+000	0.0000000E+000	0.0000000E+000	-33.4712	0.0000000E+000	0.0000000E+000	0.0000000E+000	-56.5288	0.0000000E+000	0.0000000E+000	0.0000000E+000	56.5288	0.661164	33.4713	3.18855e-07
1262.98	5.70183	9.60685	11.1715	-59.3101	232.787	0.439548	0.00232898	13.1173	9.70024	1	38	0.0048137	0.000430891	0	5.17167e-05	1.17697	0.573954	21.4135	3.00216e-05	1.96265e-05	8.08193e-06	2.06832e-05	2.03638e-05	2.00879e-05	0.63951	0.224077	6.81518	2.0052e-06	1.13226e-06	6.40764e-07	9.29711e-07	7.75437e-07	4.35785e-07	0.0456869	0.0769764	0.0895135	59.3101	9700.23	5757.26	11280.1	-30.6899	0.0000000E+000	0.0000000E+000	0.0000000E+000	30.6899	0.0000000E+000	0.0000000E+000	0.0000000E+000	-30.6899	0.0000000E+000	0.0000000E+000	0.0000000E+000	-59.3101	0.0000000E+000	0.0000000E+000	0.0000000E+000	59.3101	0.593518	30.6899	4.24377e-07
1002.75	6.3848	11.7645	13.3854	-61.5106	233.896	0.439566	0.00232339	13.4913	10.4217	1	38	0.00474243	0.000354298	0	5.21185e-05	1.18238	0.774669	21.4354	3.08085e-05	2.48014e-05	1.13029e-05	2.34587e-05	2.27846e-05	1.47743e-05	0.704849	0.190351	8.21001	1.43241e-06	1.17159e-06	7.20265e-07	9.14103e-07	6.51466e-07	6.12362e-07	0.0356354	0.0656613	0.0747081	61.5106	10421.7	5656	11857.5	-28.4894	0.0000000E+000	0.0000000E+000	0.0000000E+000	28.4894	0.0000000E+000	0.0000000E+000	0.0000000E+000	-28.4894	0.0000000E+000	0.0000000E+000	0.0000000E+000	-61.5106	0.0000000E+000	0.0000000E+000	0.0000000E+000	61.5106	0.542716	28.4894	4.01813e-07
796.787	7.24515	14.4284	16.1453	-63.3367	235.001	0.439545	0.00343124	13.844	11.0561	1	38	0.00470139	0.000291193	0	5.30339e-05	1.12364	0.742445	22.5647	2.27364e-05	2.83647e-05	1.45632e-05	2.29115e-05	2.1269e-05	1.331e-05	0.875335	0.376076	10.4647	1.67621e-06	1.35812e-06	4.77817e-07	8.26218e-07	4.17924e-07	6.52214e-07	0.0277943	0.0553511	0.0619376	63.3367	11056.1	5551.8	12371.8	-26.6633	0.0000000E+000	0.0000000E+000	0.0000000E+000	26.6633	0.0000000E+000	0.0000000E+000	0.0000000E+000	-26.6633	0.0000000E+000	0.0000000E+000	0.0000000E+000	-63.3367	0.0000000E+000	0.0000000E+000	0.0000000E+000	63.3367	0.502146	26.6633	9.15395e-07
632.773	8.54877	17.5371	19.5097	-64.0122	236.109	0.439552	0.00403265	14.3422	11.5885	1	38	0.00468374	0.000240072	0	5.45013e-05	1.34184	0.640268	21.7664	2.28148e-05	1.51775e-05	2.86838e-05	3.02029e-05	2.40197e-05	1.91843e-05	0.925365	0.272364	12.2079	1.30575e-06	5.2194e-07	5.20281e-07	1.30637e-06	6.26493e-07	3.73428e-07	0.0224595	0.0460738	0.0512565	64.0122	11588.5	5649.02	12892	-25.9878	0.0000000E+000	0.0000000E+000	0.0000000E+000	25.9878	0.0000000E+000	0.0000000E+000	0.0000000E+000	-25.9878	0.0000000E+000	0.0000000E+000	0.0000000E+000	-64.0122	0.0000000E+000	0.0000000E+000	0.0000000E+000	64.0122	0.487469	25.9878	1.46737e-06
502.588	10.1709	21.1488	23.4674	-64.3162	237.217	0.439564	0.00459867	14.9734	12.1608	1	38	0.00464198	0.000197805	0	5.60049e-05	0.955148	0.737163	22.003	8.1936e-06	8.92041e-06	1.64781e-05	2.43842e-05	2.14859e-05	1.26199e-05	1.08189	0.473822	14.9077	9.17783e-07	4.98637e-07	6.82141e-07	1.27914e-06	5.05741e-07	8.04831e-07	0.0184683	0.0384021	0.0426122	64.3162	12160.8	5848.39	13494.1	-25.6838	0.0000000E+000	0.0000000E+000	0.0000000E+000	25.6838	0.0000000E+000	0.0000000E+000	0.0000000E+000	-25.6838	0.0000000E+000	0.0000000E+000	0.0000000E+000	-64.3162	0.0000000E+000	0.0000000E+000	0.0000000E+000	64.3162	0.48092	25.6838	1.50362e-06
399.106	12.4296	25.3502	28.2335	-63.8806	238.325	0.439548	0.00477928	15.7308	12.6819	1	38	0.00462887	0.000163949	0	5.74928e-05	1.30194	0.853381	23.4777	2.55958e-05	1.58888e-05	1.98801e-05	2.82381e-05	2.58887e-05	2.09904e-05	0.996338	0.436465	17.8932	6.57758e-07	6.61206e-07	6.77854e-07	4.27943e-07	5.49649e-07	7.19712e-07	0.0155929	0.0318019	0.0354189	63.8806	12681.9	6218.13	14124.3	-26.1194	0.0000000E+000	0.0000000E+000	0.0000000E+000	26.1194	0.0000000E+000	0.0000000E+000	0.0000000E+000	-26.1194	0.0000000E+000	0.0000000E+000	0.0000000E+000	-63.8806	0.0000000E+000	0.0000000E+000	0.0000000E+000	63.8806	0.490315	26.1194	1.4879e-06
316.927	15.5597	30.2888	34.0517	-62.8099	239.68	0.439548	0.00354099	16.5798	13.118	1	39	0.00473897	0.00013917	0	5.88863e-05	0.952029	0.827462	22.2603	1.56106e-05	1.28223e-05	2.42158e-05	1.91663e-05	1.40228e-05	1.45969e-05	0.811909	0.375662	9.14133	8.47017e-07	4.37358e-07	1.41214e-07	4.31915e-07	1.3063e-07	1.72915e-07	0.0134192	0.0261219	0.0293671	62.8099	13118	6738.86	14747.6	-27.1901	0.0000000E+000	0.0000000E+000	0.0000000E+000	27.1901	0.0000000E+000	0.0000000E+000	0.0000000E+000	-27.1901	0.0000000E+000	0.0000000E+000	0.0000000E+000	-62.8099	0.0000000E+000	0.0000000E+000	0.0000000E+000	62.8099	0.513713	27.1901	1.39356e-06
251.853	19.74	35.9327	40.9979	-61.2173	240.783	0.439546	0.00371991	17.5866	13.5095	1	39	0.00470532	0.00011477	0	5.98784e-05	1.37039	0.781517	22.186	2.95346e-05	2.62048e-05	1.96544e-05	2.52382e-05	1.28515e-05	2.38592e-05	0.837771	0.275095	11.085	6.10045e-07	2.51049e-07	2.80475e-07	4.13438e-07	2.15519e-07	3.04697e-07	0.0117443	0.021378	0.0243915	61.2173	13509.5	7421.6	15413.8	-28.7827	0.0000000E+000	0.0000000E+000	0.0000000E+000	28.7827	0.0000000E+000	0.0000000E+000	0.0000000E+000	-28.7827	0.0000000E+000	0.0000000E+000	0.0000000E+000	-61.2173	0.0000000E+000	0.0000000E+000	0.0000000E+000	61.2173	0.549362	28.7827	9.92054e-07
199.936	24.9622	41.7588	48.6508	-59.1302	241.889	0.439552	0.00354248	19.0625	14.0441	1	39	0.00465914	9.57669e-05	0	6.09415e-05	1.56218	0.684009	22.9512	3.30235e-05	3.8379e-05	2.10897e-05	2.90339e-05	2.08502e-05	2.27339e-05	0.812467	0.529803	13.2257	2.79859e-07	4.13017e-07	1.66769e-07	3.43887e-07	2.65904e-07	1.84794e-07	0.0105463	0.0176428	0.0205546	59.1302	14044.1	8395.18	16362.1	-30.8698	0.0000000E+000	0.0000000E+000	0.0000000E+000	30.8698	0.0000000E+000	0.0000000E+000	0.0000000E+000	-30.8698	0.0000000E+000	0.0000000E+000	0.0000000E+000	-59.1302	0.0000000E+000	0.0000000E+000	0.0000000E+000	59.1302	0.597771	30.8698	1.06311e-06
158.831	31.3684	47.7905	57.1656	-56.7202	243.001	0.439553	0.00368748	20.9674	14.654	1	39	0.00462318	8.08734e-05	0	6.19605e-05	1.22871	1.03333	23.6804	2.32066e-05	1.05251e-05	1.39931e-05	2.20605e-05	1.4653e-05	3.618e-05	0.950287	0.652607	16.1806	3.42923e-07	3.24528e-07	1.73124e-07	2.7567e-07	2.12379e-07	3.88208e-07	0.00959891	0.0146242	0.017493	56.7202	14654	9618.5	17528.7	-33.2798	0.0000000E+000	0.0000000E+000	0.0000000E+000	33.2798	0.0000000E+000	0.0000000E+000	0.0000000E+000	-33.2798	0.0000000E+000	0.0000000E+000	0.0000000E+000	-56.7202	0.0000000E+000	0.0000000E+000	0.0000000E+000	56.7202	0.656372	33.2798	1.01901e-06
126.171	39.6784	54.2149	67.1835	-53.8006	244.1	0.439562	0.00345395	23.2671	15.1514	1	39	0.00462625	6.88599e-05	0	6.31119e-05	1.26987	0.519079	23.3546	2.76821e-05	1.4397e-05	1.2798e-05	1.66677e-05	2.7855e-05	3.20099e-05	1.06778	0.637422	18.5885	4.47808e-07	1.28544e-07	2.26703e-07	2.19908e-07	2.87762e-07	3.70467e-07	0.0087908	0.0120114	0.0148846	53.8006	15151.4	11088.9	18775.8	-36.1994	0.0000000E+000	0.0000000E+000	0.0000000E+000	36.1994	0.0000000E+000	0.0000000E+000	0.0000000E+000	-36.1994	0.0000000E+000	0.0000000E+000	0.0000000E+000	-53.8006	0.0000000E+000	0.0000000E+000	0.0000000E+000	53.8006	0.731872	36.1994	1.15135e-06
100.224	49.6548	59.5672	77.549	-50.1857	245.206	0.439583	0.00343848	26.6587	15.729	1	39	0.00460912	5.94349e-05	0	6.4214e-05	1.07766	0.39737	22.3384	2.78978e-05	1.78076e-05	2.23022e-05	1.64496e-05	1.36588e-05	1.14002e-05	1.15028	0.349665	20.7788	3.11763e-07	2.65544e-07	1.94727e-07	3.51148e-07	1.95578e-07	1.63069e-07	0.00825674	0.009905	0.0128951	50.1857	15729	13111.6	20477.2	-39.8143	0.0000000E+000	0.0000000E+000	0.0000000E+000	39.8143	0.0000000E+000	0.0000000E+000	0.0000000E+000	-39.8143	0.0000000E+000	0.0000000E+000	0.0000000E+000	-50.1857	0.0000000E+000	0.0000000E+000	0.0000000E+000	50.1857	0.833593	39.8143	1.10216e-06
79.6177	60.7298	64.3834	88.5061	-46.6727	246.288	0.43961	0.00335778	31.0482	16.43	1	39	0.00460642	5.20464e-05	0	6.52591e-05	1.04635	0.627168	22.8858	2.74972e-05	1.32974e-05	2.01102e-05	1.58603e-05	1.22368e-05	1.83349e-05	1.45373	0.661882	25.0157	3.34344e-07	2.19148e-07	2.11035e-07	3.70289e-07	2.11947e-07	2.80767e-07	0.00775274	0.00821916	0.0112987	46.6727	16430	15497.7	22585.9	-43.3273	0.0000000E+000	0.0000000E+000	0.0000000E+000	43.3273	0.0000000E+000	0.0000000E+000	0.0000000E+000	-43.3273	0.0000000E+000	0.0000000E+000	0.0000000E+000	-46.6727	0.0000000E+000	0.0000000E+000	0.0000000E+000	46.6727	0.943252	43.3273	1.04511e-06
63.2394	72.2712	68.4252	99.5246	-43.4342	247.37	0.439546	0.00360548	36.7804	17.3855	1	39	0.00461059	4.63261e-05	0	6.6327e-05	1.11226	0.473497	23.0348	4.28356e-06	2.58033e-05	9.37961e-06	3.4669e-05	8.82714e-06	1.92983e-05	1.37339	0.546045	28.0922	2.45147e-07	2.41097e-07	1.72392e-07	2.99915e-07	2.5655e-07	1.85262e-07	0.00729634	0.00690805	0.0100478	43.4342	17385.5	18362.7	25287.3	-46.5658	0.0000000E+000	0.0000000E+000	0.0000000E+000	46.5658	0.0000000E+000	0.0000000E+000	0.0000000E+000	-46.5658	0.0000000E+000	0.0000000E+000	0.0000000E+000	-43.4342	0.0000000E+000	0.0000000E+000	0.0000000E+000	43.4342	1.05621	46.5658	1.06789e-06
50.2089	84.5204	70.9019	110.321	-39.9924	248.434	0.439548	0.0037488	44.7076	18.4663	1	39	0.00460499	4.17416e-05	0	6.73359e-05	1.14342	0.531369	22.9261	1.95986e-05	1.52061e-05	1.51564e-05	3.08378e-05	2.54814e-05	1.04203e-05	1.65991	0.938835	31.7824	2.33217e-07	2.17323e-07	2.08039e-07	4.112e-07	3.10034e-07	1.36818e-07	0.00694453	0.00582558	0.00906443	39.9924	18466.3	22013.2	28733	-50.0076	0.0000000E+000	0.0000000E+000	0.0000000E+000	50.0076	0.0000000E+000	0.0000000E+000	0.0000000E+000	-50.0076	0.0000000E+000	0.0000000E+000	0.0000000E+000	-39.9924	0.0000000E+000	0.0000000E+000	0.0000000E+000	39.9924	1.19207	50.0076	1.00884e-06
39.8851	97.3145	71.1705	120.563	-36.1797	249.504	0.439565	0.00353148	56.0672	19.5382	1	39	0.00458731	3.80492e-05	0	6.8392e-05	1.44314	0.479406	23.258	1.69313e-05	2.36657e-05	2.62198e-05	2.6469e-05	3.09682e-05	1.52865e-05	2.13917	0.74885	34.3315	1.94604e-07	3.14978e-07	4.09808e-07	1.68106e-07	5.06584e-07	1.29692e-07	0.00669502	0.00489637	0.00829444	36.1797	19538.2	26715.4	33097.6	-53.8203	0.0000000E+000	0.0000000E+000	0.0000000E+000	53.8203	0.0000000E+000	0.0000000E+000	0.0000000E+000	-53.8203	0.0000000E+000	0.0000000E+000	0.0000000E+000	-36.1797	0.0000000E+000	0.0000000E+000	0.0000000E+000	36.1797	1.36734	53.8203	1.05612e-06
31.6723	110.486	72.7262	132.273	-33.3545	250.545	0.439581	0.00336766	69.0956	20.8876	1	39	0.00460947	3.48481e-05	0	6.9406e-05	1.21457	0.684512	23.0044	1.76285e-05	2.29479e-05	1.98828e-05	2.77882e-05	8.56527e-06	2.38584e-05	2.05343	1.29769	37.2496	2.95146e-07	3.43542e-07	2.74009e-07	2.81421e-07	1.72765e-07	2.68901e-07	0.00631484	0.00415669	0.00756011	33.3545	20887.6	31732.4	37990	-56.6455	0.0000000E+000	0.0000000E+000	0.0000000E+000	56.6455	0.0000000E+000	0.0000000E+000	0.0000000E+000	-56.6455	0.0000000E+000	0.0000000E+000	0.0000000E+000	-33.3545	0.0000000E+000	0.0000000E+000	0.0000000E+000	33.3545	1.5192	56.6455	1.01403e-06
25.1691	122.452	70.3944	141.244	-29.8935	251.613	0.439564	0.00356	89.8285	22.3127	1	39	0.00459132	3.25064e-05	0	7.04684e-05	1.25763	0.690411	23.117	1.35672e-05	2.79665e-05	1.3377e-05	2.73269e-05	1.34225e-05	3.03345e-05	2.00243	1.3543	38.9505	2.18e-07	3.38191e-07	1.28454e-07	2.12411e-07	1.35605e-07	3.89113e-07	0.00613799	0.00352857	0.00707996	29.8935	22312.7	38813.1	44769.6	-60.1065	0.0000000E+000	0.0000000E+000	0.0000000E+000	60.1065	0.0000000E+000	0.0000000E+000	0.0000000E+000	-60.1065	0.0000000E+000	0.0000000E+000	0.0000000E+000	-29.8935	0.0000000E+000	0.0000000E+000	0.0000000E+000	29.8935	1.73951	60.1065	1.06235e-06
19.9808	134.29	68.8035	150.89	-27.1283	252.933	0.43954	0.00355711	115.77	24.0712	1	40	0.00461331	3.0574e-05	0	7.18299e-05	2.81311	1.09128	42.5201	4.54142e-05	8.61449e-05	3.98327e-05	4.02892e-05	3.42731e-05	2.9417e-05	0.593116	0.213217	8.43959	9.87507e-08	9.3474e-08	4.03668e-08	5.08492e-08	4.08552e-08	4.17886e-08	0.00589826	0.00302197	0.00662735	27.1283	24071.2	46981.9	52789.4	-62.8717	0.0000000E+000	0.0000000E+000	0.0000000E+000	62.8717	0.0000000E+000	0.0000000E+000	0.0000000E+000	-62.8717	0.0000000E+000	0.0000000E+000	0.0000000E+000	-27.1283	0.0000000E+000	0.0000000E+000	0.0000000E+000	27.1283	1.95179	62.8717	1.36157e-06
15.879	143.66	67.755	158.837	-25.2501	253.972	0.439585	0.00354159	147.929	26.9176	1	40	0.00458754	2.88821e-05	0	7.27502e-05	2.15131	1.07777	41.9886	4.1324e-05	2.81704e-05	3.17154e-05	3.24487e-05	5.59907e-05	3.06725e-05	0.530575	0.284147	8.90422	7.97658e-08	4.36218e-08	5.14303e-08	4.89961e-08	6.69609e-08	5.56265e-08	0.00569424	0.00268559	0.00629578	25.2501	26917.6	57073.1	63102.3	-64.7499	0.0000000E+000	0.0000000E+000	0.0000000E+000	64.7499	0.0000000E+000	0.0000000E+000	0.0000000E+000	-64.7499	0.0000000E+000	0.0000000E+000	0.0000000E+000	-25.2501	0.0000000E+000	0.0000000E+000	0.0000000E+000	25.2501	2.12029	64.7499	9.2032e-07
12.6144	154.5	66.0275	168.018	-23.14	255.142	0.439571	0.00361586	191.087	29.51	1	40	0.00460321	2.73972e-05	0	7.41008e-05	1.42845	1.08168	29.7618	2.88589e-05	1.87094e-05	2.75428e-05	1.47595e-05	2.96021e-05	1.72253e-05	0.474103	0.181702	6.70425	7.75275e-08	5.46789e-08	3.51789e-08	4.27192e-08	5.05817e-08	2.67063e-08	0.00547292	0.00233891	0.00595175	23.14	29510	69051.6	75093	-66.86	0.0000000E+000	0.0000000E+000	0.0000000E+000	66.86	0.0000000E+000	0.0000000E+000	0.0000000E+000	-66.86	0.0000000E+000	0.0000000E+000	0.0000000E+000	-23.14	0.0000000E+000	0.0000000E+000	0.0000000E+000	23.14	2.33994	66.86	1.35052e-06
10.016	165.006	62.9344	176.601	-20.8772	256.202	0.439558	0.00376534	252.485	32.0648	1	40	0.00461274	2.61196e-05	0	7.50806e-05	1.89899	1.33821	41.6905	2.68576e-05	3.79801e-05	3.25459e-05	2.0853e-05	2.76435e-05	5.11425e-05	0.519002	0.442592	9.72959	5.26706e-08	5.89892e-08	5.02197e-08	4.84252e-08	2.47591e-08	6.86763e-08	0.00529074	0.00201792	0.0056625	20.8772	32064.8	84069.8	89977.1	-69.1228	0.0000000E+000	0.0000000E+000	0.0000000E+000	69.1228	0.0000000E+000	0.0000000E+000	0.0000000E+000	-69.1228	0.0000000E+000	0.0000000E+000	0.0000000E+000	-20.8772	0.0000000E+000	0.0000000E+000	0.0000000E+000	20.8772	2.62188	69.1228	9.79872e-07
7.95573	172.853	61.7797	183.562	-19.6675	257.408	0.439561	0.00370029	323.813	36.6793	1	40	0.00459241	2.50183e-05	0	7.62488e-05	1.62017	1.09553	30.5543	1.6494e-05	2.14669e-05	4.04771e-05	3.16651e-05	2.17183e-05	2.67144e-05	0.470147	0.269347	7.50829	5.10236e-08	2.62048e-08	7.39235e-08	4.68114e-08	2.57661e-08	2.77667e-08	0.00512994	0.0018335	0.00544775	19.6675	36679.3	102625	108983	-70.3325	0.0000000E+000	0.0000000E+000	0.0000000E+000	70.3325	0.0000000E+000	0.0000000E+000	0.0000000E+000	-70.3325	0.0000000E+000	0.0000000E+000	0.0000000E+000	-19.6675	0.0000000E+000	0.0000000E+000	0.0000000E+000	19.6675	2.7979	70.3325	1.16815e-06
6.31569	180.926	61.8681	191.212	-18.8782	258.791	0.439571	0.00369445	407.317	42.6418	1	40	0.00458979	2.40037e-05	0	7.7909e-05	1.21765	0.626577	30.6411	2.02339e-05	2.96154e-05	2.12764e-05	2.16284e-05	1.54166e-05	9.32362e-06	0.436157	0.284561	7.93774	6.55464e-08	5.38174e-08	1.78039e-08	4.13153e-08	2.7692e-08	1.42529e-08	0.00494848	0.00169214	0.0052298	18.8782	42641.8	124701	131791	-71.1218	0.0000000E+000	0.0000000E+000	0.0000000E+000	71.1218	0.0000000E+000	0.0000000E+000	0.0000000E+000	-71.1218	0.0000000E+000	0.0000000E+000	0.0000000E+000	-18.8782	0.0000000E+000	0.0000000E+000	0.0000000E+000	18.8782	2.92439	71.1218	1.66022e-06
5.01766	191.009	61.7757	200.751	-17.9221	260.407	0.439595	0.00374338	513.454	48.6209	1	40	0.00461494	2.29884e-05	0	7.95451e-05	1.28264	0.896234	24.8886	3.04048e-05	1.83334e-05	1.89038e-05	3.01615e-05	1.90391e-05	2.06658e-05	0.50977	0.140914	6.82389	7.73482e-08	3.3487e-08	2.87328e-08	4.72248e-08	3.49868e-08	3.31916e-08	0.00473959	0.00153287	0.00498131	17.9221	48620.9	150335	158002	-72.0779	0.0000000E+000	0.0000000E+000	0.0000000E+000	72.0779	0.0000000E+000	0.0000000E+000	0.0000000E+000	-72.0779	0.0000000E+000	0.0000000E+000	0.0000000E+000	-17.9221	0.0000000E+000	0.0000000E+000	0.0000000E+000	17.9221	3.09198	72.0779	1.63606e-06
3.98597	199.448	59.8808	208.243	-16.7115	262.327	0.439604	0.00375109	666.804	55.1358	1	40	0.0045899	2.20411e-05	0	8.1374e-05	1.35019	0.901183	21.4314	1.52585e-05	1.7462e-05	2.35239e-05	2.475e-05	2.43231e-05	3.24561e-05	0.501419	0.341199	6.06044	6.70627e-08	3.55532e-08	1.83974e-08	4.92708e-08	3.16341e-08	4.04825e-08	0.00459927	0.00138085	0.00480209	16.7115	55135.8	183643	191741	-73.2885	0.0000000E+000	0.0000000E+000	0.0000000E+000	73.2885	0.0000000E+000	0.0000000E+000	0.0000000E+000	-73.2885	0.0000000E+000	0.0000000E+000	0.0000000E+000	-16.7115	0.0000000E+000	0.0000000E+000	0.0000000E+000	16.7115	3.33075	73.2885	1.82893e-06
3.16616	210.278	59.5875	218.558	-15.8214	264.634	0.439584	0.00379061	843.591	62.7063	1	40	0.00460136	2.10533e-05	0	8.40173e-05	0.890485	0.531897	19.6186	2.36756e-05	8.72576e-06	1.04029e-05	1.86448e-05	1.86712e-05	9.37852e-06	0.498768	0.218166	5.92771	8.76349e-08	1.74817e-08	1.43398e-08	4.25516e-08	1.9998e-08	1.74169e-08	0.00440212	0.00124745	0.00457545	15.8214	62706.3	221283	229997	-74.1786	0.0000000E+000	0.0000000E+000	0.0000000E+000	74.1786	0.0000000E+000	0.0000000E+000	0.0000000E+000	-74.1786	0.0000000E+000	0.0000000E+000	0.0000000E+000	-15.8214	0.0000000E+000	0.0000000E+000	0.0000000E+000	15.8214	3.52889	74.1786	2.64332e-06
2.51368	221.261	59.0633	229.009	-14.946	267.434	0.439578	0.00386971	1072	71.3056	1	40	0.00460619	2.01136e-05	0	8.69492e-05	0.900648	0.453442	15.8365	2.22047e-05	1.07977e-05	1.17892e-05	1.68526e-05	1.83892e-05	1.29663e-05	0.497273	0.128519	5.11829	8.17658e-08	2.3317e-08	1.95061e-08	2.61859e-08	2.45461e-08	1.46102e-08	0.00421892	0.00112619	0.00436664	14.946	71305.6	267123	276477	-75.054	0.0000000E+000	0.0000000E+000	0.0000000E+000	75.054	0.0000000E+000	0.0000000E+000	0.0000000E+000	-75.054	0.0000000E+000	0.0000000E+000	0.0000000E+000	-14.946	0.0000000E+000	0.0000000E+000	0.0000000E+000	14.946	3.74617	75.054	2.93189e-06
1.99783	232.059	56.8888	238.93	-13.7743	270.857	0.439588	0.00395649	1400.34	79.3866	1	40	0.00459644	1.92376e-05	0	9.0764e-05	0.622125	0.440614	14.0328	1.28391e-05	4.95079e-06	8.36676e-06	9.11588e-06	1.44796e-05	1.38836e-05	0.553736	0.313731	4.8169	9.38119e-08	2.66792e-08	1.75985e-08	2.57609e-08	1.91529e-08	1.66911e-08	0.00406496	0.000996519	0.00418532	13.7743	79386.6	323831	333420	-76.2257	0.0000000E+000	0.0000000E+000	0.0000000E+000	76.2257	0.0000000E+000	0.0000000E+000	0.0000000E+000	-76.2257	0.0000000E+000	0.0000000E+000	0.0000000E+000	-13.7743	0.0000000E+000	0.0000000E+000	0.0000000E+000	13.7743	4.07916	76.2257	3.81478e-06
1.5871	243.803	52.6115	249.415	-12.1774	275.066	0.439581	0.00401171	1906.05	84.8107	1	40	0.00460321	1.8456e-05	0	9.456e-05	0.731765	0.316105	12.7415	1.41394e-05	1.28327e-05	1.28937e-05	7.65703e-06	1.23897e-05	1.56081e-05	0.601826	0.149652	4.59163	9.6205e-08	2.63714e-08	2.44883e-08	2.51862e-08	1.92041e-08	2.18089e-08	0.00391917	0.000845736	0.00400938	12.1774	84810.7	393015	402062	-77.8226	0.0000000E+000	0.0000000E+000	0.0000000E+000	77.8226	0.0000000E+000	0.0000000E+000	0.0000000E+000	-77.8226	0.0000000E+000	0.0000000E+000	0.0000000E+000	-12.1774	0.0000000E+000	0.0000000E+000	0.0000000E+000	12.1774	4.63403	77.8226	3.796e-06
1.25968	252.782	47.5145	257.209	-10.6455	280.271	0.439561	0.00408267	2659.1	90.7433	1	40	0.00459449	1.78629e-05	0	0.000101039	0.548303	0.270428	11.3241	8.23326e-06	1.12269e-05	8.5572e-06	9.51133e-06	8.28349e-06	1.09086e-05	0.474663	0.200745	4.3133	7.85723e-08	1.81367e-08	1.18864e-08	9.84117e-09	1.5301e-08	1.11776e-08	0.00382097	0.000718214	0.00388789	10.6455	90743.3	482764	491218	-79.3545	0.0000000E+000	0.0000000E+000	0.0000000E+000	79.3545	0.0000000E+000	0.0000000E+000	0.0000000E+000	-79.3545	0.0000000E+000	0.0000000E+000	0.0000000E+000	-10.6455	0.0000000E+000	0.0000000E+000	0.0000000E+000	10.6455	5.32011	79.3545	6.47922e-06
1.00122	262.219	41.4597	265.476	-8.98473	288.77	0.439579	0.00410578	3834.12	93.512	1	41	0.00459605	1.73125e-05	0	0.000110323	0.753847	0.497769	13.0544	1.56708e-05	9.30467e-06	1.47142e-05	1.86656e-05	6.10148e-06	1.27408e-05	0.47074	0.119219	0.881526	7.76931e-08	1.60249e-08	8.0543e-09	1.38021e-08	5.11875e-09	4.24923e-09	0.0037206	0.000588268	0.00376682	8.98473	93512	591432	598779	-81.0153	0.0000000E+000	0.0000000E+000	0.0000000E+000	81.0153	0.0000000E+000	0.0000000E+000	0.0000000E+000	-81.0153	0.0000000E+000	0.0000000E+000	0.0000000E+000	-8.98473	0.0000000E+000	0.0000000E+000	0.0000000E+000	8.98473	6.32466	81.0153	9.28417e-06
0.79456	268.875	36.1508	271.295	-7.65761	296.786	0.439575	0.00421546	5540.84	98.3851	1	41	0.00459476	1.69364e-05	0	0.000120739	0.761785	0.256546	11.198	1.01504e-05	9.07137e-06	1.52102e-05	1.65961e-05	1.01354e-05	1.87401e-05	0.535273	0.121765	0.849748	8.44352e-08	2.10066e-08	1.17864e-08	1.87506e-08	6.65443e-09	3.1132e-09	0.00365316	0.000491174	0.00368603	7.65761	98385.1	731749	738333	-82.3424	0.0000000E+000	0.0000000E+000	0.0000000E+000	82.3424	0.0000000E+000	0.0000000E+000	0.0000000E+000	-82.3424	0.0000000E+000	0.0000000E+000	0.0000000E+000	-7.65761	0.0000000E+000	0.0000000E+000	0.0000000E+000	7.65761	7.4376	82.3424	1.04154e-05
0.631645	274.646	29.3703	276.212	-6.10394	306.772	0.439574	0.00434055	8579.04	96.9999	1	41	0.00458944	1.66157e-05	0	0.000130874	0.494571	0.327166	10.0114	7.93946e-06	7.53704e-06	1.04044e-05	1.03367e-05	7.32973e-06	1.03105e-05	0.4543	0.139712	0.810578	7.15254e-08	1.11508e-08	8.35263e-09	1.49455e-08	6.97365e-09	5.77423e-09	0.00359988	0.000384967	0.00362041	6.10394	96999.8	907060	912231	-83.8961	0.0000000E+000	0.0000000E+000	0.0000000E+000	83.8961	0.0000000E+000	0.0000000E+000	0.0000000E+000	-83.8961	0.0000000E+000	0.0000000E+000	0.0000000E+000	-6.10394	0.0000000E+000	0.0000000E+000	0.0000000E+000	6.10394	9.35114	83.8961	1.01352e-05
0.501541	279.924	24.4005	280.986	-4.98178	319.265	0.439558	0.00447127	13005.1	98.0717	1	41	0.0045965	1.63585e-05	0	0.000146433	0.51487	0.154553	9.30037	4.80269e-06	1.28477e-05	1.08012e-05	7.50845e-06	1.08109e-05	6.30574e-06	0.454307	0.136694	0.820721	6.88729e-08	1.15692e-08	5.31641e-09	1.92179e-08	1.00518e-08	9.90526e-09	0.00354545	0.000309051	0.0035589	4.98178	98071.7	1.12509e+06	1.12935e+06	-85.0182	0.0000000E+000	0.0000000E+000	0.0000000E+000	85.0182	0.0000000E+000	0.0000000E+000	0.0000000E+000	-85.0182	0.0000000E+000	0.0000000E+000	0.0000000E+000	-4.98178	0.0000000E+000	0.0000000E+000	0.0000000E+000	4.98178	11.4721	85.0182	1.55594e-05
0.398211	283.792	19.5746	284.466	-3.94574	334.914	0.439569	0.00468742	20418	96.6803	1	41	0.00459218	1.61431e-05	0	0.000168797	0.390011	0.273421	8.03713	9.30279e-06	6.58497e-06	4.28696e-06	7.42575e-06	6.80551e-06	6.56701e-06	0.435773	0.236433	0.769325	6.5831e-08	1.29861e-08	8.74708e-09	1.51989e-08	4.40145e-09	6.48392e-09	0.00350702	0.000241897	0.00351535	3.94574	96680.4	1.40167e+06	1.405e+06	-86.0543	0.0000000E+000	0.0000000E+000	0.0000000E+000	86.0543	0.0000000E+000	0.0000000E+000	0.0000000E+000	-86.0543	0.0000000E+000	0.0000000E+000	0.0000000E+000	-3.94574	0.0000000E+000	0.0000000E+000	0.0000000E+000	3.94574	14.498	86.0543	2.23641e-05
0.316193	288.201	15.878	288.638	-3.15343	354.539	0.439556	0.00493013	31701	95.9301	1	41	0.00459671	1.59255e-05	0	0.000195358	0.38527	0.227059	6.89455	5.95345e-06	4.31648e-06	8.36224e-06	6.44802e-06	5.9725e-06	8.5899e-06	0.476241	0.193577	0.722556	7.27987e-08	7.82095e-09	6.8745e-09	1.17627e-08	9.5556e-09	8.14136e-09	0.0034593	0.000190584	0.00346454	3.15343	95930	1.74123e+06	1.74387e+06	-86.8466	0.0000000E+000	0.0000000E+000	0.0000000E+000	86.8466	0.0000000E+000	0.0000000E+000	0.0000000E+000	-86.8466	0.0000000E+000	0.0000000E+000	0.0000000E+000	-3.15343	0.0000000E+000	0.0000000E+000	0.0000000E+000	3.15343	18.151	86.8466	2.65608e-05
0.251222	292.643	12.8232	292.924	-2.50902	379.158	0.439572	0.00521265	49404.4	94.6785	1	41	0.00459611	1.56905e-05	0	0.000227505	0.357427	0.157187	6.21337	6.7847e-06	7.51501e-06	6.35923e-06	6.02051e-06	5.16672e-06	6.8199e-06	0.419246	0.252151	0.714909	6.05587e-08	1.59444e-08	1.18014e-08	1.08515e-08	5.8082e-09	5.57876e-09	0.00341058	0.000149447	0.00341386	2.50902	94678.4	2.16069e+06	2.16276e+06	-87.491	0.0000000E+000	0.0000000E+000	0.0000000E+000	87.491	0.0000000E+000	0.0000000E+000	0.0000000E+000	-87.491	0.0000000E+000	0.0000000E+000	0.0000000E+000	-2.50902	0.0000000E+000	0.0000000E+000	0.0000000E+000	2.50902	22.8213	87.491	3.21471e-05
0.199573	297.463	10.3654	297.644	-1.99571	410.067	0.439563	0.00556399	76936.5	93.3058	1	41	0.00459556	1.54398e-05	0	0.000271863	0.278362	0.175947	5.63586	1.89199e-06	6.24568e-06	5.2215e-06	7.99536e-06	4.0163e-06	2.07326e-06	0.555584	0.221491	0.713861	8.23546e-08	1.39856e-08	7.62919e-09	9.6581e-09	5.23427e-09	1.22545e-08	0.00335768	0.000117001	0.00335972	1.99571	93305.7	2.67767e+06	2.6793e+06	-88.0043	0.0000000E+000	0.0000000E+000	0.0000000E+000	88.0043	0.0000000E+000	0.0000000E+000	0.0000000E+000	-88.0043	0.0000000E+000	0.0000000E+000	0.0000000E+000	-1.99571	0.0000000E+000	0.0000000E+000	0.0000000E+000	1.99571	28.6978	88.0043	4.43578e-05
0.158419	302.909	8.57711	303.03	-1.62194	448.922	0.439549	0.00594467	117131	93.8387	1	41	0.00459527	1.51644e-05	0	0.000335276	0.283213	0.259905	4.99709	3.56609e-06	2.67505e-06	3.76154e-06	3.617e-06	8.57317e-06	6.23143e-06	0.480355	0.304518	0.624282	6.98699e-08	1.53875e-08	8.20825e-09	7.93785e-09	4.99263e-09	2.02989e-09	0.00329868	9.34047e-05	0.0033	1.62194	93838.6	3.31401e+06	3.31533e+06	-88.3781	0.0000000E+000	0.0000000E+000	0.0000000E+000	88.3781	0.0000000E+000	0.0000000E+000	0.0000000E+000	-88.3781	0.0000000E+000	0.0000000E+000	0.0000000E+000	-1.62194	0.0000000E+000	0.0000000E+000	0.0000000E+000	1.62194	35.316	88.3781	6.34129e-05
0.125939	309.039	7.20485	309.123	-1.33554	497.719	0.439566	0.00653664	175403	95.2847	1	41	0.00459596	1.48677e-05	0	0.000425292	0.307727	0.210697	4.51835	7.21407e-06	8.07877e-06	3.30655e-06	3.36598e-06	2.73065e-06	5.81344e-06	0.405774	0.504412	0.608412	5.52701e-08	1.32946e-08	6.70742e-09	1.50769e-08	6.30665e-09	5.83616e-09	0.00323408	7.53984e-05	0.00323496	1.33554	95284.5	4.08706e+06	4.08817e+06	-88.6645	0.0000000E+000	0.0000000E+000	0.0000000E+000	88.6645	0.0000000E+000	0.0000000E+000	0.0000000E+000	-88.6645	0.0000000E+000	0.0000000E+000	0.0000000E+000	-1.33554	0.0000000E+000	0.0000000E+000	0.0000000E+000	1.33554	42.8932	88.6645	9.00163e-05
0.0999518	315.989	5.96753	316.045	-1.08192	559.122	0.439546	0.0071677	266830	95.1319	1	41	0.00459229	1.45305e-05	0	0.000548555	0.279408	0.222806	4.68624	7.11849e-06	2.95056e-06	5.9304e-06	3.89241e-06	4.38499e-06	4.20303e-06	0.498358	0.558129	0.544828	6.91676e-08	1.43667e-08	6.32023e-09	1.21292e-08	5.39972e-09	3.36262e-09	0.00316354	5.97443e-05	0.00316411	1.08192	95131.9	5.03736e+06	5.03826e+06	-88.9181	0.0000000E+000	0.0000000E+000	0.0000000E+000	88.9181	0.0000000E+000	0.0000000E+000	0.0000000E+000	-88.9181	0.0000000E+000	0.0000000E+000	0.0000000E+000	-1.08192	0.0000000E+000	0.0000000E+000	0.0000000E+000	1.08192	52.9513	88.9181	0.000123262