File: Python/Data/GoldElectrode/240313/240313-CVEIS_PostActivation-Fe2Fe3_5mM-HCl1M-1225RPM-Ag_AgCl_BLF8-Au_RDE_01_CV_C15.mpt
EC-Lab ASCII FILE
Nb header lines : 60

Cyclic Voltammetry

Run on channel : 15 (SN 19485)
User :
Electrode connection : standard
Potential control : Ewe
Ewe ctrl range : min = -1.00 V, max = 1.00 V
Ewe,I filtering : <None>
Safety Limits :
	Do not start on E overload
Channel : Floating
Acquisition started on : 03/13/2024 17:49:36.773
Loaded Setting File :  NONE
Saved on :
	File : 240313-CVEIS_PostActivation-Fe2Fe3_5mM-HCl1M-1225RPM-Ag_AgCl_BLF8-Au_RDE_01_CV_C15.mpr
	Directory : C:\Data\mathias\GoldElectrode\
	Host : 192.168.0.1
Device : VMP-300 (SN 0826)
Address : USB
EC-Lab for windows v11.52 (software)
Internet server v11.52 (firmware)
Command interpretor v11.52 (firmware)
Electrode material :
Initial state :
Electrolyte :
Comments :
Cable : special
Electrode surface area : 0.001 cm²
Characteristic mass : 0.001 g
Equivalent Weight : 0.000 g/eq.
Density : 0.000 g/cm3
Volume (V) : 0.001 cm³
Record EIS quality indicators
Cycle Definition : Charge/Discharge alternance
Ei (V)              0.000
vs.                 Eoc
dE/dt               20.000
dE/dt unit          mV/s
E1 (V)              0.700
vs.                 Ref
Step percent        50
N                   10
E range min (V)     -1.000
E range max (V)     1.000
I Range             Auto
I Range min         Unset
I Range max         Unset
I Range init        Unset
Bandwidth           8
E2 (V)              0.000
vs.                 Ref
nc cycles           1
Reverse Scan        1
Ef (V)              0.000
vs.                 Eoc

mode	ox/red	error	control changes	counter inc.	time/s	control/V	Ewe/V	<I>/mA	cycle number	(Q-Qo)/C	I Range	step time/s	P/W
2	1	0	0	0	0.000000000000000E+000	0.444786	0.445232	0.00808229	1	0.0000000E+000	42	0.000000000000000E+000	3.5985e-06
2	1	0	1	0	0.2687	0.450159	0.449787	0.0279372	1	4.87099e-06	41	0.2549	1.25658e-05
2	1	0	1	0	0.5186	0.455156	0.454697	0.0456821	1	1.4088e-05	41	0.5048	2.07715e-05
2	1	0	1	0	0.7684	0.460154	0.460007	0.0634211	1	2.77335e-05	41	0.7546	2.91742e-05
2	1	0	1	0	1.0183	0.465151	0.464798	0.0811604	1	4.58279e-05	41	1.0045	3.77232e-05
2	1	0	1	0	1.2682	0.470149	0.469886	0.0988395	1	6.83398e-05	41	1.2544	4.64433e-05
2	1	0	1	0	1.5481	0.475746	0.47545	0.11763	1	9.87117e-05	40	1.5343	5.5927e-05
2	1	0	1	0	1.798	0.480745	0.480478	0.134714	1	0.000130412	40	1.7842	6.47268e-05
2	1	0	1	0	2.0478	0.485742	0.485316	0.15149	1	0.000166325	40	2.034	7.35205e-05
2	1	0	1	0	2.2977	0.490739	0.490488	0.167824	1	0.000206399	40	2.2839	8.23157e-05
2	1	0	1	0	2.5476	0.495737	0.495474	0.183352	1	0.000250452	40	2.5338	9.08459e-05
2	1	0	1	0	2.7975	0.500735	0.500477	0.198206	1	0.000298333	40	2.7837	9.91973e-05
2	1	0	1	0	3.0474	0.505732	0.505426	0.212723	1	0.000349844	40	3.0336	0.000107516
2	1	0	1	0	3.2972	0.51073	0.510399	0.226951	1	0.000404892	40	3.2834	0.000115836
2	1	0	1	0	3.5471	0.515727	0.515455	0.240298	1	0.000463387	40	3.5333	0.000123863
2	1	0	1	0	3.797	0.520725	0.520282	0.253171	1	0.000525212	40	3.7832	0.00013172
2	1	0	1	0	4.0469	0.525723	0.525548	0.265651	1	0.000590189	40	4.0331	0.000139612
2	1	0	1	0	4.2968	0.53072	0.530258	0.277522	1	0.000658213	40	4.283	0.000147158
2	1	0	1	0	4.5466	0.535718	0.535272	0.289039	1	0.000729087	40	4.5328	0.000154715
2	1	0	1	0	4.7965	0.540716	0.540461	0.30001	1	0.000802826	40	4.7827	0.000162143
2	1	0	1	0	5.0464	0.545713	0.545402	0.310537	1	0.000879263	40	5.0326	0.000169367
2	1	0	1	0	5.2963	0.550711	0.550474	0.320537	1	0.000958245	40	5.2825	0.000176447
2	1	0	1	0	5.5462	0.555708	0.555445	0.330004	1	0.00103964	40	5.5324	0.000183299
2	1	0	1	0	5.796	0.560705	0.560556	0.339919	1	0.00112334	40	5.7822	0.000190544
2	1	0	1	0	6.0459	0.565704	0.565334	0.348518	1	0.00120946	40	6.0321	0.000197029
2	1	0	1	0	6.2958	0.570701	0.570407	0.357102	1	0.00129775	40	6.282	0.000203693
2	1	0	1	0	6.5457	0.575699	0.575279	0.365723	1	0.00138818	40	6.5319	0.000210393
2	1	0	1	0	6.7956	0.580697	0.580406	0.373594	1	0.00148066	40	6.7818	0.000216837
2	1	0	1	0	7.0455	0.585694	0.585218	0.38159	1	0.00157516	40	7.0317	0.000223313
2	1	0	1	0	7.2953	0.590692	0.590433	0.389522	1	0.00167154	40	7.2815	0.000229987
2	1	0	1	0	7.5452	0.595689	0.595667	0.396833	1	0.00176991	40	7.5314	0.000236381
2	1	0	1	0	7.7951	0.600687	0.600532	0.405214	1	0.00187024	40	7.7813	0.000243344
2	1	0	1	0	8.045	0.605685	0.605319	0.411497	1	0.0019724	40	8.0312	0.000249087
2	1	0	1	0	8.2949	0.610682	0.610334	0.417641	1	0.0020761	40	8.2811	0.0002549
2	1	0	1	0	8.5448	0.615682	0.615527	0.424096	1	0.00218135	40	8.531	0.000261043
2	1	0	1	0	8.7946	0.620678	0.62027	0.43043	1	0.00228815	40	8.7808	0.000266983
2	1	0	1	0	9.0445	0.625675	0.625216	0.436556	1	0.00239657	40	9.0307	0.000272942
2	1	0	1	0	9.2944	0.630673	0.630337	0.443135	1	0.00250652	40	9.2806	0.000279324
2	1	0	1	0	9.5443	0.63567	0.635469	0.448154	1	0.00261796	40	9.5305	0.000284788
2	1	0	1	0	9.7942	0.640668	0.640528	0.454386	1	0.00273082	40	9.7804	0.000291047
2	1	0	1	0	10.044	0.645666	0.645365	0.460948	1	0.00284516	40	10.0302	0.000297479
2	1	0	1	0	10.2939	0.650663	0.650334	0.466174	1	0.0029612	40	10.2801	0.000303169
2	1	0	1	0	10.5438	0.655661	0.655515	0.471977	1	0.00307855	40	10.53	0.000309388
2	1	0	1	0	10.7937	0.660659	0.660372	0.476578	1	0.00319713	40	10.7799	0.000314719
2	1	0	1	0	11.0436	0.665656	0.665335	0.481878	1	0.00331692	40	11.0298	0.00032061
2	1	0	1	0	11.2934	0.670654	0.670355	0.486884	1	0.00343794	40	11.2796	0.000326385
2	1	0	1	0	11.5433	0.675651	0.675362	0.492227	1	0.00356034	40	11.5295	0.000332432
2	1	0	1	0	11.7932	0.680649	0.680312	0.498335	1	0.00368419	40	11.7794	0.000339024
2	1	0	1	0	12.0431	0.685647	0.685391	0.503118	1	0.00380936	40	12.0293	0.000344833
2	1	0	1	0	12.293	0.690644	0.690266	0.508949	1	0.00393582	40	12.2792	0.00035131
2	1	0	1	0	12.5428	0.695642	0.695323	0.514956	1	0.00406382	40	12.529	0.000358061
2	1	0	0	0	12.762	0.700015	0.699539	0.517443	1	0.00417697	40	12.7482	0.000361972
2	1	0	1	0	13.0006	0.695242	0.694992	0.514522	1	0.00429992	40	12.9868	0.000357589
2	1	0	1	0	13.2505	0.690245	0.690093	0.513391	1	0.00442828	40	13.2367	0.000354288
2	1	0	1	0	13.5004	0.685247	0.684942	0.511113	1	0.00455638	40	13.4866	0.000350083
2	1	0	1	0	13.7503	0.680249	0.679764	0.509364	1	0.00468385	40	13.7365	0.000346247
2	1	0	1	0	14.0002	0.675252	0.674878	0.507271	1	0.00481075	40	13.9864	0.000342346
2	1	0	1	0	14.25	0.670255	0.669997	0.503876	1	0.00493696	40	14.2362	0.000337596
2	1	0	1	0	14.4999	0.665256	0.664867	0.503085	1	0.00506264	40	14.4861	0.000334484
2	1	0	1	0	14.7498	0.660259	0.659763	0.500004	1	0.00518778	40	14.736	0.000329884
2	1	0	1	0	14.9997	0.655261	0.654963	0.497168	1	0.00531242	40	14.9859	0.000325626
2	1	0	1	0	15.2496	0.650264	0.6499	0.49485	1	0.00543629	40	15.2358	0.000321603
2	1	0	1	0	15.4994	0.645268	0.645059	0.491571	1	0.0055594	40	15.4856	0.000317092
2	1	0	1	0	15.7493	0.640268	0.63994	0.488468	1	0.0056818	40	15.7355	0.00031259
2	1	0	1	0	15.9992	0.635271	0.634885	0.485984	1	0.00580349	40	15.9854	0.000308544
2	1	0	1	0	16.2491	0.630273	0.629965	0.48257	1	0.00592444	40	16.2353	0.000304002
2	1	0	1	0	16.499	0.625275	0.625081	0.479542	1	0.0060446	40	16.4852	0.000299752
2	1	0	1	0	16.7489	0.620278	0.619858	0.477047	1	0.00616413	40	16.7351	0.000295701
2	1	0	1	0	16.9987	0.61528	0.614877	0.472661	1	0.00628276	40	16.9849	0.000290628
2	1	0	1	0	17.2486	0.610282	0.610078	0.467925	1	0.00640018	40	17.2348	0.000285471
2	1	0	1	0	17.4985	0.605285	0.604973	0.466027	1	0.00651672	40	17.4847	0.000281934
2	1	0	1	0	17.7484	0.600287	0.599855	0.460472	1	0.00663248	40	17.7346	0.000276217
2	1	0	1	0	17.9983	0.59529	0.594908	0.454999	1	0.0067468	40	17.9845	0.000270683
2	1	0	1	0	18.2482	0.590291	0.589939	0.450268	1	0.00685979	40	18.2344	0.000265631
2	1	0	1	0	18.498	0.585294	0.584881	0.444402	1	0.00697151	40	18.4842	0.000259922
2	1	0	1	0	18.7479	0.580297	0.580027	0.439056	1	0.00708179	40	18.7341	0.000254664
2	1	0	1	0	18.9978	0.575299	0.575123	0.433369	1	0.00719069	40	18.984	0.000249241
2	1	0	1	0	19.2477	0.570301	0.569898	0.426324	1	0.0072981	40	19.2339	0.000242961
2	1	0	1	0	19.4976	0.565304	0.56521	0.418613	1	0.00740355	40	19.4838	0.000236604
2	1	0	1	0	19.7474	0.560306	0.559945	0.41133	1	0.00750713	40	19.7336	0.000230322
2	1	0	1	0	19.9973	0.555309	0.554988	0.403444	1	0.00760883	40	19.9835	0.000223906
2	1	0	1	0	20.2472	0.550311	0.549882	0.394238	1	0.00770843	40	20.2334	0.000216785
2	1	0	1	0	20.4971	0.545313	0.544841	0.384312	1	0.00780557	40	20.4833	0.000209389
2	1	0	1	0	20.747	0.540316	0.53991	0.373787	1	0.00790019	40	20.7332	0.000201811
2	1	0	1	0	20.9968	0.535318	0.53491	0.362069	1	0.00799197	40	20.983	0.000193675
2	1	0	1	0	21.2467	0.530321	0.530047	0.349714	1	0.00808078	40	21.2329	0.000185365
2	1	0	1	0	21.4966	0.525323	0.524905	0.336501	1	0.00816638	40	21.4828	0.000176631
2	1	0	1	0	21.7465	0.520325	0.520175	0.322432	1	0.0082486	40	21.7327	0.000167721
2	1	0	1	0	21.9964	0.515328	0.515274	0.30698	1	0.00832707	40	21.9826	0.000158179
2	1	0	1	0	22.2462	0.510331	0.510061	0.290545	1	0.00840156	40	22.2324	0.000148196
2	1	0	1	0	22.4961	0.505332	0.504803	0.273643	1	0.00847188	40	22.4823	0.000138136
2	1	0	1	0	22.746	0.500335	0.500066	0.254908	1	0.00853772	40	22.7322	0.000127471
2	1	0	1	0	22.9959	0.495337	0.495025	0.235185	1	0.00859875	40	22.9821	0.000116423
2	1	0	1	0	23.2458	0.490339	0.489936	0.214568	1	0.00865479	40	23.232	0.000105125
2	1	0	1	0	23.4957	0.485342	0.484991	0.192921	1	0.00870552	40	23.4819	9.35648e-05
2	1	0	1	0	23.7455	0.480344	0.480033	0.170339	1	0.00875073	40	23.7317	8.17682e-05
2	1	0	1	0	23.9954	0.475347	0.47501	0.147756	1	0.00879029	40	23.9816	7.01854e-05
2	1	0	1	0	24.2453	0.470349	0.470106	0.123904	1	0.00882403	40	24.2315	5.82478e-05
2	1	0	1	0	24.4952	0.465351	0.465046	0.0999773	1	0.00885181	40	24.4814	4.64941e-05
2	1	0	1	0	24.7451	0.460354	0.459864	0.0761104	1	0.00887358	40	24.7313	3.50004e-05
2	1	0	1	0	24.9949	0.455356	0.455025	0.0521713	1	0.00888935	40	24.9811	2.37392e-05
2	1	0	1	0	25.2748	0.449759	0.44943	0.0249291	1	0.00890004	41	25.261	1.12039e-05
2	1	0	1	0	25.5247	0.444761	0.444611	0.00194882	1	0.00890337	41	25.5109	8.66468e-07
2	0	0	1	0	25.7746	0.439764	0.439258	-0.0202434	1	0.00890106	41	0.1999	-8.89207e-06
2	0	0	1	0	26.0244	0.434768	0.434299	-0.0416672	1	0.0088933	41	0.4497	-1.8096e-05
2	0	0	1	0	26.2743	0.429768	0.429568	-0.062012	1	0.0088803	41	0.6996	-2.66384e-05
2	0	0	1	0	26.5242	0.424771	0.42438	-0.0812581	1	0.00886236	41	0.9495	-3.44843e-05
2	0	0	1	0	26.7741	0.419773	0.419299	-0.0993813	1	0.00883975	41	1.1994	-4.16704e-05
2	0	0	1	0	27.054	0.414176	0.41373	-0.117382	1	0.00880924	40	1.4793	-4.85645e-05
2	0	0	1	0	27.3038	0.409178	0.408916	-0.133117	1	0.00877764	40	1.7291	-5.44336e-05
2	0	0	1	0	27.5537	0.40418	0.403729	-0.147587	1	0.00874228	40	1.979	-5.95852e-05
2	0	0	1	0	27.8036	0.399183	0.398939	-0.161007	1	0.0087034	40	2.2289	-6.42319e-05
2	0	0	1	0	28.0535	0.394185	0.393731	-0.173451	1	0.0086613	40	2.4788	-6.8293e-05
2	0	0	1	0	28.3034	0.389188	0.388845	-0.185144	1	0.00861616	40	2.7287	-7.19926e-05
2	0	0	1	0	28.5532	0.384192	0.383866	-0.195593	1	0.00856829	40	2.9785	-7.50815e-05
2	0	0	1	0	28.8031	0.379192	0.378988	-0.205134	1	0.00851788	40	3.2284	-7.77434e-05
2	0	0	1	0	29.053	0.374195	0.373855	-0.214242	1	0.00846519	40	3.4783	-8.00954e-05
2	0	0	1	0	29.3029	0.369197	0.369049	-0.222358	1	0.00841028	40	3.7282	-8.20611e-05
2	0	0	1	0	29.5528	0.364199	0.363776	-0.23029	1	0.0083534	40	3.9781	-8.37738e-05
2	0	0	1	0	29.8027	0.359202	0.358932	-0.236689	1	0.00829469	40	4.228	-8.49552e-05
2	0	0	1	0	30.0525	0.354204	0.353691	-0.243042	1	0.00823449	40	4.4778	-8.59617e-05
2	0	0	1	0	30.3024	0.349207	0.348713	-0.24878	1	0.0081727	40	4.7277	-8.67528e-05
2	0	0	1	0	30.5523	0.344209	0.343933	-0.25386	1	0.00810957	40	4.9776	-8.73108e-05
2	0	0	1	0	30.8022	0.339211	0.338966	-0.258859	1	0.00804523	40	5.2275	-8.77445e-05
2	0	0	1	0	31.0521	0.334214	0.333945	-0.263637	1	0.00797958	40	5.4774	-8.80402e-05
2	0	0	1	0	31.302	0.329215	0.328844	-0.268165	1	0.00791283	40	5.7273	-8.81844e-05
2	0	0	1	0	31.5518	0.324218	0.323922	-0.271899	1	0.00784506	40	5.9771	-8.80743e-05
2	0	0	1	0	31.8017	0.319221	0.318943	-0.275009	1	0.00777643	40	6.227	-8.77121e-05
2	0	0	1	0	32.0516	0.314223	0.314069	-0.278432	1	0.00770697	40	6.4769	-8.74467e-05
2	0	0	1	0	32.3015	0.309226	0.308972	-0.281439	1	0.00763668	40	6.7268	-8.69569e-05
2	0	0	1	0	32.5514	0.304227	0.304045	-0.284827	1	0.00756556	40	6.9767	-8.66002e-05
2	0	0	1	0	32.8012	0.29923	0.299023	-0.287203	1	0.00749383	40	7.2265	-8.58802e-05
2	0	0	1	0	33.0511	0.294233	0.294173	-0.289856	1	0.00742145	40	7.4764	-8.52676e-05
2	0	0	1	0	33.301	0.289235	0.289055	-0.292598	1	0.00734832	40	7.7263	-8.4577e-05
2	0	0	1	0	33.5509	0.284237	0.283771	-0.294078	1	0.00727466	40	7.9762	-8.34509e-05
2	0	0	1	0	33.8008	0.27924	0.278945	-0.296766	1	0.00720049	40	8.2261	-8.27814e-05
2	0	0	1	0	34.0506	0.274242	0.273887	-0.298811	1	0.00712575	40	8.4759	-8.18404e-05
2	0	0	1	0	34.3005	0.269245	0.269013	-0.300727	1	0.00705049	40	8.7258	-8.08995e-05
2	0	0	1	0	34.5504	0.264247	0.264034	-0.302269	1	0.0069748	40	8.9757	-7.98092e-05
2	0	0	1	0	34.8003	0.259249	0.258989	-0.304086	1	0.00689869	40	9.2256	-7.87547e-05
2	0	0	1	0	35.0502	0.254252	0.254115	-0.306487	1	0.00682213	40	9.4755	-7.78829e-05
2	0	0	1	0	35.3	0.249255	0.249012	-0.307825	1	0.00674501	40	9.7253	-7.66522e-05
2	0	0	1	0	35.5499	0.244256	0.243767	-0.309404	1	0.00666758	40	9.9752	-7.54224e-05
2	0	0	1	0	35.7998	0.239259	0.239125	-0.310396	1	0.00658981	40	10.2251	-7.42235e-05
2	0	0	1	0	36.0497	0.234261	0.233636	-0.311864	1	0.00651167	40	10.475	-7.28627e-05
2	0	0	1	0	36.2996	0.229264	0.228835	-0.313747	1	0.0064332	40	10.7249	-7.17963e-05
2	0	0	1	0	36.5495	0.224266	0.223879	-0.315965	1	0.00635414	40	10.9748	-7.07379e-05
2	0	0	1	0	36.7993	0.219268	0.219276	-0.317116	1	0.00627468	40	11.2246	-6.95358e-05
2	0	0	1	0	37.0492	0.214271	0.214068	-0.31806	1	0.00619497	40	11.4745	-6.80862e-05
2	0	0	1	0	37.2991	0.209273	0.209168	-0.318594	1	0.0061151	40	11.7244	-6.66399e-05
2	0	0	1	0	37.549	0.204275	0.204045	-0.319775	1	0.00603497	40	11.9743	-6.52483e-05
2	0	0	1	0	37.7989	0.199278	0.198934	-0.321991	1	0.00595451	40	12.2242	-6.40548e-05
2	0	0	1	0	38.0487	0.19428	0.194064	-0.3228	1	0.00587354	40	12.474	-6.26441e-05
2	0	0	1	0	38.2986	0.189283	0.189009	-0.324258	1	0.00579231	40	12.7239	-6.12877e-05
2	0	0	1	0	38.5485	0.184285	0.184127	-0.325499	1	0.00571081	40	12.9738	-5.99333e-05
2	0	0	1	0	38.7984	0.179287	0.179048	-0.325929	1	0.00562904	40	13.2237	-5.8357e-05
2	0	0	1	0	39.0483	0.17429	0.173991	-0.326367	1	0.00554718	40	13.4736	-5.67849e-05
2	0	0	1	0	39.2982	0.169291	0.169158	-0.327636	1	0.00546511	40	13.7235	-5.54222e-05
2	0	0	1	0	39.548	0.164294	0.163941	-0.33022	1	0.00538257	40	13.9733	-5.41367e-05
2	0	0	1	0	39.7979	0.159297	0.159208	-0.33087	1	0.00529954	40	14.2232	-5.2677e-05
2	0	0	1	0	40.0478	0.154299	0.154109	-0.330481	1	0.00521668	40	14.4731	-5.09302e-05
2	0	0	1	0	40.2977	0.149302	0.148938	-0.330536	1	0.00513359	40	14.723	-4.92294e-05
2	0	0	1	0	40.5476	0.144304	0.14415	-0.330921	1	0.00505063	40	14.9729	-4.77021e-05
2	0	0	1	0	40.7974	0.139306	0.138947	-0.331303	1	0.00496767	40	15.2227	-4.60334e-05
2	0	0	1	0	41.0473	0.134309	0.134005	-0.333156	1	0.00488422	40	15.4726	-4.46447e-05
2	0	0	1	0	41.2972	0.129311	0.129123	-0.333922	1	0.00480051	40	15.7225	-4.31171e-05
2	0	0	1	0	41.5471	0.124313	0.123982	-0.333775	1	0.00471685	40	15.9724	-4.1382e-05
2	0	0	1	0	41.797	0.119316	0.119093	-0.334456	1	0.00463298	40	16.2223	-3.98314e-05
2	0	0	1	0	42.0468	0.114318	0.113997	-0.334663	1	0.00454913	40	16.4721	-3.81505e-05
2	0	0	1	0	42.2967	0.109321	0.108976	-0.334538	1	0.00446508	40	16.722	-3.64566e-05
2	0	0	1	0	42.5466	0.104323	0.10411	-0.335354	1	0.00438101	40	16.9719	-3.49136e-05
2	0	0	1	0	42.7965	0.0993253	0.0992597	-0.335202	1	0.00429692	40	17.2218	-3.32721e-05
2	0	0	1	0	43.0464	0.0943277	0.0939308	-0.336403	1	0.0042127	40	17.4717	-3.15986e-05
2	0	0	1	0	43.2962	0.0893314	0.0892217	-0.336626	1	0.00412825	40	17.7215	-3.00344e-05
2	0	0	1	0	43.5461	0.0843324	0.0839538	-0.336996	1	0.00404378	40	17.9714	-2.82921e-05
2	0	0	1	0	43.796	0.0793348	0.0788926	-0.336379	1	0.0039593	40	18.2213	-2.65378e-05
2	0	0	1	0	44.0459	0.0743372	0.0741061	-0.337307	1	0.00387476	40	18.4712	-2.49965e-05
2	0	0	1	0	44.2958	0.0693396	0.0691541	-0.337928	1	0.00379008	40	18.7211	-2.33691e-05
2	0	0	1	0	44.5457	0.0643419	0.0640932	-0.339051	1	0.00370521	40	18.971	-2.17309e-05
2	0	0	1	0	44.7955	0.0593443	0.0590374	-0.339034	1	0.00362028	40	19.2208	-2.00157e-05
2	0	0	1	0	45.0454	0.0543467	0.0542459	-0.339867	1	0.00353518	40	19.4707	-1.84364e-05
2	0	0	1	0	45.2953	0.0493491	0.0490302	-0.338938	1	0.00344992	40	19.7206	-1.66182e-05
2	0	0	1	0	45.5452	0.0443514	0.0439213	-0.339805	1	0.00336483	40	19.9705	-1.49247e-05
2	0	0	1	0	45.7951	0.0393538	0.0390379	-0.339401	1	0.00327973	40	20.2204	-1.32495e-05
2	0	0	1	0	46.045	0.0343544	0.0340353	-0.339561	1	0.0031946	40	20.4703	-1.15571e-05
2	0	0	1	0	46.2948	0.0293586	0.0290994	-0.339531	1	0.00310962	40	20.7201	-9.88014e-06
2	0	0	1	0	46.5447	0.0243609	0.0241698	-0.340302	1	0.00302421	40	20.97	-8.22503e-06
2	0	0	1	0	46.7946	0.0193633	0.0192122	-0.340897	1	0.00293888	40	21.2199	-6.54937e-06
2	0	0	1	0	47.0445	0.0143657	0.0141018	-0.340073	1	0.00285338	40	21.4698	-4.79565e-06
2	0	0	1	0	47.2944	0.00936762	0.00912364	-0.340696	1	0.00276806	40	21.7197	-3.10839e-06
2	0	0	1	0	47.5442	0.00437044	0.00404511	-0.340807	1	0.0026827	40	21.9695	-1.3786e-06
2	0	0	1	1	47.7634	2.47783e-06	0.000361515	-0.341254	1	0.00260782	40	22.1887	-1.23368e-07
2	0	0	1	1	48.0021	0.00477025	0.0044003	-0.340946	1	0.00252665	40	22.4274	-1.50026e-06
2	0	0	1	1	48.2519	0.00976788	0.00923982	-0.341439	1	0.00244138	40	22.6772	-3.15483e-06
2	0	0	1	1	48.5018	0.0147655	0.0144567	-0.340928	1	0.00235644	40	22.9271	-4.92871e-06
2	0	0	1	1	48.7517	0.0197631	0.0197349	-0.340304	1	0.00227162	40	23.177	-6.71584e-06
2	0	0	1	1	49.0016	0.0247608	0.0242681	-0.339838	1	0.00218685	40	23.4269	-8.24723e-06
2	0	0	1	1	49.2515	0.0297584	0.0295474	-0.339277	1	0.00210228	40	23.6768	-1.00247e-05
2	0	0	1	1	49.5013	0.034756	0.0345837	-0.338572	1	0.00201791	40	23.9266	-1.17091e-05
2	0	0	1	1	49.7512	0.0397536	0.0396052	-0.338335	1	0.00193362	40	24.1765	-1.33999e-05
2	0	0	1	1	50.0011	0.0447513	0.0445604	-0.338157	1	0.00184939	40	24.4264	-1.50684e-05
2	0	0	1	1	50.251	0.0497489	0.0494449	-0.338131	1	0.00176515	40	24.6763	-1.67188e-05
2	0	0	1	1	50.5009	0.0547465	0.0542738	-0.338137	1	0.00168095	40	24.9262	-1.8352e-05
2	0	0	1	1	50.7508	0.059745	0.0594637	-0.339321	1	0.00159653	40	25.1761	-2.01773e-05
2	0	0	1	1	51.0006	0.0647418	0.064549	-0.338533	1	0.00151204	40	25.4259	-2.1852e-05
2	0	0	1	1	51.2505	0.0697394	0.0695456	-0.336842	1	0.00142795	40	25.6758	-2.34259e-05
2	0	0	1	1	51.5004	0.074737	0.0743391	-0.33518	1	0.0013443	40	25.9257	-2.49169e-05
2	0	0	1	1	51.7503	0.0797346	0.0796121	-0.33522	1	0.00126068	40	26.1756	-2.66875e-05
2	0	0	1	1	52.0002	0.0847323	0.0845588	-0.334429	1	0.00117725	40	26.4255	-2.82789e-05
2	0	0	1	1	52.25	0.0897299	0.0893267	-0.334809	1	0.001094	40	26.6753	-2.99074e-05
2	0	0	1	1	52.4999	0.0947275	0.0944194	-0.332344	1	0.00101065	40	26.9252	-3.13797e-05
2	0	0	1	1	52.7498	0.0997251	0.0994545	-0.330885	1	0.000928073	40	27.1751	-3.29079e-05
2	0	0	1	1	52.9997	0.104723	0.104296	-0.331024	1	0.000845576	40	27.425	-3.45245e-05
2	0	0	1	1	53.2496	0.10972	0.109421	-0.329862	1	0.000763188	40	27.6749	-3.60937e-05
2	0	0	1	1	53.4994	0.114718	0.114352	-0.329269	1	0.000681055	40	27.9247	-3.76524e-05
2	0	0	1	1	53.7493	0.119716	0.119335	-0.328753	1	0.000599099	40	28.1746	-3.92317e-05
2	0	0	1	1	53.9992	0.124713	0.124327	-0.328634	1	0.000517289	40	28.4245	-4.08581e-05
2	0	0	1	1	54.2491	0.129711	0.12947	-0.326684	1	0.000435596	40	28.6744	-4.22958e-05
2	0	0	1	1	54.499	0.134708	0.134461	-0.32473	1	0.000354403	40	28.9243	-4.36634e-05
2	0	0	1	1	54.7488	0.139705	0.139299	-0.323505	1	0.000273623	40	29.1741	-4.5064e-05
2	0	0	1	1	54.9987	0.144704	0.144417	-0.322468	1	0.000193087	40	29.424	-4.65699e-05
2	0	0	1	1	55.2486	0.149701	0.149458	-0.321522	1	0.000112894	40	29.6739	-4.80542e-05
2	0	0	1	1	55.4985	0.154699	0.154377	-0.320445	1	3.29177e-05	40	29.9238	-4.94695e-05
2	0	0	1	1	55.7484	0.159697	0.159263	-0.318525	1	-4.67129e-05	40	30.1737	-5.07293e-05
2	0	0	1	1	55.9983	0.164694	0.164317	-0.318572	1	-0.000126166	40	30.4236	-5.23469e-05
2	0	0	1	1	56.2481	0.169692	0.169342	-0.315791	1	-0.000205071	40	30.6734	-5.34768e-05
2	0	0	1	1	56.498	0.17469	0.174289	-0.313852	1	-0.000283544	40	30.9233	-5.47008e-05
2	0	0	1	1	56.7479	0.179687	0.179385	-0.312334	1	-0.0003616	40	31.1732	-5.6028e-05
2	0	0	1	1	56.9978	0.184685	0.184343	-0.310735	1	-0.000439175	40	31.4231	-5.72818e-05
2	0	0	1	1	57.2477	0.189682	0.189247	-0.308825	1	-0.000516363	40	31.673	-5.84443e-05
2	0	0	1	1	57.4976	0.194682	0.194351	-0.306772	1	-0.000593117	40	31.9229	-5.96216e-05
2	0	0	1	1	57.7474	0.199678	0.199453	-0.304593	1	-0.000669219	40	32.1727	-6.0752e-05
2	0	0	1	1	57.9973	0.204675	0.204287	-0.302537	1	-0.000744829	40	32.4226	-6.18043e-05
2	0	0	1	1	58.2472	0.209673	0.209614	-0.300533	1	-0.000819934	40	32.6725	-6.29957e-05
2	0	0	1	1	58.4971	0.214671	0.21439	-0.297879	1	-0.00089444	40	32.9224	-6.38621e-05
2	0	0	1	1	58.747	0.219669	0.219538	-0.29587	1	-0.000968379	40	33.1723	-6.49546e-05
2	0	0	1	1	58.9968	0.224666	0.224336	-0.293959	1	-0.00104176	40	33.4221	-6.59456e-05
2	0	0	1	1	59.2467	0.229663	0.229445	-0.291363	1	-0.00111465	40	33.672	-6.68519e-05
2	0	0	1	1	59.4966	0.234661	0.234287	-0.288782	1	-0.00118688	40	33.9219	-6.7658e-05
2	0	0	1	1	59.7465	0.239659	0.239283	-0.28697	1	-0.00125854	40	34.1718	-6.86671e-05
2	0	0	1	1	59.9964	0.244656	0.244336	-0.284078	1	-0.00132963	40	34.4217	-6.94107e-05
2	0	0	1	1	60.2462	0.249654	0.249321	-0.281758	1	-0.00139996	40	34.6715	-7.02482e-05
2	0	0	1	1	60.4961	0.254651	0.254247	-0.279395	1	-0.00146976	40	34.9214	-7.10354e-05
2	0	0	1	1	60.746	0.259649	0.259458	-0.276189	1	-0.00153884	40	35.1713	-7.16595e-05
2	0	0	1	1	60.9959	0.264647	0.264219	-0.27426	1	-0.00160729	40	35.4212	-7.24646e-05
2	0	0	1	1	61.2458	0.269644	0.269369	-0.271232	1	-0.00167516	40	35.6711	-7.30617e-05
2	0	0	1	1	61.4956	0.274642	0.274213	-0.26793	1	-0.00174215	40	35.9209	-7.34698e-05
2	0	0	1	1	61.7455	0.27964	0.279272	-0.26591	1	-0.00180853	40	36.1708	-7.42611e-05
2	0	0	1	1	61.9954	0.284637	0.284248	-0.264211	1	-0.00187443	40	36.4207	-7.51014e-05
2	0	0	1	1	62.2453	0.289635	0.289458	-0.262746	1	-0.00193996	40	36.6706	-7.60537e-05
2	0	0	1	1	62.4952	0.294632	0.294375	-0.260734	1	-0.00200502	40	36.9205	-7.67537e-05
2	0	0	1	1	62.745	0.299628	0.299293	-0.258845	1	-0.00206961	40	37.1703	-7.74705e-05
2	0	0	1	1	62.9949	0.304628	0.304121	-0.256971	1	-0.00213377	40	37.4202	-7.81502e-05
2	0	0	1	1	63.2448	0.309625	0.309109	-0.255358	1	-0.00219748	40	37.6701	-7.89333e-05
2	0	0	1	1	63.4947	0.314623	0.314245	-0.253514	1	-0.00226078	40	37.92	-7.96656e-05
2	0	0	1	1	63.7446	0.319621	0.319378	-0.2512	1	-0.00232354	40	38.1699	-8.02277e-05
2	0	0	1	1	63.9945	0.324618	0.324379	-0.249212	1	-0.00238575	40	38.4198	-8.08393e-05
2	0	0	1	1	64.2443	0.329616	0.329311	-0.2468	1	-0.00244738	40	38.6696	-8.12742e-05
2	0	0	1	1	64.4942	0.334614	0.334267	-0.243486	1	-0.00250833	40	38.9195	-8.13892e-05
2	0	0	1	1	64.7441	0.339611	0.339312	-0.24029	1	-0.00256847	40	39.1694	-8.15334e-05
2	0	0	1	1	64.994	0.344609	0.344305	-0.236209	1	-0.00262775	40	39.4193	-8.13279e-05
2	0	0	1	1	65.2439	0.349606	0.349318	-0.23177	1	-0.0026859	40	39.6692	-8.09614e-05
2	0	0	1	1	65.4938	0.354605	0.354333	-0.22621	1	-0.00274282	40	39.9191	-8.01539e-05
2	0	0	1	1	65.7436	0.359602	0.359336	-0.220278	1	-0.00279827	40	40.1689	-7.91538e-05
2	0	0	1	1	65.9935	0.364599	0.364358	-0.213817	1	-0.00285223	40	40.4188	-7.7906e-05
2	0	0	1	1	66.2434	0.369597	0.369283	-0.206274	1	-0.00290442	40	40.6687	-7.61735e-05
2	0	0	1	1	66.4933	0.374594	0.374192	-0.197851	1	-0.00295464	40	40.9186	-7.40342e-05
2	0	0	1	1	66.7432	0.379592	0.379445	-0.188375	1	-0.0030026	40	41.1685	-7.1478e-05
2	0	0	1	1	66.993	0.38459	0.384158	-0.178149	1	-0.0030481	40	41.4183	-6.84373e-05
2	0	0	1	1	67.2429	0.389587	0.389396	-0.167356	1	-0.00309098	40	41.6682	-6.51676e-05
2	0	0	1	1	67.4928	0.394585	0.394335	-0.155409	1	-0.00313104	40	41.9181	-6.12834e-05
2	0	0	1	1	67.7427	0.399583	0.399322	-0.142971	1	-0.00316805	40	42.168	-5.70916e-05
2	0	0	1	1	67.9926	0.40458	0.40431	-0.129307	1	-0.0032018	40	42.4179	-5.22802e-05
2	0	0	1	1	68.2424	0.409578	0.409245	-0.115062	1	-0.00323205	40	42.6677	-4.70885e-05
2	0	0	1	1	68.4923	0.414576	0.41449	-0.0996071	1	-0.00325863	40	42.9176	-4.12862e-05
2	0	0	1	1	68.7422	0.419573	0.419345	-0.0832999	1	-0.00328121	40	43.1675	-3.49314e-05
2	0	0	1	1	68.9921	0.424571	0.424277	-0.0660603	1	-0.00329961	40	43.4174	-2.80279e-05
2	0	0	1	1	69.242	0.429568	0.429368	-0.0479732	1	-0.00331359	40	43.6673	-2.05982e-05
2	0	0	1	1	69.5218	0.435166	0.434489	-0.0258034	1	-0.00332382	41	43.9471	-1.12113e-05
2	0	0	1	1	69.7717	0.440163	0.439471	-0.00606456	1	-0.00332781	41	44.197	-2.6652e-06
2	1	0	1	1	69.9816	0.444361	0.44411	0.0109531	2	-0.00332729	41	0.1099	4.86436e-06
2	1	0	1	1	70.2315	0.449359	0.449274	0.0317433	2	-0.00332195	41	0.3598	1.42614e-05
2	1	0	1	1	70.4814	0.454357	0.454172	0.0529479	2	-0.00331135	41	0.6097	2.40474e-05
2	1	0	1	1	70.7313	0.459354	0.459232	0.0744221	2	-0.00329543	41	0.8596	3.4177e-05
2	1	0	1	1	70.9811	0.464352	0.46398	0.0957506	2	-0.00327416	41	1.1094	4.44264e-05
2	1	0	1	1	71.261	0.469949	0.469561	0.118986	2	-0.00324402	40	1.3893	5.58715e-05
2	1	0	1	1	71.5109	0.474947	0.474736	0.139869	2	-0.00321146	40	1.6392	6.6401e-05
2	1	0	1	1	71.7608	0.479944	0.479552	0.160476	2	-0.00317368	40	1.8891	7.69567e-05
2	1	0	1	1	72.0106	0.484941	0.484603	0.180351	2	-0.00313087	40	2.1389	8.73988e-05
2	1	0	1	1	72.2605	0.48994	0.489707	0.200048	2	-0.00308312	40	2.3888	9.79648e-05
2	1	0	1	1	72.5104	0.494937	0.494804	0.218586	2	-0.0030306	40	2.6387	0.000108157
2	1	0	1	1	72.7603	0.499935	0.499638	0.235993	2	-0.0029736	40	2.8886	0.000117911
2	1	0	1	1	73.0102	0.504933	0.504541	0.252644	2	-0.00291234	40	3.1385	0.000127469
2	1	0	1	1	73.2601	0.50993	0.509522	0.268488	2	-0.002847	40	3.3884	0.000136801
2	1	0	1	1	73.5099	0.514928	0.514577	0.283711	2	-0.00277779	40	3.6382	0.000145991
2	1	0	1	1	73.7598	0.519925	0.519721	0.298349	2	-0.00270489	40	3.8881	0.000155058
2	1	0	1	1	74.0097	0.524923	0.524754	0.310901	2	-0.00262855	40	4.138	0.000163146
2	1	0	1	1	74.2596	0.529921	0.529418	0.322911	2	-0.00254917	40	4.3879	0.000170955
2	1	0	1	1	74.5095	0.534918	0.534671	0.335375	2	-0.0024667	40	4.6378	0.000179315
2	1	0	1	1	74.7594	0.539918	0.539493	0.345703	2	-0.00238144	40	4.8877	0.000186505
2	1	0	1	1	75.0092	0.544914	0.544784	0.355886	2	-0.00229366	40	5.1375	0.000193881
2	1	0	1	1	75.2591	0.549911	0.549757	0.365638	2	-0.00220333	40	5.3874	0.000201012
2	1	0	1	1	75.509	0.554909	0.554442	0.374505	2	-0.00211071	40	5.6373	0.000207641
2	1	0	1	1	75.7589	0.559906	0.559729	0.382493	2	-0.00201599	40	5.8872	0.000214092
2	1	0	1	1	76.0088	0.564905	0.564547	0.390378	2	-0.00191932	40	6.1371	0.000220387
2	1	0	1	1	76.2586	0.569902	0.569631	0.3977	2	-0.00182076	40	6.3869	0.000226543
2	1	0	1	1	76.5085	0.574899	0.574629	0.405404	2	-0.00172026	40	6.6368	0.000232957
2	1	0	1	1	76.7584	0.579897	0.5794	0.41206	2	-0.001618	40	6.8867	0.000238747
2	1	0	1	1	77.0083	0.584895	0.584463	0.418983	2	-0.00151408	40	7.1366	0.00024488
2	1	0	1	1	77.2582	0.589892	0.589682	0.424774	2	-0.00140853	40	7.3865	0.000250482
2	1	0	1	1	77.508	0.59489	0.594473	0.430051	2	-0.00130162	40	7.6363	0.000255654
2	1	0	1	1	77.7579	0.599887	0.59959	0.435939	2	-0.00119329	40	7.8862	0.000261384
2	1	0	1	1	78.0078	0.604885	0.604499	0.442109	2	-0.00108348	40	8.1361	0.000267254
2	1	0	1	1	78.2577	0.609883	0.609606	0.446934	2	-0.00097226	40	8.386	0.000272453
2	1	0	1	1	78.5076	0.61488	0.614471	0.450533	2	-0.000860119	40	8.6359	0.00027684
2	1	0	1	1	78.7574	0.619877	0.619472	0.45563	2	-0.000746849	40	8.8857	0.00028225
2	1	0	1	1	79.0073	0.624876	0.624617	0.460356	2	-0.00063236	40	9.1356	0.000287546
2	1	0	1	1	79.2572	0.629873	0.629799	0.464422	2	-0.000516692	40	9.3855	0.000292492
2	1	0	1	1	79.5071	0.634871	0.634309	0.468652	2	-0.000400039	40	9.6354	0.00029727
2	1	0	1	1	79.757	0.639868	0.639566	0.47247	2	-0.000282428	40	9.8853	0.000302175
2	1	0	1	1	80.0068	0.644864	0.644199	0.477568	2	-0.000163689	40	10.1351	0.000307649
2	1	0	1	1	80.2567	0.649864	0.649635	0.481716	2	-4.37114e-05	40	10.385	0.00031294
2	1	0	1	1	80.5066	0.654861	0.654345	0.485309	2	7.71115e-05	40	10.6349	0.00031756
2	1	0	1	1	80.7565	0.659859	0.659535	0.488631	2	0.000198878	40	10.8848	0.000322269
2	1	0	1	1	81.0064	0.664857	0.664672	0.492978	2	0.000321614	40	11.1347	0.000327669
2	1	0	1	1	81.2563	0.669854	0.6696	0.496134	2	0.000445273	40	11.3846	0.000332211
2	1	0	1	1	81.5061	0.674852	0.674747	0.500467	2	0.000569739	40	11.6344	0.000337689
2	1	0	1	1	81.756	0.67985	0.679548	0.505615	2	0.000695534	40	11.8843	0.00034359
2	1	0	1	1	82.0059	0.684847	0.684641	0.510891	2	0.00082284	40	12.1342	0.000349777
2	1	0	1	1	82.2558	0.689845	0.689588	0.515412	2	0.000951009	40	12.3841	0.000355422
2	1	0	1	1	82.5057	0.694842	0.69452	0.518123	2	0.00108017	40	12.634	0.000359847
2	1	0	1	1	82.7531	0.699792	0.699314	0.523407	2	0.00120898	40	12.8814	0.000366026
2	1	0	1	1	82.9784	0.695744	0.695384	0.519531	2	0.00132647	40	13.1067	0.000361274
2	1	0	1	1	83.2283	0.690744	0.690453	0.517612	2	0.00145586	40	13.3566	0.000357387
2	1	0	1	1	83.4782	0.685747	0.685302	0.515553	2	0.00158486	40	13.6065	0.00035331
2	1	0	1	1	83.7281	0.680749	0.68043	0.512401	2	0.00171326	40	13.8564	0.000348653
2	1	0	1	1	83.978	0.675751	0.675351	0.511324	2	0.00184114	40	14.1063	0.000345323
2	1	0	1	1	84.2279	0.670754	0.670537	0.50934	2	0.00196863	40	14.3562	0.000341532
2	1	0	1	1	84.4777	0.665756	0.665393	0.507099	2	0.00209559	40	14.606	0.00033742
2	1	0	1	1	84.7276	0.660759	0.66047	0.505602	2	0.00222206	40	14.8559	0.000333935
2	1	0	1	1	84.9775	0.655761	0.655436	0.503647	2	0.00234824	40	15.1058	0.000330108
2	1	0	1	1	85.2274	0.650763	0.650426	0.499482	2	0.00247347	40	15.3557	0.000324876
2	1	0	1	1	85.4773	0.645766	0.645411	0.497691	2	0.00259798	40	15.6056	0.000321216
2	1	0	1	1	85.7272	0.640767	0.640373	0.494807	2	0.00272195	40	15.8555	0.000316861
2	1	0	1	1	85.977	0.63577	0.635596	0.491931	2	0.00284519	40	16.1053	0.000312669
2	1	0	1	1	86.2269	0.630773	0.630396	0.489038	2	0.00296761	40	16.3552	0.000308287
2	1	0	1	1	86.4768	0.625775	0.625333	0.485515	2	0.00308929	40	16.6051	0.000303609
2	1	0	1	1	86.7267	0.620777	0.620349	0.482773	2	0.0032102	40	16.855	0.000299488
2	1	0	1	1	86.9766	0.61578	0.615551	0.477749	2	0.00333012	40	17.1049	0.000294079
2	1	0	1	1	87.2264	0.610782	0.610442	0.474231	2	0.00344913	40	17.3547	0.000289491
2	1	0	1	1	87.4763	0.605785	0.605442	0.471859	2	0.00356722	40	17.6046	0.000285683
2	1	0	1	1	87.7262	0.600787	0.600576	0.467225	2	0.00368449	40	17.8545	0.000280604
2	1	0	1	1	87.9761	0.595789	0.595421	0.461704	2	0.00380045	40	18.1044	0.000274908
2	1	0	1	1	88.226	0.590792	0.590429	0.457622	2	0.00391525	40	18.3543	0.000270193
2	1	0	1	1	88.4758	0.585794	0.585577	0.452849	2	0.0040289	40	18.6041	0.000265178
2	1	0	1	1	88.7257	0.580797	0.580387	0.447545	2	0.00414135	40	18.854	0.000259749
2	1	0	1	1	88.9756	0.575799	0.575417	0.440918	2	0.00425222	40	19.1039	0.000253712
2	1	0	1	1	89.2255	0.570801	0.570492	0.434786	2	0.00436154	40	19.3538	0.000248042
2	1	0	1	1	89.4754	0.565804	0.565592	0.427967	2	0.00446921	40	19.6037	0.000242055
2	1	0	1	1	89.7252	0.560807	0.560506	0.419593	2	0.004575	40	19.8535	0.000235184
2	1	0	1	1	89.9751	0.555808	0.555371	0.411463	2	0.0046787	40	20.1034	0.000228514
2	1	0	1	1	90.225	0.550811	0.550497	0.402694	2	0.00478025	40	20.3533	0.000221682
2	1	0	1	1	90.4749	0.545813	0.545447	0.393049	2	0.00487956	40	20.6032	0.000214387
2	1	0	1	1	90.7248	0.540815	0.54042	0.382287	2	0.00497636	40	20.8531	0.000206596
2	1	0	1	1	90.9747	0.535818	0.535536	0.371206	2	0.00507035	40	21.103	0.000198794
2	1	0	1	1	91.2245	0.53082	0.530479	0.358975	2	0.00516141	40	21.3528	0.000190429
2	1	0	1	1	91.4744	0.525823	0.52533	0.346323	2	0.00524934	40	21.6027	0.000181934
2	1	0	1	1	91.7243	0.520825	0.520548	0.332107	2	0.00533401	40	21.8526	0.000172878
2	1	0	1	1	91.9742	0.515827	0.515684	0.316259	2	0.00541478	40	22.1025	0.00016309
2	1	0	1	1	92.2241	0.51083	0.510346	0.299935	2	0.0054916	40	22.3524	0.000153071
2	1	0	1	1	92.4739	0.505832	0.505546	0.282222	2	0.00556414	40	22.6022	0.000142676
2	1	0	1	1	92.7238	0.500834	0.500597	0.263717	2	0.00563222	40	22.8521	0.000132016
2	1	0	1	1	92.9737	0.495837	0.495552	0.243915	2	0.00569545	40	23.102	0.000120873
2	1	0	1	1	93.2236	0.490839	0.490594	0.223264	2	0.00575362	40	23.3519	0.000109532
2	1	0	1	1	93.4735	0.485842	0.485359	0.201478	2	0.00580651	40	23.6018	9.77891e-05
2	1	0	1	1	93.7234	0.480843	0.480604	0.178259	2	0.00585375	40	23.8517	8.5672e-05
2	1	0	1	1	93.9732	0.475846	0.475481	0.155099	2	0.00589515	40	24.1015	7.37464e-05
2	1	0	1	1	94.2231	0.470849	0.470629	0.130806	2	0.00593068	40	24.3514	6.15612e-05
2	1	0	1	1	94.473	0.465851	0.465643	0.106408	2	0.00596012	40	24.6013	4.95482e-05
2	1	0	1	1	94.7229	0.460854	0.460409	0.0817357	2	0.00598338	40	24.8512	3.76319e-05
2	1	0	1	1	94.9728	0.455856	0.455599	0.0572112	2	0.0060005	40	25.1011	2.60654e-05
2	1	0	1	1	95.2526	0.450259	0.450061	0.0290955	2	0.00601248	41	25.3809	1.30947e-05
2	1	0	1	1	95.5025	0.445261	0.445095	0.0054368	2	0.00601676	41	25.6308	2.4199e-06
2	0	0	1	1	95.7524	0.440263	0.440044	-0.0174679	2	0.00601521	41	0.1749	-7.68667e-06
2	0	0	1	1	96.0023	0.435266	0.434937	-0.0395283	2	0.00600805	41	0.4248	-1.71923e-05
2	0	0	1	1	96.2522	0.430267	0.430241	-0.0605666	2	0.0059955	41	0.6747	-2.60583e-05
2	0	0	1	1	96.502	0.42527	0.425015	-0.0800836	2	0.00597789	41	0.9245	-3.40368e-05
2	0	0	1	1	96.7519	0.420273	0.419976	-0.0989642	2	0.00595546	41	1.1744	-4.15626e-05
2	0	0	1	1	97.0318	0.414675	0.414288	-0.117418	2	0.00592504	40	1.4543	-4.86449e-05
2	0	0	1	1	97.2817	0.409678	0.40924	-0.133357	2	0.00589342	40	1.7042	-5.45751e-05
2	0	0	1	1	97.5315	0.40468	0.404388	-0.148244	2	0.00585795	40	1.954	-5.9948e-05
2	0	0	1	1	97.7814	0.399683	0.399321	-0.161906	2	0.00581892	40	2.2039	-6.46523e-05
2	0	0	1	1	98.0313	0.394685	0.394571	-0.17443	2	0.00577657	40	2.4538	-6.8825e-05
2	0	0	1	1	98.2812	0.389687	0.389402	-0.186043	2	0.00573123	40	2.7037	-7.24456e-05
2	0	0	1	1	98.5311	0.38469	0.384604	-0.196716	2	0.00568314	40	2.9536	-7.56577e-05
2	0	0	1	1	98.781	0.37969	0.379542	-0.206801	2	0.00563243	40	3.2035	-7.84897e-05
2	0	0	1	1	99.0308	0.374694	0.374425	-0.215219	2	0.00557937	40	3.4533	-8.05834e-05
2	0	0	1	1	99.2807	0.369697	0.369432	-0.223076	2	0.0055243	40	3.7032	-8.24114e-05
2	0	0	1	1	99.5306	0.364699	0.364357	-0.230364	2	0.00546727	40	3.9531	-8.39348e-05
2	0	0	1	1	99.7805	0.359702	0.359179	-0.2373	2	0.00540854	40	4.203	-8.52331e-05
2	0	0	1	1	100.03	0.354703	0.354265	-0.243973	2	0.00534808	40	4.4529	-8.64311e-05
2	0	0	1	1	100.28	0.349706	0.349288	-0.249922	2	0.00528607	40	4.7027	-8.72948e-05
2	0	0	1	1	100.53	0.344709	0.344425	-0.255242	2	0.00522268	40	4.9526	-8.79118e-05
2	0	0	1	1	100.78	0.339711	0.339316	-0.259903	2	0.00515793	40	5.2025	-8.81892e-05
2	0	0	1	1	101.03	0.334713	0.334366	-0.263779	2	0.00509217	40	5.4524	-8.81988e-05
2	0	0	1	1	101.28	0.329716	0.329475	-0.267996	2	0.00502542	40	5.7023	-8.82978e-05
2	0	0	1	1	101.53	0.324718	0.324383	-0.271515	2	0.00495774	40	5.9521	-8.8075e-05
2	0	0	1	1	101.779	0.319721	0.319408	-0.275215	2	0.00488913	40	6.202	-8.79057e-05
2	0	0	1	1	102.029	0.314723	0.314386	-0.27945	2	0.00481956	40	6.4519	-8.78551e-05
2	0	0	1	1	102.279	0.309725	0.309279	-0.281803	2	0.00474906	40	6.7018	-8.71558e-05
2	0	0	1	1	102.529	0.304728	0.304242	-0.284057	2	0.00467803	40	6.9517	-8.64218e-05
2	0	0	1	1	102.779	0.299731	0.299429	-0.287666	2	0.00460628	40	7.2015	-8.61354e-05
2	0	0	1	1	103.029	0.294732	0.294521	-0.289901	2	0.00453381	40	7.4514	-8.53819e-05
2	0	0	1	1	103.279	0.289735	0.289382	-0.292026	2	0.00446074	40	7.7013	-8.4507e-05
2	0	0	1	1	103.529	0.284737	0.284416	-0.293644	2	0.00438733	40	7.9512	-8.3517e-05
2	0	0	1	1	103.779	0.27974	0.279238	-0.295344	2	0.00431335	40	8.2011	-8.24712e-05
2	0	0	1	1	104.028	0.274744	0.274536	-0.296911	2	0.00423908	40	8.4509	-8.15129e-05
2	0	0	1	1	104.278	0.269744	0.269437	-0.299773	2	0.00416416	40	8.7008	-8.077e-05
2	0	0	1	1	104.528	0.264747	0.264159	-0.300978	2	0.00408879	40	8.9507	-7.95061e-05
2	0	0	1	1	104.778	0.259749	0.259423	-0.302619	2	0.00401298	40	9.2006	-7.85063e-05
2	0	0	1	1	105.028	0.254751	0.254422	-0.305455	2	0.00393671	40	9.4505	-7.77145e-05
2	0	0	1	1	105.278	0.249754	0.249578	-0.305888	2	0.00386001	40	9.7004	-7.63429e-05
2	0	0	1	1	105.528	0.244756	0.244338	-0.307814	2	0.00378303	40	9.9502	-7.52107e-05
2	0	0	1	1	105.778	0.239759	0.239343	-0.30935	2	0.00370553	40	10.2001	-7.40407e-05
2	0	0	1	1	106.027	0.234761	0.234389	-0.310926	2	0.00362764	40	10.45	-7.28776e-05
2	0	0	1	1	106.277	0.229763	0.229488	-0.31179	2	0.00354957	40	10.6999	-7.15521e-05
2	0	0	1	1	106.527	0.224766	0.224587	-0.313287	2	0.00347115	40	10.9498	-7.03601e-05
2	0	0	1	1	106.777	0.219767	0.2194	-0.31436	2	0.00339235	40	11.1997	-6.89706e-05
2	0	0	1	1	107.027	0.21477	0.214548	-0.316525	2	0.00331321	40	11.4495	-6.79098e-05
2	0	0	1	1	107.277	0.209773	0.209624	-0.318437	2	0.00323341	40	11.6994	-6.6752e-05
2	0	0	1	1	107.527	0.204775	0.204534	-0.318973	2	0.00315348	40	11.9493	-6.52409e-05
2	0	0	1	1	107.777	0.199778	0.199462	-0.319815	2	0.00307332	40	12.1992	-6.37909e-05
2	0	0	1	1	108.027	0.19478	0.194351	-0.320587	2	0.00299295	40	12.4491	-6.23062e-05
2	0	0	1	1	108.276	0.189782	0.189737	-0.322202	2	0.0029123	40	12.6989	-6.11337e-05
2	0	0	1	1	108.526	0.184785	0.184716	-0.322939	2	0.00283135	40	12.9488	-5.9652e-05
2	0	0	1	1	108.776	0.179787	0.179447	-0.323779	2	0.0027501	40	13.1987	-5.81013e-05
2	0	0	1	1	109.026	0.174789	0.174608	-0.325085	2	0.0026686	40	13.4486	-5.67624e-05
2	0	0	1	1	109.276	0.169792	0.169567	-0.325918	2	0.00258688	40	13.6985	-5.5265e-05
2	0	0	1	1	109.526	0.164794	0.164534	-0.325736	2	0.00250513	40	13.9483	-5.35947e-05
2	0	0	1	1	109.776	0.159797	0.159388	-0.326283	2	0.00242329	40	14.1982	-5.20056e-05
2	0	0	1	1	110.026	0.154799	0.154431	-0.327572	2	0.00234123	40	14.4481	-5.05872e-05
2	0	0	1	1	110.275	0.149801	0.149303	-0.328685	2	0.00225882	40	14.698	-4.90736e-05
2	0	0	1	1	110.525	0.144804	0.144461	-0.329787	2	0.0021763	40	14.9479	-4.76414e-05
2	0	0	1	1	110.775	0.139807	0.139523	-0.330208	2	0.00209348	40	15.1977	-4.60716e-05
2	0	0	1	1	111.025	0.134808	0.134506	-0.330387	2	0.00201062	40	15.4476	-4.4439e-05
2	0	0	1	1	111.275	0.129811	0.129662	-0.330909	2	0.00192763	40	15.6975	-4.29064e-05
2	0	0	1	1	111.525	0.124813	0.124508	-0.330911	2	0.00184462	40	15.9474	-4.12011e-05
2	0	0	1	1	111.775	0.119816	0.119696	-0.331453	2	0.00176149	40	16.1973	-3.96736e-05
2	0	0	1	1	112.025	0.114818	0.114471	-0.332316	2	0.0016782	40	16.4472	-3.80405e-05
2	0	0	1	1	112.274	0.10982	0.109666	-0.332923	2	0.00159481	40	16.697	-3.65104e-05
2	0	0	1	1	112.524	0.104823	0.104634	-0.333155	2	0.00151125	40	16.9469	-3.48593e-05
2	0	0	1	1	112.774	0.0998251	0.0994972	-0.334627	2	0.00142748	40	17.1968	-3.32944e-05
2	0	0	1	1	113.024	0.0948275	0.0943955	-0.334783	2	0.00134347	40	17.4467	-3.1602e-05
2	0	0	1	1	113.274	0.0898298	0.0895286	-0.335179	2	0.00125939	40	17.6966	-3.00081e-05
2	0	0	1	1	113.524	0.0848322	0.0844364	-0.335481	2	0.00117528	40	17.9464	-2.83268e-05
2	0	0	1	1	113.774	0.0798346	0.079546	-0.335453	2	0.00109114	40	18.1963	-2.66839e-05
2	0	0	1	1	114.024	0.074837	0.0742697	-0.336721	2	0.00100685	40	18.4462	-2.50082e-05
2	0	0	1	1	114.274	0.0698393	0.0697906	-0.336083	2	0.000922319	40	18.6961	-2.34554e-05
2	0	0	1	1	114.523	0.0648417	0.0644437	-0.336328	2	0.000838093	40	18.946	-2.16742e-05
2	0	0	1	1	114.773	0.0598432	0.0595953	-0.33662	2	0.000753635	40	19.1959	-2.0061e-05
2	0	0	1	1	115.023	0.0548465	0.0545717	-0.336308	2	0.000669176	40	19.4457	-1.83529e-05
2	0	0	1	1	115.273	0.0498488	0.0495623	-0.33668	2	0.00058482	40	19.6956	-1.66866e-05
2	0	0	1	1	115.523	0.0448512	0.0445947	-0.337605	2	0.000500253	40	19.9455	-1.50554e-05
2	0	0	1	1	115.773	0.0398536	0.0395187	-0.336643	2	0.000415685	40	20.1954	-1.33037e-05
2	0	0	1	1	116.023	0.034856	0.034565	-0.336951	2	0.000331239	40	20.4453	-1.16467e-05
2	0	0	1	1	116.273	0.0298583	0.0295979	-0.337529	2	0.000246671	40	20.6951	-9.99017e-06
2	0	0	1	1	116.522	0.0248607	0.0245623	-0.338169	2	0.000161971	40	20.945	-8.30618e-06
2	0	0	1	1	116.772	0.0198631	0.0196104	-0.338377	2	7.72012e-05	40	21.1949	-6.63569e-06
2	0	0	1	1	117.022	0.0148655	0.0145656	-0.338832	2	-7.72233e-06	40	21.4448	-4.93528e-06
2	0	0	1	1	117.272	0.00986783	0.00969777	-0.339914	2	-9.27654e-05	40	21.6947	-3.29641e-06
2	0	0	1	1	117.522	0.00487021	0.00462196	-0.338099	2	-0.000177655	40	21.9445	-1.56268e-06
2	0	0	1	1	117.762	7.24866e-05	0.00016109	-0.339939	2	-0.000259201	40	22.1844	-5.4761e-08
2	0	0	1	0	117.98	0.00427049	0.00383997	-0.342075	2	-0.000333406	40	22.4024	-1.31356e-06
2	0	0	1	0	118.23	0.00926946	0.00907601	-0.339718	2	-0.000418311	40	22.6523	-3.08328e-06
2	0	0	1	0	118.48	0.0142657	0.0140365	-0.339458	2	-0.000502916	40	22.9021	-4.76479e-06
2	0	0	1	0	118.729	0.0192634	0.0190793	-0.337698	2	-0.000587199	40	23.152	-6.44302e-06
2	0	0	1	0	118.979	0.024261	0.0240508	-0.337571	2	-0.000671242	40	23.4019	-8.11888e-06
2	0	0	1	0	119.229	0.0292586	0.0290274	-0.337643	2	-0.000755329	40	23.6518	-9.80092e-06
2	0	0	1	0	119.479	0.0342562	0.0339145	-0.337749	2	-0.000839456	40	23.9017	-1.14546e-05
2	0	0	1	0	119.729	0.0392539	0.0390033	-0.338076	2	-0.000923664	40	24.1515	-1.31861e-05
2	0	0	1	0	119.979	0.0442515	0.0440039	-0.336428	2	-0.00100775	40	24.4014	-1.48041e-05
2	0	0	1	0	120.229	0.0492491	0.0490745	-0.335933	2	-0.00109146	40	24.6513	-1.64857e-05
2	0	0	1	0	120.479	0.0542467	0.0540658	-0.335533	2	-0.00117505	40	24.9012	-1.81409e-05
2	0	0	1	0	120.729	0.0592444	0.0589768	-0.33513	2	-0.00125862	40	25.1511	-1.97649e-05
2	0	0	1	0	120.978	0.064242	0.0637738	-0.335503	2	-0.00134222	40	25.4009	-2.13963e-05
2	0	0	1	0	121.228	0.0692396	0.0688944	-0.334964	2	-0.00142564	40	25.6508	-2.30772e-05
2	0	0	1	0	121.478	0.0742372	0.0738849	-0.333	2	-0.00150899	40	25.9007	-2.46037e-05
2	0	0	1	0	121.728	0.0792349	0.0788949	-0.332691	2	-0.00159186	40	26.1506	-2.62477e-05
2	0	0	1	0	121.978	0.0842325	0.0840275	-0.333136	2	-0.00167484	40	26.4005	-2.79926e-05
2	0	0	1	0	122.228	0.0892292	0.0890438	-0.331411	2	-0.00175752	40	26.6503	-2.951e-05
2	0	0	1	0	122.478	0.0942277	0.0937413	-0.330482	2	-0.00183995	40	26.9002	-3.09798e-05
2	0	0	1	0	122.728	0.0992254	0.098806	-0.330458	2	-0.00192227	40	27.1501	-3.26512e-05
2	0	0	1	0	122.977	0.104223	0.103975	-0.329453	2	-0.00200452	40	27.4	-3.4255e-05
2	0	0	1	0	123.227	0.109221	0.108928	-0.327975	2	-0.00208644	40	27.6499	-3.57258e-05
2	0	0	1	0	123.477	0.114218	0.113957	-0.327597	2	-0.00216816	40	27.8998	-3.73321e-05
2	0	0	1	0	123.727	0.119216	0.118978	-0.327442	2	-0.0022497	40	28.1496	-3.89583e-05
2	0	0	1	0	123.977	0.124213	0.123761	-0.326508	2	-0.00233122	40	28.3995	-4.04089e-05
2	0	0	1	0	124.227	0.129211	0.128716	-0.3248	2	-0.00241237	40	28.6494	-4.18069e-05
2	0	0	1	0	124.477	0.134209	0.134011	-0.323383	2	-0.0024931	40	28.8993	-4.3337e-05
2	0	0	1	0	124.727	0.139206	0.138906	-0.322086	2	-0.00257351	40	29.1492	-4.47397e-05
2	0	0	1	0	124.977	0.144206	0.144021	-0.321339	2	-0.0026537	40	29.3991	-4.62796e-05
2	0	0	1	0	125.226	0.149202	0.148934	-0.319829	2	-0.00273351	40	29.6489	-4.76333e-05
2	0	0	1	0	125.476	0.154199	0.153718	-0.31822	2	-0.00281301	40	29.8988	-4.89159e-05
2	0	0	1	0	125.726	0.159197	0.158714	-0.317189	2	-0.00289221	40	30.1487	-5.03424e-05
2	0	0	1	0	125.976	0.164194	0.163874	-0.315428	2	-0.00297094	40	30.3986	-5.16906e-05
2	0	0	1	0	126.226	0.169193	0.168946	-0.314822	2	-0.00304958	40	30.6485	-5.31879e-05
2	0	0	1	0	126.476	0.17419	0.173967	-0.312464	2	-0.00312762	40	30.8983	-5.43585e-05
2	0	0	1	0	126.726	0.179187	0.178809	-0.311233	2	-0.00320537	40	31.1482	-5.56512e-05
2	0	0	1	0	126.976	0.184185	0.18382	-0.308992	2	-0.00328256	40	31.3981	-5.67988e-05
2	0	0	1	0	127.225	0.189183	0.18893	-0.307242	2	-0.00335928	40	31.648	-5.80472e-05
2	0	0	1	0	127.475	0.19418	0.19394	-0.305518	2	-0.00343558	40	31.8979	-5.92521e-05
2	0	0	1	0	127.725	0.199178	0.198782	-0.303164	2	-0.0035113	40	32.1477	-6.02636e-05
2	0	0	1	0	127.975	0.204175	0.203595	-0.300857	2	-0.00358653	40	32.3976	-6.12528e-05
2	0	0	1	0	128.225	0.209173	0.208942	-0.299074	2	-0.00366126	40	32.6475	-6.24892e-05
2	0	0	1	0	128.475	0.214171	0.214067	-0.29726	2	-0.0037355	40	32.8974	-6.36336e-05
2	0	0	1	0	128.725	0.219168	0.218988	-0.294664	2	-0.00380918	40	33.1473	-6.45279e-05
2	0	0	1	0	128.975	0.224166	0.223641	-0.291998	2	-0.0038822	40	33.3971	-6.53028e-05
2	0	0	1	0	129.224	0.229164	0.22848	-0.290334	2	-0.00395475	40	33.647	-6.63354e-05
2	0	0	1	0	129.474	0.234161	0.233807	-0.287227	2	-0.00402665	40	33.8969	-6.71556e-05
2	0	0	1	0	129.724	0.239159	0.238659	-0.285017	2	-0.00409786	40	34.1468	-6.8022e-05
2	0	0	1	0	129.974	0.244156	0.243773	-0.282223	2	-0.0041685	40	34.3967	-6.87983e-05
2	0	0	1	0	130.224	0.249153	0.248747	-0.280029	2	-0.00423842	40	34.6465	-6.96563e-05
2	0	0	1	0	130.474	0.254152	0.253986	-0.278033	2	-0.00430785	40	34.8964	-7.06165e-05
2	0	0	1	0	130.724	0.259149	0.258852	-0.274541	2	-0.00437656	40	35.1463	-7.10655e-05
2	0	0	1	0	130.974	0.264147	0.26382	-0.27226	2	-0.00444452	40	35.3962	-7.18278e-05
2	0	0	1	0	131.224	0.269145	0.268782	-0.270165	2	-0.00451206	40	35.6461	-7.26155e-05
2	0	0	1	0	131.473	0.274142	0.273684	-0.267276	2	-0.00457884	40	35.896	-7.31491e-05
2	0	0	1	0	131.723	0.27914	0.278961	-0.264911	2	-0.00464501	40	36.1458	-7.38999e-05
2	0	0	1	0	131.973	0.284137	0.284076	-0.2628	2	-0.0047106	40	36.3957	-7.46553e-05
2	0	0	1	0	132.223	0.289135	0.288977	-0.261627	2	-0.00477581	40	36.6456	-7.56042e-05
2	0	0	1	0	132.473	0.294133	0.293855	-0.259522	2	-0.00484061	40	36.8955	-7.62618e-05
2	0	0	1	0	132.723	0.29913	0.298904	-0.257934	2	-0.00490494	40	37.1454	-7.70974e-05
2	0	0	1	0	132.973	0.304129	0.30408	-0.256581	2	-0.00496893	40	37.3953	-7.80211e-05
2	0	0	1	0	133.223	0.309126	0.308692	-0.255089	2	-0.00503249	40	37.6451	-7.87439e-05
2	0	0	1	0	133.472	0.314123	0.313772	-0.253671	2	-0.00509574	40	37.895	-7.95947e-05
2	0	0	1	0	133.722	0.319121	0.31875	-0.251377	2	-0.00515856	40	38.1449	-8.01263e-05
2	0	0	1	0	133.972	0.324118	0.32361	-0.248696	2	-0.0052208	40	38.3948	-8.04804e-05
2	0	0	1	0	134.222	0.329117	0.328785	-0.246091	2	-0.00528227	40	38.6447	-8.09111e-05
2	0	0	1	0	134.472	0.334114	0.334038	-0.243388	2	-0.00534313	40	38.8945	-8.13008e-05
2	0	0	1	0	134.722	0.339111	0.338831	-0.240051	2	-0.00540325	40	39.1444	-8.13368e-05
2	0	0	1	0	134.972	0.344109	0.343805	-0.236695	2	-0.00546248	40	39.3943	-8.13768e-05
2	0	0	1	0	135.222	0.349107	0.34886	-0.232573	2	-0.00552081	40	39.6442	-8.11354e-05
2	0	0	1	0	135.472	0.354104	0.353769	-0.227802	2	-0.00557804	40	39.8941	-8.05894e-05
2	0	0	1	0	135.721	0.359102	0.358967	-0.221855	2	-0.00563391	40	40.1439	-7.96387e-05
2	0	0	1	0	135.971	0.3641	0.363768	-0.214965	2	-0.00568818	40	40.3938	-7.81973e-05
2	0	0	1	0	136.221	0.369097	0.368916	-0.208238	2	-0.00574074	40	40.6437	-7.68222e-05
2	0	0	1	0	136.471	0.374095	0.373757	-0.200066	2	-0.00579148	40	40.8936	-7.47763e-05
2	0	0	1	0	136.721	0.379092	0.378684	-0.19093	2	-0.00584005	40	41.1435	-7.23023e-05
2	0	0	1	0	136.971	0.38409	0.383829	-0.181148	2	-0.00588625	40	41.3933	-6.95297e-05
2	0	0	1	0	137.221	0.389088	0.388945	-0.169829	2	-0.00592984	40	41.6432	-6.60543e-05
2	0	0	1	0	137.471	0.394085	0.393923	-0.158587	2	-0.00597063	40	41.8931	-6.24711e-05
2	0	0	1	0	137.72	0.399083	0.398868	-0.145704	2	-0.00600838	40	42.143	-5.81165e-05
2	0	0	1	0	137.97	0.40408	0.403837	-0.132116	2	-0.00604284	40	42.3929	-5.33534e-05
2	0	0	1	0	138.22	0.409076	0.408701	-0.117632	2	-0.00607378	40	42.6427	-4.80764e-05
2	0	0	1	0	138.47	0.414076	0.413632	-0.102271	2	-0.00610102	40	42.8926	-4.23026e-05
2	0	0	1	0	138.72	0.419073	0.418621	-0.0857511	2	-0.00612426	40	43.1425	-3.58972e-05
2	0	0	1	0	138.97	0.424071	0.423714	-0.068178	2	-0.00614325	40	43.3924	-2.8888e-05
2	0	0	1	0	139.22	0.429069	0.428868	-0.0498843	2	-0.00615776	40	43.6423	-2.13938e-05
2	0	0	1	0	139.5	0.434665	0.434394	-0.0273854	2	-0.00616848	41	43.9221	-1.18961e-05
2	0	0	1	0	139.749	0.439664	0.439257	-0.00717191	2	-0.0061728	41	44.172	-3.15031e-06
2	1	0	0	0	139.917	0.443037	0.441819	0.00699695	2	-0.00617284	41	0.0677	3.09139e-06