File: Python/Data/GoldElectrode/240313/240313-CVEIS_Activation-0p5H2SO4-Ag_AgCl_BLF8-Au_RDE-80cycles_10_PEIS_C15.mpt
EC-Lab ASCII FILE
Nb header lines : 66

Potentio Electrochemical Impedance Spectroscopy

Run on channel : 15 (SN 19485)
User :
Electrode connection : standard
Potential control : Ewe
Ewe ctrl range : min = -2.50 V, max = 2.50 V
Ewe,I filtering : 50 kHz
Safety Limits :
	Do not start on E overload
Channel : Floating
Acquisition started on : 03/13/2024 15:25:11.595
Loaded Setting File :  C:\Data\mathias\GoldElectrode\240308-CVEIS_Activation-0p5H2SO4-Ag_AgCl_BLF8-Au_RDE-80cycles-C15.mps
Saved on :
	File : 240313-CVEIS_Activation-0p5H2SO4-Ag_AgCl_BLF8-Au_RDE-80cycles_10_PEIS_C15.mpr
	Directory : C:\Data\mathias\GoldElectrode\
	Host : 192.168.0.1
Device : VMP-300 (SN 0826)
Address : USB
EC-Lab for windows v11.52 (software)
Internet server v11.52 (firmware)
Command interpretor v11.52 (firmware)
Electrode material :
Initial state :
Electrolyte :
Comments :
Cable : special
Electrode surface area : 0.001 cm²
Characteristic mass : 0.001 g
Equivalent Weight : 0.000 g/eq.
Density : 0.000 g/cm3
Volume (V) : 0.001 cm³
Record EIS quality indicators
Cycle Definition : Charge/Discharge alternance
Mode                Single sine
E (V)               0.0000
vs.                 Eoc
tE (h:m:s)          0:00:0.0000
record              0
dI                  0.000
unit dI             mA
dt (s)              0.000
fi                  100.000
unit fi             kHz
ff                  100.000
unit ff             Hz
Nd                  10
Points              per decade
spacing             Logarithmic
Va (mV)             5.0
pw                  0.10
Na                  2
corr                0
E range min (V)     -2.500
E range max (V)     2.500
I Range             Auto
Bandwidth           8
nc cycles           0
goto Ns'            0
nr cycles           0
inc. cycle          0

freq/Hz	Re(Z)/Ohm	-Im(Z)/Ohm	|Z|/Ohm	Phase(Z)/deg	time/s	<Ewe>/V	<I>/mA	Cs/µF	Cp/µF	cycle number	I Range	|Ewe|/V	|I|/A	Ns	(Q-Qo)/mA.h	THD Ewe/%	NSD Ewe/%	NSR Ewe/%	|Ewe h2|/V	|Ewe h3|/V	|Ewe h4|/V	|Ewe h5|/V	|Ewe h6|/V	|Ewe h7|/V	THD I/%	NSD I/%	NSR I/%	|I h2|/A	|I h3|/A	|I h4|/A	|I h5|/A	|I h6|/A	|I h7|/A	Re(Y)/Ohm-1	Im(Y)/Ohm-1	|Y|/Ohm-1	Phase(Y)/deg	Re(C)/nF	Im(C)/nF	|C|/nF	Phase(C)/deg	Re(M)	Im(M)	|M|	Phase(M)/deg	Re(Permittivity)	Im(Permittivity)	|Permittivity|	Phase(Permittivity)/deg	Re(Resistivity)/Ohm.cm	Im(Resistivity)/Ohm.cm	|Resistivity|/Ohm.cm	Phase(Resistivity)/deg	Re(Conductivity)/mS/cm	Im(Conductivity)/mS/cm	|Conductivity|/mS/cm	Phase(Conductivity)/deg	Tan(Delta)	Loss Angle(Delta)/deg	dq/mA.h
100004	7.49876	0.596646	7.52246	-4.54921	1550.66	0.448483	-0.0186737	2.66739	0.0167804	1	38	0.00489981	0.000651358	0	-4.48133e-06	2.2838	1.3247	47.3647	3.07442e-05	3.85185e-05	3.6749e-05	1.72109e-05	8.41026e-05	3.15631e-05	0.370196	0.161133	5.83768	5.94543e-07	1.02252e-06	7.78785e-07	1.25727e-06	8.43329e-07	1.09733e-06	0.132516	0.0105438	0.132935	4.54921	16.7804	210.899	211.565	-85.4508	0.0000000E+000	0.0000000E+000	0.0000000E+000	85.4508	0.0000000E+000	0.0000000E+000	0.0000000E+000	-85.4508	0.0000000E+000	0.0000000E+000	0.0000000E+000	-4.54921	0.0000000E+000	0.0000000E+000	0.0000000E+000	4.54921	12.5682	85.4508	-4.48133e-06
79433.3	7.46744	0.554401	7.48799	-4.24599	1551.48	0.448481	-0.00839017	3.61405	0.0198112	1	38	0.00516967	0.000690395	0	-6.1014e-06	1.83255	1.12447	45.6178	2.73557e-05	4.05364e-05	3.11585e-05	2.82008e-05	2.29616e-05	5.04604e-05	0.260179	0.124232	5.4873	7.67642e-07	9.94101e-07	6.78596e-07	5.85966e-07	5.02024e-07	5.73891e-07	0.133181	0.00988766	0.133547	4.24599	19.8112	266.845	267.579	-85.754	0.0000000E+000	0.0000000E+000	0.0000000E+000	85.754	0.0000000E+000	0.0000000E+000	0.0000000E+000	-85.754	0.0000000E+000	0.0000000E+000	0.0000000E+000	-4.24599	0.0000000E+000	0.0000000E+000	0.0000000E+000	4.24599	13.4694	85.754	-1.62007e-06
63093.8	7.49874	0.515235	7.51642	-3.93059	1552.29	0.448444	-0.00887427	4.89585	0.0230047	1	38	0.00520279	0.00069219	0	-8.56396e-06	1.99315	1.65387	43.8756	3.71968e-05	5.09114e-05	3.85015e-05	2.55544e-05	3.50128e-05	4.8002e-05	0.246588	0.11879	5.39701	4.90606e-07	9.50486e-07	3.58338e-07	6.70414e-07	7.57102e-07	4.7418e-07	0.132729	0.00911976	0.133042	3.93059	23.0047	334.811	335.6	-86.0694	0.0000000E+000	0.0000000E+000	0.0000000E+000	86.0694	0.0000000E+000	0.0000000E+000	0.0000000E+000	-86.0694	0.0000000E+000	0.0000000E+000	0.0000000E+000	-3.93059	0.0000000E+000	0.0000000E+000	0.0000000E+000	3.93059	14.554	86.0694	-2.46256e-06
50122.5	7.52621	0.511117	7.54355	-3.88508	1553.11	0.448434	-0.00876628	6.21251	0.0285205	1	38	0.0052033	0.000689769	0	-1.10665e-05	2.75726	2.17898	47.9205	3.08857e-05	2.62215e-05	1.82739e-05	3.81139e-05	8.97704e-05	8.64124e-05	0.278887	0.223499	5.45643	8.17091e-07	7.95044e-07	6.03757e-07	6.78098e-07	8.33816e-07	7.5299e-07	0.132259	0.00898191	0.132564	3.88508	28.5204	419.965	420.932	-86.1149	0.0000000E+000	0.0000000E+000	0.0000000E+000	86.1149	0.0000000E+000	0.0000000E+000	0.0000000E+000	-86.1149	0.0000000E+000	0.0000000E+000	0.0000000E+000	-3.88508	0.0000000E+000	0.0000000E+000	0.0000000E+000	3.88508	14.725	86.1149	-2.50256e-06
39814.1	7.49826	0.489523	7.51422	-3.73525	1553.92	0.448468	-0.00908653	8.16602	0.0346568	1	38	0.00513165	0.000682925	0	-1.39503e-05	1.63964	0.777591	46.684	2.69423e-05	4.1961e-05	2.19818e-05	4.80713e-05	1.93579e-05	3.12336e-05	0.297935	0.208609	5.5406	1.11867e-06	9.01612e-07	5.03143e-07	8.15065e-07	9.59151e-07	4.05228e-07	0.132798	0.00866972	0.133081	3.73525	34.6568	530.855	531.985	-86.2648	0.0000000E+000	0.0000000E+000	0.0000000E+000	86.2648	0.0000000E+000	0.0000000E+000	0.0000000E+000	-86.2648	0.0000000E+000	0.0000000E+000	0.0000000E+000	-3.73525	0.0000000E+000	0.0000000E+000	0.0000000E+000	3.73525	15.3175	86.2648	-2.88379e-06
31621.1	7.55697	0.606366	7.58126	-4.58755	1554.73	0.448416	-0.00824494	8.30056	0.0531001	1	38	0.00513864	0.000677809	0	-1.59225e-05	2.28109	1.01097	45.5446	6.59741e-05	3.53214e-05	3.94688e-05	3.43945e-05	5.26847e-05	2.66992e-05	0.299107	0.144686	5.58478	3.35556e-07	1.07187e-06	9.51706e-07	1.01476e-06	7.34718e-07	3.83363e-07	0.131482	0.01055	0.131904	4.58755	53.1001	661.771	663.898	-85.4125	0.0000000E+000	0.0000000E+000	0.0000000E+000	85.4125	0.0000000E+000	0.0000000E+000	0.0000000E+000	-85.4125	0.0000000E+000	0.0000000E+000	0.0000000E+000	-4.58755	0.0000000E+000	0.0000000E+000	0.0000000E+000	4.58755	12.4627	85.4125	-1.97218e-06
25116.9	7.53221	0.584703	7.55487	-4.4388	1555.55	0.448455	-0.00857078	10.8372	0.0649135	1	38	0.00512071	0.000677802	0	-1.7054e-05	2.4224	1.51044	45.5982	6.13274e-05	7.26496e-05	4.10625e-05	2.97915e-05	3.44912e-05	4.17231e-05	0.251199	0.244212	5.5204	7.07258e-07	1.05094e-06	4.79336e-07	6.02135e-07	5.92691e-07	3.16591e-07	0.131968	0.0102443	0.132365	4.4388	64.9135	836.223	838.739	-85.5612	0.0000000E+000	0.0000000E+000	0.0000000E+000	85.5612	0.0000000E+000	0.0000000E+000	0.0000000E+000	-85.5612	0.0000000E+000	0.0000000E+000	0.0000000E+000	-4.4388	0.0000000E+000	0.0000000E+000	0.0000000E+000	4.4388	12.8821	85.5612	-1.13145e-06
19948.8	7.65296	0.692124	7.68419	-5.1677	1556.36	0.448466	-0.00811647	11.5271	0.0935172	1	38	0.00523979	0.000681893	0	-1.79231e-05	4.37643	1.46118	45.5122	2.63395e-05	3.92788e-05	0.000203207	3.46663e-05	5.11542e-05	4.82094e-05	0.484064	0.135213	5.52968	8.58479e-07	9.52817e-07	2.51216e-06	6.97012e-07	8.72702e-07	8.14147e-07	0.129608	0.0117216	0.130137	5.1677	93.5172	1034.04	1038.26	-84.8323	0.0000000E+000	0.0000000E+000	0.0000000E+000	84.8323	0.0000000E+000	0.0000000E+000	0.0000000E+000	-84.8323	0.0000000E+000	0.0000000E+000	0.0000000E+000	-5.1677	0.0000000E+000	0.0000000E+000	0.0000000E+000	5.1677	11.0572	84.8323	-8.69164e-07
15847.7	7.66493	0.796361	7.70619	-5.93156	1557.18	0.448457	-0.00754113	12.6109	0.134674	1	38	0.0051223	0.000664699	0	-1.84165e-05	2.6768	1.73119	46.3486	4.12389e-05	5.14142e-05	1.65791e-05	9.57612e-05	2.27688e-05	6.53332e-05	0.307957	0.108667	5.71148	7.11585e-07	4.34465e-07	7.44258e-07	8.83035e-07	5.50077e-07	1.22456e-06	0.129071	0.0134101	0.129766	5.93156	134.675	1296.23	1303.21	-84.0684	0.0000000E+000	0.0000000E+000	0.0000000E+000	84.0684	0.0000000E+000	0.0000000E+000	0.0000000E+000	-84.0684	0.0000000E+000	0.0000000E+000	0.0000000E+000	-5.93156	0.0000000E+000	0.0000000E+000	0.0000000E+000	5.93156	9.62494	84.0684	-4.93369e-07
12590.9	7.62477	1.04336	7.69582	-7.79186	1557.99	0.44846	-0.00825239	12.1151	0.222683	1	38	0.00519214	0.00067467	0	-1.95269e-05	1.74006	1.78755	45.5349	3.55096e-05	3.49421e-05	4.08671e-05	3.40331e-05	1.95457e-05	4.37534e-05	0.263991	0.257075	5.6621	7.63029e-07	8.58846e-07	4.92104e-07	7.84208e-07	6.03903e-07	6.02244e-07	0.128741	0.0176167	0.129941	7.79186	222.683	1627.34	1642.51	-82.2081	0.0000000E+000	0.0000000E+000	0.0000000E+000	82.2081	0.0000000E+000	0.0000000E+000	0.0000000E+000	-82.2081	0.0000000E+000	0.0000000E+000	0.0000000E+000	-7.79186	0.0000000E+000	0.0000000E+000	0.0000000E+000	7.79186	7.3079	82.2081	-1.11042e-06
10002.2	7.67896	1.14363	7.76365	-8.47082	1558.81	0.448459	-0.00809785	13.9135	0.30191	1	38	0.00500283	0.000644391	0	-2.26752e-05	2.18427	1.14482	46.8021	4.98632e-05	5.24398e-05	3.38343e-05	3.55455e-05	2.69417e-05	4.64377e-05	0.324197	0.150187	5.73518	6.5762e-07	7.64482e-07	9.28247e-07	4.93117e-07	6.7442e-07	1.11501e-06	0.1274	0.0189738	0.128805	8.47082	301.909	2027.19	2049.54	-81.5292	0.0000000E+000	0.0000000E+000	0.0000000E+000	81.5292	0.0000000E+000	0.0000000E+000	0.0000000E+000	-81.5292	0.0000000E+000	0.0000000E+000	0.0000000E+000	-8.47082	0.0000000E+000	0.0000000E+000	0.0000000E+000	8.47082	6.71455	81.5292	-3.14833e-06
7944	7.80502	1.34131	7.91944	-9.75117	1559.65	0.448303	-0.00723019	14.9366	0.428472	1	38	0.00519524	0.000656011	0	-2.43869e-05	2.80355	1.4674	45.494	5.07033e-05	6.49656e-05	4.19164e-05	3.87941e-05	5.85648e-05	7.93077e-05	0.318673	0.173669	5.83457	6.22329e-07	9.21428e-07	1.13151e-06	5.65163e-07	3.32373e-07	1.15073e-06	0.124447	0.0213866	0.126272	9.75117	428.472	2493.26	2529.8	-80.2488	0.0000000E+000	0.0000000E+000	0.0000000E+000	80.2488	0.0000000E+000	0.0000000E+000	0.0000000E+000	-80.2488	0.0000000E+000	0.0000000E+000	0.0000000E+000	-9.75117	0.0000000E+000	0.0000000E+000	0.0000000E+000	9.75117	5.81895	80.2488	-1.71169e-06
6307.74	7.84398	1.57833	8.00119	-11.3769	1560.55	0.448339	-0.00735866	15.9863	0.622063	1	38	0.00520238	0.000650201	0	-2.57965e-05	2.74008	1.64288	45.033	5.30653e-05	0.000106058	3.98433e-05	3.66469e-05	2.53739e-05	3.74086e-05	0.368024	0.11094	6.02861	4.44561e-07	1.67026e-06	1.19035e-06	6.99255e-07	4.53559e-07	7.45596e-07	0.122526	0.024654	0.124981	11.3769	622.063	3091.53	3153.49	-78.6231	0.0000000E+000	0.0000000E+000	0.0000000E+000	78.6231	0.0000000E+000	0.0000000E+000	0.0000000E+000	-78.6231	0.0000000E+000	0.0000000E+000	0.0000000E+000	-11.3769	0.0000000E+000	0.0000000E+000	0.0000000E+000	11.3769	4.9698	78.6231	-1.40957e-06
5011.6	7.8295	1.94661	8.06786	-13.9621	1561.53	0.448266	-0.00716129	16.3142	0.949741	1	38	0.00499345	0.000618931	0	-2.68934e-05	2.57305	1.13925	47.1998	6.78637e-05	2.1092e-05	4.23481e-05	6.74323e-05	3.77571e-05	2.30864e-05	0.348677	0.168056	6.28443	5.60264e-07	8.66424e-07	1.3034e-06	7.03065e-07	8.09421e-07	7.4256e-07	0.120287	0.0299062	0.123949	13.9621	949.741	3819.98	3936.27	-76.0379	0.0000000E+000	0.0000000E+000	0.0000000E+000	76.0379	0.0000000E+000	0.0000000E+000	0.0000000E+000	-76.0379	0.0000000E+000	0.0000000E+000	0.0000000E+000	-13.9621	0.0000000E+000	0.0000000E+000	0.0000000E+000	13.9621	4.02212	76.0379	-1.09693e-06
3981.28	7.92894	2.37074	8.27578	-16.6466	1562.28	0.448354	-0.00726742	16.8622	1.38377	1	38	0.00527898	0.000637883	0	-2.79574e-05	2.53892	1.41089	44.6444	6.56046e-05	3.80488e-05	3.99526e-05	4.79407e-05	6.40836e-05	5.17845e-05	0.278157	0.222496	6.02233	1.02322e-06	7.31673e-07	5.1091e-07	4.86625e-07	9.0892e-07	4.10085e-07	0.11577	0.0346151	0.120835	16.6466	1383.77	4628.02	4830.46	-73.3534	0.0000000E+000	0.0000000E+000	0.0000000E+000	73.3534	0.0000000E+000	0.0000000E+000	0.0000000E+000	-73.3534	0.0000000E+000	0.0000000E+000	0.0000000E+000	-16.6466	0.0000000E+000	0.0000000E+000	0.0000000E+000	16.6466	3.3445	73.3534	-1.06401e-06
3163.04	7.93112	2.86556	8.43292	-19.8651	1563.02	0.448325	-0.00692669	17.5592	2.02754	1	38	0.00540712	0.000641192	0	-2.88516e-05	2.03868	1.21039	42.8893	4.99244e-05	6.56723e-05	3.21701e-05	2.54966e-05	7.86147e-06	5.2118e-05	0.355886	0.223002	6.09006	6.2449e-07	6.14868e-07	1.22641e-06	7.3574e-07	4.99616e-07	1.2224e-06	0.111527	0.0402953	0.118583	19.8651	2027.54	5611.7	5966.75	-70.1349	0.0000000E+000	0.0000000E+000	0.0000000E+000	70.1349	0.0000000E+000	0.0000000E+000	0.0000000E+000	-70.1349	0.0000000E+000	0.0000000E+000	0.0000000E+000	-19.8651	0.0000000E+000	0.0000000E+000	0.0000000E+000	19.8651	2.76774	70.1349	-8.94124e-07
2512.41	8.04316	3.48752	8.76671	-23.4416	1563.98	0.448357	-0.00772732	18.164	2.87457	1	38	0.00505761	0.00057691	0	-3.21129e-05	2.34376	1.12047	46.8097	4.07437e-05	5.1015e-05	4.7055e-05	4.59405e-05	3.23439e-05	5.74669e-05	0.298701	0.151571	6.52982	8.94859e-07	2.78845e-07	7.61922e-07	6.69845e-07	3.74375e-07	7.6357e-07	0.104653	0.0453778	0.114068	23.4416	2874.57	6629.53	7225.91	-66.5584	0.0000000E+000	0.0000000E+000	0.0000000E+000	66.5584	0.0000000E+000	0.0000000E+000	0.0000000E+000	-66.5584	0.0000000E+000	0.0000000E+000	0.0000000E+000	-23.4416	0.0000000E+000	0.0000000E+000	0.0000000E+000	23.4416	2.30627	66.5584	-3.26136e-06
1995.64	8.02978	4.36271	9.13841	-28.5159	1564.73	0.448379	-0.00719295	18.2803	4.16632	1	38	0.00507696	0.000555563	0	-3.35236e-05	2.54047	2.04023	46.2339	2.01715e-05	4.72313e-05	5.81099e-05	2.6821e-05	7.03306e-05	6.50481e-05	0.362662	0.323183	6.9004	8.86128e-07	5.60937e-07	7.90784e-07	8.47056e-07	9.67601e-07	6.30843e-07	0.0961529	0.0522414	0.109428	28.5159	4166.32	7668.33	8727.06	-61.4841	0.0000000E+000	0.0000000E+000	0.0000000E+000	61.4841	0.0000000E+000	0.0000000E+000	0.0000000E+000	-61.4841	0.0000000E+000	0.0000000E+000	0.0000000E+000	-28.5159	0.0000000E+000	0.0000000E+000	0.0000000E+000	28.5159	1.84055	61.4841	-1.41062e-06
1584.49	8.15204	5.40534	9.78128	-33.547	1565.47	0.44834	-0.00783345	18.5826	5.67494	1	38	0.00511065	0.000522493	0	-3.55069e-05	2.15767	1.33791	46.1991	6.00622e-05	3.40959e-05	1.42549e-05	3.91572e-05	5.86078e-05	4.18963e-05	0.330679	0.278256	7.60429	1.15552e-06	6.78441e-07	6.19919e-07	3.03336e-07	3.20357e-07	5.89198e-07	0.085207	0.0564978	0.102236	33.547	5674.94	8558.64	10269.1	-56.453	0.0000000E+000	0.0000000E+000	0.0000000E+000	56.453	0.0000000E+000	0.0000000E+000	0.0000000E+000	-56.453	0.0000000E+000	0.0000000E+000	0.0000000E+000	-33.547	0.0000000E+000	0.0000000E+000	0.0000000E+000	33.547	1.50815	56.453	-1.98335e-06
1258.79	8.17768	6.68682	10.5635	-39.2726	1566.21	0.448362	-0.00738101	18.9081	7.5765	1	38	0.00507688	0.000480605	0	-3.72142e-05	2.88475	2.22038	47.3003	4.25802e-05	5.11482e-05	6.34173e-05	8.69217e-05	5.69297e-05	2.48267e-05	0.431884	0.248937	8.17582	7.60521e-07	1.06185e-06	5.95373e-07	8.91985e-07	6.05204e-07	8.62455e-07	0.0732846	0.0599242	0.0946654	39.2726	7576.5	9265.72	11969	-50.7274	0.0000000E+000	0.0000000E+000	0.0000000E+000	50.7274	0.0000000E+000	0.0000000E+000	0.0000000E+000	-50.7274	0.0000000E+000	0.0000000E+000	0.0000000E+000	-39.2726	0.0000000E+000	0.0000000E+000	0.0000000E+000	39.2726	1.22296	50.7274	-1.70731e-06
999.682	8.25904	8.38927	11.7725	-45.4482	1566.96	0.448346	-0.00784835	18.9773	9.63708	1	38	0.00507968	0.000431487	0	-3.86429e-05	2.65236	1.44222	47.9646	4.09109e-05	3.02822e-05	6.60726e-05	5.18665e-05	2.83714e-05	8.61169e-05	0.61447	0.420802	9.35004	9.24419e-07	1.25511e-06	1.13589e-06	4.61637e-07	9.56579e-07	1.24433e-06	0.0595926	0.0605323	0.0849438	45.4482	9637.08	9487.48	13523.5	-44.5518	0.0000000E+000	0.0000000E+000	0.0000000E+000	44.5518	0.0000000E+000	0.0000000E+000	0.0000000E+000	-44.5518	0.0000000E+000	0.0000000E+000	0.0000000E+000	-45.4482	0.0000000E+000	0.0000000E+000	0.0000000E+000	45.4482	0.984477	44.5518	-1.4287e-06
794.239	8.2615	10.2223	13.1434	-51.0555	1567.7	0.448357	-0.00764913	19.6028	11.8578	1	38	0.00497324	0.000378384	0	-4.00687e-05	2.32392	1.58656	46.6252	3.77533e-05	3.86522e-05	4.68967e-05	6.27224e-05	4.3041e-05	3.44895e-05	0.574071	0.256311	10.0139	5.05934e-07	1.18149e-06	7.74374e-07	1.15434e-06	5.88074e-07	6.91325e-07	0.0478239	0.0591747	0.076084	51.0555	11857.8	9583.27	15246.2	-38.9445	0.0000000E+000	0.0000000E+000	0.0000000E+000	38.9445	0.0000000E+000	0.0000000E+000	0.0000000E+000	-38.9445	0.0000000E+000	0.0000000E+000	0.0000000E+000	-51.0555	0.0000000E+000	0.0000000E+000	0.0000000E+000	51.0555	0.808182	38.9445	-1.42581e-06
631.01	8.46059	12.7923	15.337	-56.52	1568.44	0.448362	-0.00523234	19.7168	13.7167	1	38	0.00496776	0.000323907	0	-4.07517e-05	3.07932	1.44952	48.4602	3.34953e-05	0.000116933	1.76261e-05	4.1676e-05	6.8273e-05	3.56847e-05	0.808521	0.442612	12.2578	6.53886e-07	2.24938e-06	6.12903e-07	4.98223e-07	6.73633e-07	3.62874e-07	0.0359683	0.0543834	0.0652018	56.52	13716.7	9072.02	16445.4	-33.48	0.0000000E+000	0.0000000E+000	0.0000000E+000	33.48	0.0000000E+000	0.0000000E+000	0.0000000E+000	-33.48	0.0000000E+000	0.0000000E+000	0.0000000E+000	-56.52	0.0000000E+000	0.0000000E+000	0.0000000E+000	56.52	0.661384	33.48	-6.83017e-07
501.122	8.47053	16.0913	18.1846	-62.2374	1569.19	0.448407	-0.00435537	19.7372	15.4547	1	38	0.0049441	0.000271884	0	-4.15595e-05	4.82804	1.55799	47.7214	3.19776e-05	8.40435e-05	8.20925e-05	0.000195696	4.04689e-05	3.2232e-05	1.36121	0.462409	14.4126	1.28942e-06	1.52166e-06	7.49043e-07	2.84622e-06	4.17995e-07	8.96636e-07	0.0256156	0.0486613	0.0549917	62.2374	15454.7	8135.43	17465.2	-27.7626	0.0000000E+000	0.0000000E+000	0.0000000E+000	27.7626	0.0000000E+000	0.0000000E+000	0.0000000E+000	-27.7626	0.0000000E+000	0.0000000E+000	0.0000000E+000	-62.2374	0.0000000E+000	0.0000000E+000	0.0000000E+000	62.2374	0.526405	27.7626	-8.07722e-07
398.089	8.94639	20.1294	22.028	-66.0376	1569.93	0.448326	-0.00482644	19.8613	16.5852	1	38	0.00496448	0.000225371	0	-4.23976e-05	2.29183	1.07766	47.1842	2.1461e-05	8.03383e-05	2.58517e-05	4.64803e-05	3.44946e-05	3.65361e-05	0.833637	0.442712	16.9897	8.42719e-07	6.52875e-07	7.63657e-07	5.95003e-07	9.15407e-07	4.86152e-07	0.0184373	0.0414841	0.0453968	66.0376	16585.2	7371.19	18149.5	-23.9624	0.0000000E+000	0.0000000E+000	0.0000000E+000	23.9624	0.0000000E+000	0.0000000E+000	0.0000000E+000	-23.9624	0.0000000E+000	0.0000000E+000	0.0000000E+000	-66.0376	0.0000000E+000	0.0000000E+000	0.0000000E+000	66.0376	0.444443	23.9624	-8.38158e-07
316.316	9.13207	25.4481	27.0371	-70.2595	1570.67	0.448346	-0.00392713	19.7717	17.5161	1	38	0.00497115	0.000183864	0	-4.32405e-05	2.19239	1.13175	47.8115	3.62161e-05	2.77294e-05	4.43922e-05	1.91029e-05	5.84891e-05	3.66787e-05	1.22744	0.308727	20.8486	4.6291e-07	8.56524e-07	1.05198e-06	1.31352e-06	3.37206e-07	7.66213e-07	0.0124925	0.0348127	0.0369863	70.2595	17516.1	6285.64	18609.7	-19.7405	0.0000000E+000	0.0000000E+000	0.0000000E+000	19.7405	0.0000000E+000	0.0000000E+000	0.0000000E+000	-19.7405	0.0000000E+000	0.0000000E+000	0.0000000E+000	-70.2595	0.0000000E+000	0.0000000E+000	0.0000000E+000	70.2595	0.35885	19.7405	-8.42843e-07
251.206	9.38089	31.4703	32.8387	-73.4014	1571.67	0.448351	-0.000507911	20.1321	18.4892	1	39	0.0050597	0.000154077	0	-4.33664e-05	2.05849	1.10501	44.018	4.31468e-05	5.34565e-05	4.65462e-05	3.72633e-05	1.7532e-05	3.80835e-05	0.879259	0.411433	12.4554	5.02921e-07	8.60957e-07	2.75844e-07	6.76617e-07	4.19326e-07	2.86581e-07	0.00869905	0.0291829	0.0304519	73.4014	18489.2	5511.4	19293.2	-16.5986	0.0000000E+000	0.0000000E+000	0.0000000E+000	16.5986	0.0000000E+000	0.0000000E+000	0.0000000E+000	-16.5986	0.0000000E+000	0.0000000E+000	0.0000000E+000	-73.4014	0.0000000E+000	0.0000000E+000	0.0000000E+000	73.4014	0.298087	16.5986	-1.25924e-07
199.553	10.3702	39.4698	40.8094	-75.279	1572.41	0.448346	-9.15401e-05	20.2067	18.9019	1	39	0.00501422	0.000122869	0	-4.32776e-05	2.77403	1.69434	49.0816	2.33339e-05	8.6657e-05	5.10984e-05	4.98394e-05	6.23093e-05	1.53949e-05	0.840833	0.476754	16.2769	1.94815e-07	5.54677e-07	3.29354e-07	4.43541e-07	3.91776e-07	2.2809e-07	0.00622683	0.0236998	0.0245042	75.279	18901.9	4966.25	19543.4	-14.721	0.0000000E+000	0.0000000E+000	0.0000000E+000	14.721	0.0000000E+000	0.0000000E+000	0.0000000E+000	-14.721	0.0000000E+000	0.0000000E+000	0.0000000E+000	-75.279	0.0000000E+000	0.0000000E+000	0.0000000E+000	75.279	0.262738	14.721	8.87876e-08
158.529	10.8889	49.0381	50.2325	-77.4806	1573.16	0.448373	4.26527e-05	20.4728	19.5108	1	39	0.00495847	9.87104e-05	0	-4.32827e-05	1.74642	1.32668	46.4698	3.18855e-05	2.71583e-05	4.3027e-05	2.64897e-05	3.2608e-05	3.43456e-05	1.01148	0.683429	19.8298	3.87015e-07	3.11069e-07	6.09718e-07	4.1086e-07	3.65208e-07	2.18579e-07	0.00431535	0.0194341	0.0199074	77.4806	19510.8	4332.39	19986.1	-12.5194	0.0000000E+000	0.0000000E+000	0.0000000E+000	12.5194	0.0000000E+000	0.0000000E+000	0.0000000E+000	-12.5194	0.0000000E+000	0.0000000E+000	0.0000000E+000	-77.4806	0.0000000E+000	0.0000000E+000	0.0000000E+000	77.4806	0.222051	12.5194	-5.09974e-09
125.927	11.2226	61.8962	62.9053	-79.7231	1573.9	0.448378	-0.000516859	20.4192	19.7693	1	39	0.00498812	7.92956e-05	0	-4.34296e-05	2.3227	1.03567	45.4228	5.14204e-05	4.93787e-05	4.84406e-05	4.26508e-05	3.48655e-05	3.48689e-05	1.51367	0.627138	24.5373	3.76696e-07	7.03327e-07	3.07564e-07	6.14708e-07	2.6967e-07	3.58051e-07	0.00283609	0.0156419	0.0158969	79.7231	19769.3	3584.44	20091.6	-10.2769	0.0000000E+000	0.0000000E+000	0.0000000E+000	10.2769	0.0000000E+000	0.0000000E+000	0.0000000E+000	-10.2769	0.0000000E+000	0.0000000E+000	0.0000000E+000	-79.7231	0.0000000E+000	0.0000000E+000	0.0000000E+000	79.7231	0.181314	10.2769	-1.46915e-07
99.9682	12.4398	77.531	78.5226	-80.8847	1574.63	0.44836	-0.000474737	20.5345	20.0191	1	39	0.00495875	6.31506e-05	0	-4.35686e-05	2.53094	2.00372	44.7568	2.53868e-05	3.09021e-05	4.70071e-05	2.42612e-05	9.57069e-05	3.82762e-05	1.65804	1.3239	29.6752	3.5133e-07	2.94065e-07	3.98157e-07	5.01167e-07	5.27717e-07	3.12442e-07	0.00201754	0.0125744	0.0127352	80.8847	20019.1	3212.04	20275.1	-9.11535	0.0000000E+000	0.0000000E+000	0.0000000E+000	9.11535	0.0000000E+000	0.0000000E+000	0.0000000E+000	-9.11535	0.0000000E+000	0.0000000E+000	0.0000000E+000	-80.8847	0.0000000E+000	0.0000000E+000	0.0000000E+000	80.8847	0.160449	9.11536	-1.38953e-07