File: Python/Data/GoldElectrode/240313/240313-CVEIS_Activation-0p5H2SO4-Ag_AgCl_BLF8-Au_RDE-80cycles_02_PEIS_C15.mpt
EC-Lab ASCII FILE
Nb header lines : 66

Potentio Electrochemical Impedance Spectroscopy

Run on channel : 15 (SN 19485)
User :
Electrode connection : standard
Potential control : Ewe
Ewe ctrl range : min = -2.50 V, max = 2.50 V
Ewe,I filtering : 50 kHz
Safety Limits :
	Do not start on E overload
Channel : Floating
Acquisition started on : 03/13/2024 15:25:11.595
Loaded Setting File :  C:\Data\mathias\GoldElectrode\240308-CVEIS_Activation-0p5H2SO4-Ag_AgCl_BLF8-Au_RDE-80cycles-C15.mps
Saved on :
	File : 240313-CVEIS_Activation-0p5H2SO4-Ag_AgCl_BLF8-Au_RDE-80cycles_02_PEIS_C15.mpr
	Directory : C:\Data\mathias\GoldElectrode\
	Host : 192.168.0.1
Device : VMP-300 (SN 0826)
Address : USB
EC-Lab for windows v11.52 (software)
Internet server v11.52 (firmware)
Command interpretor v11.52 (firmware)
Electrode material :
Initial state :
Electrolyte :
Comments :
Cable : special
Electrode surface area : 0.001 cm²
Characteristic mass : 0.001 g
Equivalent Weight : 0.000 g/eq.
Density : 0.000 g/cm3
Volume (V) : 0.001 cm³
Record EIS quality indicators
Cycle Definition : Charge/Discharge alternance
Mode                Single sine
E (V)               0.0000
vs.                 Eoc
tE (h:m:s)          0:00:0.0000
record              0
dI                  0.000
unit dI             mA
dt (s)              0.000
fi                  100.000
unit fi             kHz
ff                  100.000
unit ff             Hz
Nd                  10
Points              per decade
spacing             Logarithmic
Va (mV)             5.0
pw                  0.10
Na                  2
corr                0
E range min (V)     -2.500
E range max (V)     2.500
I Range             Auto
Bandwidth           8
nc cycles           0
goto Ns'            0
nr cycles           0
inc. cycle          0

freq/Hz	Re(Z)/Ohm	-Im(Z)/Ohm	|Z|/Ohm	Phase(Z)/deg	time/s	<Ewe>/V	<I>/mA	Cs/µF	Cp/µF	cycle number	I Range	|Ewe|/V	|I|/A	Ns	(Q-Qo)/mA.h	THD Ewe/%	NSD Ewe/%	NSR Ewe/%	|Ewe h2|/V	|Ewe h3|/V	|Ewe h4|/V	|Ewe h5|/V	|Ewe h6|/V	|Ewe h7|/V	THD I/%	NSD I/%	NSR I/%	|I h2|/A	|I h3|/A	|I h4|/A	|I h5|/A	|I h6|/A	|I h7|/A	Re(Y)/Ohm-1	Im(Y)/Ohm-1	|Y|/Ohm-1	Phase(Y)/deg	Re(C)/nF	Im(C)/nF	|C|/nF	Phase(C)/deg	Re(M)	Im(M)	|M|	Phase(M)/deg	Re(Permittivity)	Im(Permittivity)	|Permittivity|	Phase(Permittivity)/deg	Re(Resistivity)/Ohm.cm	Im(Resistivity)/Ohm.cm	|Resistivity|/Ohm.cm	Phase(Resistivity)/deg	Re(Conductivity)/mS/cm	Im(Conductivity)/mS/cm	|Conductivity|/mS/cm	Phase(Conductivity)/deg	Tan(Delta)	Loss Angle(Delta)/deg	dq/mA.h
100004	7.64682	1.29382	7.75551	-9.60336	21.2149	0.448512	-0.0157244	1.23007	0.0342341	1	38	0.00488331	0.000629657	0	-4.0811e-06	2.60578	1.35035	47.696	5.88216e-05	5.13077e-05	6.25192e-05	3.67367e-05	3.65355e-05	2.38674e-05	0.275123	0.195426	5.97619	6.71481e-07	7.50139e-07	6.73759e-07	7.03545e-07	6.27512e-07	3.82427e-07	0.127134	0.0215107	0.128941	9.60336	34.2341	202.332	205.208	-80.3966	0.0000000E+000	0.0000000E+000	0.0000000E+000	80.3966	0.0000000E+000	0.0000000E+000	0.0000000E+000	-80.3966	0.0000000E+000	0.0000000E+000	0.0000000E+000	-9.60336	0.0000000E+000	0.0000000E+000	0.0000000E+000	9.60336	5.91025	80.3966	-4.0811e-06
79433.3	7.79069	1.26807	7.89322	-9.2448	22.0289	0.448463	-0.00663995	1.58007	0.0407805	1	38	0.00513707	0.000650821	0	-5.30949e-06	2.77819	1.68656	45.2593	5.07681e-05	3.71602e-05	4.38465e-05	5.56401e-05	8.5236e-05	4.35681e-05	0.317571	0.165361	5.79129	4.58173e-07	7.35367e-07	5.88563e-07	1.22643e-06	6.72431e-07	8.96903e-07	0.125045	0.0203533	0.126691	9.2448	40.7805	250.545	253.842	-80.7552	0.0000000E+000	0.0000000E+000	0.0000000E+000	80.7552	0.0000000E+000	0.0000000E+000	0.0000000E+000	-80.7552	0.0000000E+000	0.0000000E+000	0.0000000E+000	-9.2448	0.0000000E+000	0.0000000E+000	0.0000000E+000	9.2448	6.14375	80.7552	-1.22838e-06
63093.8	7.82342	1.31423	7.93304	-9.53586	22.8429	0.448512	-0.00737914	1.91939	0.0526774	1	38	0.00517153	0.000651898	0	-5.71589e-06	2.26041	1.83331	46.2795	3.60696e-05	3.91611e-05	4.87245e-05	5.04677e-05	3.5704e-05	5.49802e-05	0.297604	0.179372	5.80732	6.62042e-07	6.1417e-07	1.08288e-06	6.57196e-07	5.18614e-07	7.38871e-07	0.124313	0.0208829	0.126055	9.53586	52.6774	313.582	317.976	-80.4641	0.0000000E+000	0.0000000E+000	0.0000000E+000	80.4641	0.0000000E+000	0.0000000E+000	0.0000000E+000	-80.4641	0.0000000E+000	0.0000000E+000	0.0000000E+000	-9.53586	0.0000000E+000	0.0000000E+000	0.0000000E+000	9.53586	5.95287	80.4641	-4.06406e-07
50122.5	7.91718	1.45721	8.05017	-10.4289	23.6569	0.448496	-0.00635321	2.17905	0.0714001	1	38	0.00515157	0.000639933	0	-8.03825e-06	2.45505	2.83577	45.5481	6.28161e-05	4.72097e-05	3.01832e-05	3.94409e-05	4.3305e-05	6.05435e-05	0.27406	0.348512	5.99662	8.48153e-07	7.89312e-07	1.683e-07	5.47115e-07	7.89888e-07	7.03193e-07	0.122169	0.022486	0.124221	10.4289	71.4001	387.926	394.442	-79.5711	0.0000000E+000	0.0000000E+000	0.0000000E+000	79.5711	0.0000000E+000	0.0000000E+000	0.0000000E+000	-79.5711	0.0000000E+000	0.0000000E+000	0.0000000E+000	-10.4289	0.0000000E+000	0.0000000E+000	0.0000000E+000	10.4289	5.43312	79.5711	-2.32236e-06
39814.1	7.94655	1.82049	8.15241	-12.9033	24.4709	0.448475	-0.00726742	2.19582	0.109496	1	38	0.00515946	0.000632875	0	-9.43233e-06	2.16087	1.06464	45.8879	9.93988e-06	6.97089e-05	3.09484e-05	4.56731e-05	4.3355e-05	3.26761e-05	0.269881	0.148872	5.9121	2.97081e-07	8.27267e-07	1.03751e-06	4.37653e-07	8.285e-07	2.58117e-07	0.119566	0.0273915	0.122663	12.9033	109.496	477.958	490.34	-77.0967	0.0000000E+000	0.0000000E+000	0.0000000E+000	77.0967	0.0000000E+000	0.0000000E+000	0.0000000E+000	-77.0967	0.0000000E+000	0.0000000E+000	0.0000000E+000	-12.9033	0.0000000E+000	0.0000000E+000	0.0000000E+000	12.9033	4.36507	77.0967	-1.39407e-06
31621.1	8.10945	2.12574	8.38344	-14.6885	25.2849	0.448531	-0.00634204	2.36773	0.152233	1	38	0.00522405	0.000623139	0	-1.10313e-05	2.43839	0.914917	45.8094	5.12801e-05	6.74775e-05	4.44761e-05	2.74068e-05	5.12153e-05	3.59453e-05	0.237184	0.158925	6.17122	6.65247e-07	8.08175e-07	2.53006e-07	6.30173e-07	5.87311e-07	3.87093e-07	0.115384	0.0302459	0.119283	14.6885	152.233	580.751	600.372	-75.3115	0.0000000E+000	0.0000000E+000	0.0000000E+000	75.3115	0.0000000E+000	0.0000000E+000	0.0000000E+000	-75.3115	0.0000000E+000	0.0000000E+000	0.0000000E+000	-14.6885	0.0000000E+000	0.0000000E+000	0.0000000E+000	14.6885	3.81488	75.3115	-1.59902e-06
25116.9	8.28945	2.2683	8.5942	-15.3036	26.0989	0.448451	-0.00601993	2.79353	0.1946	1	38	0.00512241	0.000596032	0	-1.31831e-05	2.53517	2.56002	47.3336	7.89321e-05	4.08363e-05	3.66445e-05	3.82771e-05	1.35053e-05	6.1155e-05	0.296548	0.338349	6.47939	4.69009e-07	8.09829e-07	1.31641e-07	1.05777e-06	7.06356e-07	5.08529e-07	0.112232	0.0307107	0.116358	15.3036	194.6	711.163	737.308	-74.6964	0.0000000E+000	0.0000000E+000	0.0000000E+000	74.6964	0.0000000E+000	0.0000000E+000	0.0000000E+000	-74.6964	0.0000000E+000	0.0000000E+000	0.0000000E+000	-15.3036	0.0000000E+000	0.0000000E+000	0.0000000E+000	15.3036	3.65448	74.6964	-2.1518e-06
19948.8	8.39275	2.78801	8.84371	-18.3761	26.9129	0.448526	-0.00598269	2.8616	0.2844	1	38	0.00517024	0.000584623	0	-1.40613e-05	4.01673	0.962644	45.1962	3.11137e-05	1.14678e-05	0.000183974	3.47111e-05	5.78727e-05	4.82314e-05	0.529244	0.181924	6.44328	5.08115e-07	2.48072e-07	2.77215e-06	3.61803e-07	6.19653e-07	9.54288e-07	0.107309	0.0356472	0.113075	18.3761	284.4	856.128	902.13	-71.6239	0.0000000E+000	0.0000000E+000	0.0000000E+000	71.6239	0.0000000E+000	0.0000000E+000	0.0000000E+000	-71.6239	0.0000000E+000	0.0000000E+000	0.0000000E+000	-18.3761	0.0000000E+000	0.0000000E+000	0.0000000E+000	18.3761	3.0103	71.6239	-8.78155e-07
15847.7	8.53754	3.3777	9.18142	-21.5852	27.7269	0.448466	-0.00602738	2.97327	0.402397	1	38	0.00511651	0.000557267	0	-1.52959e-05	2.80527	0.925222	46.2809	5.8399e-05	1.80514e-05	4.5891e-05	3.70939e-05	6.11764e-05	8.98974e-05	0.475733	0.203287	6.74908	4.14289e-07	5.66269e-07	8.92395e-07	2.82676e-07	1.06977e-06	1.98263e-06	0.101278	0.0400683	0.108916	21.5852	402.397	1017.11	1093.82	-68.4148	0.0000000E+000	0.0000000E+000	0.0000000E+000	68.4148	0.0000000E+000	0.0000000E+000	0.0000000E+000	-68.4148	0.0000000E+000	0.0000000E+000	0.0000000E+000	-21.5852	0.0000000E+000	0.0000000E+000	0.0000000E+000	21.5852	2.52762	68.4148	-1.23462e-06
12590.9	8.77811	3.96674	9.63277	-24.3177	28.5419	0.448527	-0.00638301	3.18661	0.540373	1	38	0.00522298	0.00054221	0	-1.65662e-05	2.1678	1.94391	45.5733	3.16144e-05	5.41959e-05	4.01084e-05	3.00014e-05	2.79967e-05	6.7186e-05	0.39	0.221729	7.01894	1.37348e-06	5.43357e-07	5.00325e-07	9.39588e-07	4.35798e-07	8.28452e-07	0.0946017	0.0427495	0.103812	24.3177	540.373	1195.81	1312.23	-65.6823	0.0000000E+000	0.0000000E+000	0.0000000E+000	65.6823	0.0000000E+000	0.0000000E+000	0.0000000E+000	-65.6823	0.0000000E+000	0.0000000E+000	0.0000000E+000	-24.3177	0.0000000E+000	0.0000000E+000	0.0000000E+000	24.3177	2.21293	65.6823	-1.2703e-06
10002.2	8.88764	4.78525	10.094	-28.2987	29.3559	0.448509	-0.0058747	3.32521	0.747312	1	38	0.00508331	0.000503598	0	-1.74185e-05	2.19727	1.25039	45.6861	4.58235e-05	4.33403e-05	2.16048e-05	5.43595e-05	4.81304e-05	3.8028e-05	0.414252	0.25306	7.74814	8.12393e-07	1.26976e-06	4.82403e-07	6.06306e-07	8.53403e-07	7.4577e-07	0.0872289	0.0469654	0.0990688	28.2987	747.312	1387.98	1576.38	-61.7013	0.0000000E+000	0.0000000E+000	0.0000000E+000	61.7013	0.0000000E+000	0.0000000E+000	0.0000000E+000	-61.7013	0.0000000E+000	0.0000000E+000	0.0000000E+000	-28.2987	0.0000000E+000	0.0000000E+000	0.0000000E+000	28.2987	1.8573	61.7013	-8.52254e-07
7944	9.16722	5.78882	10.842	-32.2712	30.2054	0.448379	-0.00638673	3.46092	0.98663	1	38	0.00515759	0.000475705	0	-1.85629e-05	2.03368	0.857904	45.1259	6.10252e-05	4.37813e-05	2.92302e-05	2.62184e-05	2.57332e-05	4.84734e-05	0.403874	0.192777	8.04367	6.30406e-07	9.3521e-07	9.15214e-07	4.51787e-07	4.45967e-07	9.44473e-07	0.0779868	0.0492462	0.0922341	32.2712	986.63	1562.44	1847.88	-57.7288	0.0000000E+000	0.0000000E+000	0.0000000E+000	57.7288	0.0000000E+000	0.0000000E+000	0.0000000E+000	-57.7288	0.0000000E+000	0.0000000E+000	0.0000000E+000	-32.2712	0.0000000E+000	0.0000000E+000	0.0000000E+000	32.2712	1.58361	57.7289	-1.14445e-06
6307.74	9.47737	6.96634	11.7622	-36.3178	30.92	0.448395	-0.00706075	3.62195	1.27049	1	38	0.00551157	0.000468582	0	-2.01223e-05	3.36053	1.21797	40.4485	3.23281e-05	0.000156421	3.98783e-05	3.72493e-05	6.56758e-05	1.17701e-05	0.789198	0.20075	7.66546	1.50624e-06	2.86121e-06	7.58024e-07	1.32136e-06	6.75655e-07	2.74068e-07	0.0685026	0.0503529	0.0850178	36.3178	1270.49	1728.44	2145.14	-53.6822	0.0000000E+000	0.0000000E+000	0.0000000E+000	53.6822	0.0000000E+000	0.0000000E+000	0.0000000E+000	-53.6822	0.0000000E+000	0.0000000E+000	0.0000000E+000	-36.3178	0.0000000E+000	0.0000000E+000	0.0000000E+000	36.3178	1.36045	53.6822	-1.55943e-06
5011.6	9.83121	8.73788	13.1531	-41.6304	31.8981	0.448349	-0.00620054	3.63444	1.60397	1	38	0.0050593	0.000384648	0	-2.20064e-05	2.16755	1.38905	45.8524	1.30099e-05	4.41655e-05	6.84691e-05	2.31317e-05	4.14848e-05	4.68437e-05	0.676522	0.265563	10.3263	7.21607e-07	9.4296e-07	1.17246e-06	5.70316e-07	1.53028e-06	1.03402e-06	0.0568267	0.050507	0.0760279	41.6304	1603.97	1804.66	2414.44	-48.3696	0.0000000E+000	0.0000000E+000	0.0000000E+000	48.3696	0.0000000E+000	0.0000000E+000	0.0000000E+000	-48.3696	0.0000000E+000	0.0000000E+000	0.0000000E+000	-41.6304	0.0000000E+000	0.0000000E+000	0.0000000E+000	41.6304	1.12513	48.3696	-1.88405e-06
3981.28	10.4117	10.4315	14.7383	-45.0544	32.6411	0.448363	-0.0054055	3.83224	1.91976	1	38	0.00503087	0.000341346	0	-2.33326e-05	1.89394	1.15201	45.0006	1.83182e-05	4.23176e-05	4.65097e-05	3.37756e-05	3.82114e-05	3.11688e-05	0.789059	0.324894	11.1631	1.44417e-06	9.19648e-07	2.74956e-07	1.19435e-06	1.4131e-06	8.07364e-07	0.0479318	0.0480229	0.0678503	45.0544	1919.76	1916.11	2712.37	-44.9456	0.0000000E+000	0.0000000E+000	0.0000000E+000	44.9456	0.0000000E+000	0.0000000E+000	0.0000000E+000	-44.9456	0.0000000E+000	0.0000000E+000	0.0000000E+000	-45.0544	0.0000000E+000	0.0000000E+000	0.0000000E+000	45.0544	0.998102	44.9456	-1.3262e-06
3163.04	11.0325	12.5618	16.7188	-48.7085	33.384	0.448385	-0.00521	4.00555	2.26131	1	38	0.00494836	0.000295977	0	-2.4606e-05	2.59354	1.71252	45.5761	1.65786e-05	2.91767e-05	4.93389e-05	6.13262e-05	4.42303e-05	5.39146e-05	0.571493	0.437277	12.406	4.72288e-07	6.11689e-07	6.69292e-07	3.5663e-07	5.9256e-07	1.0486e-06	0.0394701	0.0449413	0.0598131	48.7085	2261.31	1986.02	3009.62	-41.2915	0.0000000E+000	0.0000000E+000	0.0000000E+000	41.2915	0.0000000E+000	0.0000000E+000	0.0000000E+000	-41.2915	0.0000000E+000	0.0000000E+000	0.0000000E+000	-48.7085	0.0000000E+000	0.0000000E+000	0.0000000E+000	48.7085	0.878259	41.2915	-1.27344e-06
2512.41	11.7861	15.4012	19.3936	-52.5744	34.127	0.44837	-0.00449874	4.11314	2.59401	1	38	0.00489477	0.000252392	0	-2.54068e-05	2.2674	1.45404	48.3427	3.88326e-05	4.51863e-05	3.15023e-05	4.75395e-05	6.03829e-05	2.62677e-05	0.923322	0.577268	14.8446	1.28101e-06	1.14344e-06	4.92798e-07	7.678e-07	6.62681e-07	1.0373e-06	0.0313368	0.0409488	0.0515635	52.5744	2594.01	1985.11	3266.42	-37.4256	0.0000000E+000	0.0000000E+000	0.0000000E+000	37.4256	0.0000000E+000	0.0000000E+000	0.0000000E+000	-37.4256	0.0000000E+000	0.0000000E+000	0.0000000E+000	-52.5744	0.0000000E+000	0.0000000E+000	0.0000000E+000	52.5744	0.765267	37.4256	-8.00788e-07
1995.64	12.5647	18.4437	22.3168	-55.7355	34.8701	0.448404	-0.00467004	4.32405	2.9534	1	38	0.00474866	0.000212784	0	-2.65541e-05	1.87652	1.82443	50.0627	5.49006e-05	3.72269e-05	2.72665e-05	1.73602e-05	3.92967e-05	2.73154e-05	0.931034	0.692714	18.7752	5.10331e-07	5.12529e-07	6.86376e-07	1.35415e-06	9.32746e-07	3.38807e-07	0.0252282	0.0370325	0.0448093	55.7355	2953.4	2011.99	3573.6	-34.2645	0.0000000E+000	0.0000000E+000	0.0000000E+000	34.2645	0.0000000E+000	0.0000000E+000	0.0000000E+000	-34.2645	0.0000000E+000	0.0000000E+000	0.0000000E+000	-55.7355	0.0000000E+000	0.0000000E+000	0.0000000E+000	55.7355	0.681245	34.2645	-1.14726e-06
1584.49	13.6293	22.7535	26.5231	-59.0785	35.6142	0.448392	-0.00504615	4.41451	3.24883	1	38	0.00474735	0.000178989	0	-2.74677e-05	2.67074	0.98577	49.5169	5.21804e-05	5.6243e-05	7.05809e-05	4.52389e-05	2.08684e-05	3.86249e-05	1.69936	0.81414	21.289	1.45303e-06	1.44452e-06	8.87522e-07	1.14943e-06	9.04869e-07	1.14496e-06	0.0193742	0.0323443	0.0377029	59.0785	3248.84	1946.04	3787.09	-30.9215	0.0000000E+000	0.0000000E+000	0.0000000E+000	30.9215	0.0000000E+000	0.0000000E+000	0.0000000E+000	-30.9215	0.0000000E+000	0.0000000E+000	0.0000000E+000	-59.0785	0.0000000E+000	0.0000000E+000	0.0000000E+000	59.0785	0.598997	30.9215	-9.13639e-07
1258.79	14.8572	27.5952	31.3405	-61.7021	36.3573	0.448336	-0.00372976	4.58177	3.55211	1	38	0.00468853	0.000149599	0	-2.82112e-05	2.40363	2.15616	49.2588	3.95861e-05	6.44799e-05	6.59811e-05	2.78175e-05	2.05799e-05	1.81308e-05	1.52129	1.14925	25.6218	1.13058e-06	9.43535e-07	5.88544e-07	1.37497e-06	3.42083e-07	6.2937e-07	0.015126	0.0280944	0.0319075	61.7021	3552.11	1912.45	4034.22	-28.2979	0.0000000E+000	0.0000000E+000	0.0000000E+000	28.2979	0.0000000E+000	0.0000000E+000	0.0000000E+000	-28.2979	0.0000000E+000	0.0000000E+000	0.0000000E+000	-61.7021	0.0000000E+000	0.0000000E+000	0.0000000E+000	61.7021	0.538398	28.2979	-7.43485e-07
999.682	17.0344	33.8251	37.8723	-63.2701	37.3542	0.448326	-0.000544069	4.70673	3.75452	1	39	0.00511131	0.000134962	0	-2.87607e-05	2.32872	0.980409	42.9257	3.47203e-05	3.09769e-05	1.57537e-05	6.61272e-05	3.28569e-05	7.16353e-05	0.72042	0.290402	13.683	2.00264e-07	2.4358e-07	2.77949e-07	5.85483e-07	3.42795e-07	4.77145e-07	0.0118764	0.0235829	0.0264045	63.2701	3754.52	1890.78	4203.75	-26.7299	0.0000000E+000	0.0000000E+000	0.0000000E+000	26.7299	0.0000000E+000	0.0000000E+000	0.0000000E+000	-26.7299	0.0000000E+000	0.0000000E+000	0.0000000E+000	-63.2701	0.0000000E+000	0.0000000E+000	0.0000000E+000	63.2701	0.503602	26.7299	-5.4949e-07
794.239	19.1924	40.8976	45.177	-64.8604	38.0974	0.448347	-0.000392915	4.89971	4.01543	1	39	0.00493202	0.000109171	0	-2.87993e-05	2.02245	1.40048	45.5454	4.54324e-05	3.73808e-05	5.72528e-05	9.26839e-06	3.67078e-05	3.11564e-05	0.854811	0.346271	16.7735	3.01748e-07	4.42432e-07	5.42257e-07	2.29409e-07	3.58131e-07	2.52056e-07	0.00940359	0.0200384	0.0221351	64.8604	4015.43	1884.35	4435.59	-25.1396	0.0000000E+000	0.0000000E+000	0.0000000E+000	25.1396	0.0000000E+000	0.0000000E+000	0.0000000E+000	-25.1396	0.0000000E+000	0.0000000E+000	0.0000000E+000	-64.8604	0.0000000E+000	0.0000000E+000	0.0000000E+000	64.8604	0.469278	25.1396	-3.85719e-08
631.01	21.2943	50.173	54.5049	-67.0028	38.8398	0.448373	-0.000503439	5.02706	4.25975	1	39	0.00485503	8.90751e-05	0	-2.88006e-05	3.87392	0.927998	47.7766	3.18373e-05	0.00015562	4.7349e-05	3.75942e-05	5.06777e-05	4.22738e-05	1.55207	0.491684	21.4379	2.83017e-07	9.09471e-07	2.81529e-07	3.66987e-07	6.12477e-07	5.11882e-07	0.00716791	0.0168888	0.018347	67.0028	4259.75	1807.91	4627.53	-22.9972	0.0000000E+000	0.0000000E+000	0.0000000E+000	22.9972	0.0000000E+000	0.0000000E+000	0.0000000E+000	-22.9972	0.0000000E+000	0.0000000E+000	0.0000000E+000	-67.0028	0.0000000E+000	0.0000000E+000	0.0000000E+000	67.0028	0.424417	22.9972	-1.28446e-09
501.122	25.5213	59.3668	64.6201	-66.7375	39.5827	0.448381	9.03647e-05	5.34974	4.51528	1	39	0.0047152	7.2968e-05	0	-2.88519e-05	3.43478	1.36754	47.9551	1.47131e-05	7.33689e-05	5.55378e-05	8.24909e-05	3.92797e-05	8.99709e-05	1.56738	0.706234	25.8704	3.1652e-07	5.10265e-07	2.1014e-07	5.11849e-07	4.57805e-07	5.46533e-07	0.00611177	0.014217	0.0154751	66.7375	4515.28	1941.08	4914.83	-23.2625	0.0000000E+000	0.0000000E+000	0.0000000E+000	23.2625	0.0000000E+000	0.0000000E+000	0.0000000E+000	-23.2625	0.0000000E+000	0.0000000E+000	0.0000000E+000	-66.7375	0.0000000E+000	0.0000000E+000	0.0000000E+000	66.7375	0.429891	23.2625	-5.13525e-08
398.089	29.2662	72.3381	78.034	-67.973	40.3281	0.448361	-8.14771e-05	5.52679	4.7494	1	39	0.00469078	6.0112e-05	0	-2.88746e-05	1.77697	1.75114	48.3088	3.37202e-05	3.33355e-05	3.57823e-05	1.76096e-05	4.30277e-05	3.28765e-05	1.51182	0.856448	31.2159	2.12221e-07	5.06891e-07	2.13976e-07	4.36132e-07	2.57752e-07	3.52383e-07	0.00480616	0.0118795	0.0128149	67.973	4749.4	1921.49	5123.37	-22.027	0.0000000E+000	0.0000000E+000	0.0000000E+000	22.027	0.0000000E+000	0.0000000E+000	0.0000000E+000	-22.027	0.0000000E+000	0.0000000E+000	0.0000000E+000	-67.973	0.0000000E+000	0.0000000E+000	0.0000000E+000	67.973	0.404575	22.027	-2.26794e-08
316.316	32.7544	86.8698	92.8397	-69.341	41.0703	0.448384	-0.000107757	5.79202	5.07108	1	39	0.00464808	5.00657e-05	0	-2.88676e-05	2.38048	1.76956	48.7753	4.07092e-05	2.20714e-05	3.9631e-05	5.12867e-05	6.48444e-05	2.2983e-05	1.82868	0.936	37.1873	4.64259e-07	4.5299e-07	2.86173e-07	1.91173e-07	2.83772e-07	3.32293e-07	0.00380016	0.0100786	0.0107713	69.341	5071.08	1912.06	5419.58	-20.659	0.0000000E+000	0.0000000E+000	0.0000000E+000	20.659	0.0000000E+000	0.0000000E+000	0.0000000E+000	-20.659	0.0000000E+000	0.0000000E+000	0.0000000E+000	-69.341	0.0000000E+000	0.0000000E+000	0.0000000E+000	69.341	0.377052	20.659	7.01462e-09
251.206	40.4313	106.379	113.803	-69.1898	41.8132	0.448372	-0.000299541	5.95571	5.20399	1	39	0.00467288	4.1061e-05	0	-2.89086e-05	2.82805	1.26848	45.9664	3.14474e-05	3.13071e-05	2.78616e-05	2.74609e-05	9.34172e-05	6.26324e-05	2.42423	2.13216	45.8232	1.56629e-07	4.20992e-07	2.39184e-07	5.82114e-07	4.47635e-07	3.47475e-07	0.00312182	0.00821383	0.00878708	69.1898	5203.99	1977.87	5567.17	-20.8102	0.0000000E+000	0.0000000E+000	0.0000000E+000	20.8102	0.0000000E+000	0.0000000E+000	0.0000000E+000	-20.8102	0.0000000E+000	0.0000000E+000	0.0000000E+000	-69.1898	0.0000000E+000	0.0000000E+000	0.0000000E+000	69.1898	0.380068	20.8102	-4.10309e-08
199.553	46.9343	127.454	135.821	-69.784	42.5586	0.44838	-6.61947e-05	6.25759	5.51036	1	39	0.00464417	3.41933e-05	0	-2.89076e-05	4.32865	0.678763	47.522	8.37558e-05	5.75574e-05	8.04162e-05	9.76e-05	0.000100397	3.39492e-05	3.19733	1.67009	55.4038	6.71882e-07	1.42751e-07	3.90066e-07	5.0728e-07	6.38654e-08	3.11525e-07	0.00254423	0.00690906	0.00736262	69.784	5510.36	2029.16	5872.1	-20.216	0.0000000E+000	0.0000000E+000	0.0000000E+000	20.216	0.0000000E+000	0.0000000E+000	0.0000000E+000	-20.216	0.0000000E+000	0.0000000E+000	0.0000000E+000	-69.784	0.0000000E+000	0.0000000E+000	0.0000000E+000	69.784	0.368245	20.216	1.05691e-09
158.529	54.7935	154.174	163.621	-70.4348	43.307	0.448354	2.02851e-05	6.51179	5.78153	1	39	0.00464301	2.83766e-05	0	-2.8957e-05	1.92949	1.60746	49.3351	2.57351e-05	5.96871e-05	2.78238e-05	3.92369e-05	2.05985e-05	2.26422e-05	2.90006	2.68618	67.6356	2.98766e-07	3.31774e-07	4.38387e-07	3.35482e-07	2.32656e-07	1.56256e-07	0.00204667	0.00575879	0.00611167	70.4348	5781.53	2054.76	6135.8	-19.5652	0.0000000E+000	0.0000000E+000	0.0000000E+000	19.5652	0.0000000E+000	0.0000000E+000	0.0000000E+000	-19.5652	0.0000000E+000	0.0000000E+000	0.0000000E+000	-70.4348	0.0000000E+000	0.0000000E+000	0.0000000E+000	70.4348	0.3554	19.5652	-4.94361e-08
125.927	67.5099	183.718	195.729	-69.8234	44.0477	0.448396	-0.000486666	6.87939	6.06097	1	39	0.00460714	2.35383e-05	0	-2.8998e-05	2.39328	1.81841	47.6839	2.63543e-05	2.95112e-05	6.16457e-05	3.38917e-05	4.55065e-05	5.32647e-05	5.15488	2.00894	79.5496	3.418e-07	1.41442e-07	6.411e-07	3.27894e-07	7.18659e-07	4.52694e-07	0.0017622	0.00479557	0.00510909	69.8234	6060.97	2227.19	6457.23	-20.1766	0.0000000E+000	0.0000000E+000	0.0000000E+000	20.1766	0.0000000E+000	0.0000000E+000	0.0000000E+000	-20.1766	0.0000000E+000	0.0000000E+000	0.0000000E+000	-69.8234	0.0000000E+000	0.0000000E+000	0.0000000E+000	69.8234	0.367464	20.1766	-4.09946e-08
99.9682	79.9621	220.688	234.727	-70.083	45.0322	0.448416	-3.28975e-05	7.21407	6.37689	1	40	0.0046884	1.99738e-05	0	-2.90325e-05	2.76425	1.12199	70.7185	3.26065e-05	7.92173e-05	5.24431e-05	3.46316e-05	4.32091e-05	4.06389e-05	0.879202	0.403511	18.9226	6.12401e-08	4.83878e-08	4.23026e-08	8.9363e-08	8.29929e-08	7.19566e-08	0.0014513	0.00400544	0.00426026	70.083	6376.89	2310.55	6782.57	-19.917	0.0000000E+000	0.0000000E+000	0.0000000E+000	19.917	0.0000000E+000	0.0000000E+000	0.0000000E+000	-19.917	0.0000000E+000	0.0000000E+000	0.0000000E+000	-70.083	0.0000000E+000	0.0000000E+000	0.0000000E+000	70.083	0.362331	19.917	-3.45264e-08