File: Python/Data/GoldElectrode/240313/240313-CVEIS_PostActivation-Fe2Fe3_5mM-HCl1M-0625RPM-Ag_AgCl_BLF8-Au_RDE_02_PEIS_C15.mpt
EC-Lab ASCII FILE
Nb header lines : 66

Potentio Electrochemical Impedance Spectroscopy

Run on channel : 15 (SN 19485)
User :
Electrode connection : standard
Potential control : Ewe
Ewe ctrl range : min = -1.00 V, max = 1.00 V
Ewe,I filtering : <None>
Safety Limits :
	Do not start on E overload
Channel : Floating
Acquisition started on : 03/13/2024 17:31:32.070
Loaded Setting File :  NONE
Saved on :
	File : 240313-CVEIS_PostActivation-Fe2Fe3_5mM-HCl1M-625RPM-Ag_AgCl_BLF8-Au_RDE_02_PEIS_C15.mpr
	Directory : C:\Data\mathias\GoldElectrode\
	Host : 192.168.0.1
Device : VMP-300 (SN 0826)
Address : USB
EC-Lab for windows v11.52 (software)
Internet server v11.52 (firmware)
Command interpretor v11.52 (firmware)
Electrode material :
Initial state :
Electrolyte :
Comments :
Cable : special
Electrode surface area : 0.001 cm²
Characteristic mass : 0.001 g
Equivalent Weight : 0.000 g/eq.
Density : 0.000 g/cm3
Volume (V) : 0.001 cm³
Record EIS quality indicators
Cycle Definition : Charge/Discharge alternance
Mode                Single sine
E (V)               0.0000
vs.                 Eoc
tE (h:m:s)          0:01:0.0000
record              0
dI                  0.000
unit dI             mA
dt (s)              0.000
fi                  400.000
unit fi             kHz
ff                  100.000
unit ff             mHz
Nd                  10
Points              per decade
spacing             Logarithmic
Va (mV)             5.0
pw                  0.10
Na                  3
corr                0
E range min (V)     -1.000
E range max (V)     1.000
I Range             Auto
Bandwidth           8
nc cycles           0
goto Ns'            0
nr cycles           0
inc. cycle          1

freq/Hz	Re(Z)/Ohm	-Im(Z)/Ohm	|Z|/Ohm	Phase(Z)/deg	time/s	<Ewe>/V	<I>/mA	Cs/µF	Cp/µF	cycle number	I Range	|Ewe|/V	|I|/A	Ns	(Q-Qo)/mA.h	THD Ewe/%	NSD Ewe/%	NSR Ewe/%	|Ewe h2|/V	|Ewe h3|/V	|Ewe h4|/V	|Ewe h5|/V	|Ewe h6|/V	|Ewe h7|/V	THD I/%	NSD I/%	NSR I/%	|I h2|/A	|I h3|/A	|I h4|/A	|I h5|/A	|I h6|/A	|I h7|/A	Re(Y)/Ohm-1	Im(Y)/Ohm-1	|Y|/Ohm-1	Phase(Y)/deg	Re(C)/nF	Im(C)/nF	|C|/nF	Phase(C)/deg	Re(M)	Im(M)	|M|	Phase(M)/deg	Re(Permittivity)	Im(Permittivity)	|Permittivity|	Phase(Permittivity)/deg	Re(Resistivity)/Ohm.cm	Im(Resistivity)/Ohm.cm	|Resistivity|/Ohm.cm	Phase(Resistivity)/deg	Re(Conductivity)/mS/cm	Im(Conductivity)/mS/cm	|Conductivity|/mS/cm	Phase(Conductivity)/deg	Tan(Delta)	Loss Angle(Delta)/deg	dq/mA.h
399996	3.239	1.38496	3.52267	-23.151	203.254	0.445983	-0.00725815	0.287295	0.0444075	1	38	0.00458293	0.00130098	0	5.68285e-07	-1	-1	-1	0	0	0	0	0	0	-1	-1	-1	0	0	0	0	0	0	0.261016	0.111607	0.283876	23.151	44.4075	103.856	112.952	-66.849	0.0000000E+000	0.0000000E+000	0.0000000E+000	66.849	0.0000000E+000	0.0000000E+000	0.0000000E+000	-66.849	0.0000000E+000	0.0000000E+000	0.0000000E+000	-23.151	0.0000000E+000	0.0000000E+000	0.0000000E+000	23.151	2.3387	66.849	5.68285e-07
317705	3.21039	1.11373	3.39809	-19.1324	204.402	0.445988	0.00190635	0.449794	0.0483178	1	38	0.00508907	0.00149763	0	4.58635e-06	-1	-1	-1	0	0	0	0	0	0	-1	-1	-1	0	0	0	0	0	0	0.278028	0.096452	0.294283	19.1324	48.3178	139.278	147.421	-70.8676	0.0000000E+000	0.0000000E+000	0.0000000E+000	70.8676	0.0000000E+000	0.0000000E+000	0.0000000E+000	-70.8676	0.0000000E+000	0.0000000E+000	0.0000000E+000	-19.1324	0.0000000E+000	0.0000000E+000	0.0000000E+000	19.1324	2.88255	70.8676	4.01807e-06
252347	3.18233	0.935469	3.31697	-16.3811	205.549	0.445999	0.00155259	0.674204	0.0536249	1	38	0.00516076	0.00155586	0	1.78688e-06	-1	-1	-1	0	0	0	0	0	0	-1	-1	-1	0	0	0	0	0	0	0.289242	0.0850248	0.30148	16.3811	53.6249	182.424	190.142	-73.6189	0.0000000E+000	0.0000000E+000	0.0000000E+000	73.6189	0.0000000E+000	0.0000000E+000	0.0000000E+000	-73.6189	0.0000000E+000	0.0000000E+000	0.0000000E+000	-16.3811	0.0000000E+000	0.0000000E+000	0.0000000E+000	16.3811	3.40185	73.6189	-2.79947e-06
200434	3.247	0.297454	3.26059	-5.2342	207.133	0.445983	0.00187668	2.66949	0.0222165	1	37	0.00474059	0.00145391	0	3.02925e-06	-1	-1	-1	0	0	0	0	0	0	-1	-1	-1	0	0	0	0	0	0	0.305414	0.0279786	0.306693	5.2342	22.2165	242.514	243.529	-84.7658	0.0000000E+000	0.0000000E+000	0.0000000E+000	84.7658	0.0000000E+000	0.0000000E+000	0.0000000E+000	-84.7658	0.0000000E+000	0.0000000E+000	0.0000000E+000	-5.2342	0.0000000E+000	0.0000000E+000	0.0000000E+000	5.2342	10.916	84.7658	1.24237e-06
159201	3.21648	0.311401	3.23152	-5.52982	208.281	0.446	0.00144861	3.21037	0.0298114	1	37	0.00514256	0.00159138	0	2.03906e-06	-1	-1	-1	0	0	0	0	0	0	-1	-1	-1	0	0	0	0	0	0	0.308012	0.02982	0.309452	5.52982	29.8114	307.924	309.363	-84.4702	0.0000000E+000	0.0000000E+000	0.0000000E+000	84.4702	0.0000000E+000	0.0000000E+000	0.0000000E+000	-84.4702	0.0000000E+000	0.0000000E+000	0.0000000E+000	-5.52982	0.0000000E+000	0.0000000E+000	0.0000000E+000	5.52982	10.329	84.4702	-9.90193e-07
126447	3.21633	0.344412	3.23472	-6.11206	209.429	0.445973	0.00440781	3.65454	0.04143	1	37	0.00520134	0.00160797	0	4.60612e-06	-1	-1	-1	0	0	0	0	0	0	-1	-1	-1	0	0	0	0	0	0	0.307389	0.0329158	0.309146	6.11206	41.43	386.899	389.111	-83.8879	0.0000000E+000	0.0000000E+000	0.0000000E+000	83.8879	0.0000000E+000	0.0000000E+000	0.0000000E+000	-83.8879	0.0000000E+000	0.0000000E+000	0.0000000E+000	-6.11206	0.0000000E+000	0.0000000E+000	0.0000000E+000	6.11206	9.33863	83.8879	2.56706e-06
100431	3.22248	0.37562	3.2443	-6.64852	210.577	0.445985	0.00187667	4.21897	0.0565537	1	37	0.00517473	0.00159502	0	5.40884e-06	0.980296	0.5828	19.4024	2.21282e-05	2.01381e-05	1.41548e-05	2.45706e-05	1.86035e-05	1.43593e-05	0.641418	0.395509	10.8739	3.64282e-06	5.92435e-06	4.55527e-06	3.43993e-06	2.36875e-06	2.76788e-06	0.30616	0.0356867	0.308233	6.64852	56.5537	485.18	488.465	-83.3515	0.0000000E+000	0.0000000E+000	0.0000000E+000	83.3515	0.0000000E+000	0.0000000E+000	0.0000000E+000	-83.3515	0.0000000E+000	0.0000000E+000	0.0000000E+000	-6.64852	0.0000000E+000	0.0000000E+000	0.0000000E+000	6.64852	8.57911	83.3515	8.0272e-07
79767.3	3.25601	0.41925	3.28289	-7.33714	211.725	0.445972	-0.00337171	4.75907	0.0776168	1	37	0.00517463	0.00157624	0	4.68483e-06	0.6884	0.867352	19.3542	1.79777e-05	9.13285e-06	8.0999e-06	1.66852e-05	1.45116e-05	1.44241e-05	0.668705	0.38949	11.073	4.09498e-06	3.36867e-06	4.00813e-06	5.57681e-06	2.93187e-06	3.41544e-06	0.302115	0.038901	0.30461	7.33714	77.6168	602.793	607.769	-82.6629	0.0000000E+000	0.0000000E+000	0.0000000E+000	82.6629	0.0000000E+000	0.0000000E+000	0.0000000E+000	-82.6629	0.0000000E+000	0.0000000E+000	0.0000000E+000	-7.33714	0.0000000E+000	0.0000000E+000	0.0000000E+000	7.33714	7.76627	82.6629	-7.24006e-07
63362.9	3.28493	0.433613	3.31342	-7.51961	212.873	0.445996	0.00310502	5.79272	0.099205	1	37	0.00518556	0.00156502	0	6.20648e-06	1.21673	0.554481	19.4444	2.55053e-05	2.40028e-05	1.80286e-05	3.54276e-05	5.90049e-06	2.63895e-05	0.700655	0.317024	11.2042	6.08705e-06	5.59704e-06	1.33409e-06	3.78549e-06	2.9641e-06	3.34097e-06	0.299207	0.0394956	0.301803	7.51961	99.205	751.548	758.068	-82.4804	0.0000000E+000	0.0000000E+000	0.0000000E+000	82.4804	0.0000000E+000	0.0000000E+000	0.0000000E+000	-82.4804	0.0000000E+000	0.0000000E+000	0.0000000E+000	-7.51961	0.0000000E+000	0.0000000E+000	0.0000000E+000	7.51961	7.57571	82.4804	1.52165e-06
50326.6	3.3414	0.496203	3.37804	-8.44678	214.021	0.44597	0.00107639	6.37328	0.137515	1	37	0.00515284	0.00152539	0	6.01461e-06	0.960801	0.993995	19.6592	1.19973e-05	9.5667e-06	2.63505e-05	9.76612e-06	3.18774e-05	9.59317e-06	0.474923	0.445512	11.5665	3.02484e-06	2.70757e-06	2.93966e-06	2.39158e-06	3.2906e-06	1.61212e-06	0.292818	0.043484	0.296029	8.44678	137.515	926.021	936.176	-81.5532	0.0000000E+000	0.0000000E+000	0.0000000E+000	81.5532	0.0000000E+000	0.0000000E+000	0.0000000E+000	-81.5532	0.0000000E+000	0.0000000E+000	0.0000000E+000	-8.44678	0.0000000E+000	0.0000000E+000	0.0000000E+000	8.44678	6.73394	81.5532	-1.91873e-07
39971.8	3.3962	0.540198	3.43889	-9.03774	215.169	0.445961	-0.0010453	7.37078	0.181879	1	37	0.00515743	0.00149974	0	3.69418e-06	1.00639	0.521748	19.742	1.95918e-05	1.403e-05	2.31579e-05	1.60792e-05	2.59409e-05	2.21644e-05	0.594127	0.378636	11.755	3.34817e-06	4.06113e-06	4.55859e-06	2.57715e-06	3.637e-06	2.16372e-06	0.287181	0.045679	0.290791	9.03774	181.879	1143.46	1157.84	-80.9623	0.0000000E+000	0.0000000E+000	0.0000000E+000	80.9623	0.0000000E+000	0.0000000E+000	0.0000000E+000	-80.9623	0.0000000E+000	0.0000000E+000	0.0000000E+000	-9.03774	0.0000000E+000	0.0000000E+000	0.0000000E+000	9.03774	6.28695	80.9623	-2.32042e-06
31751	3.42108	0.610765	3.47518	-10.1223	216.317	0.44599	-0.00415338	8.20708	0.253503	1	37	0.0051886	0.00149305	0	4.7737e-06	1.128	0.864377	19.4403	2.3751e-05	2.30925e-05	2.34698e-05	2.76468e-05	1.45294e-05	1.98697e-05	0.538364	0.447025	11.8363	2.5335e-06	1.73636e-06	1.06248e-06	5.24698e-06	2.45301e-06	3.31617e-06	0.283276	0.0505732	0.287755	10.1223	253.503	1419.95	1442.4	-79.8777	0.0000000E+000	0.0000000E+000	0.0000000E+000	79.8777	0.0000000E+000	0.0000000E+000	0.0000000E+000	-79.8777	0.0000000E+000	0.0000000E+000	0.0000000E+000	-10.1223	0.0000000E+000	0.0000000E+000	0.0000000E+000	10.1223	5.60131	79.8777	1.07952e-06
25219	3.49033	0.705155	3.56085	-11.4218	217.465	0.44599	0.00267696	8.9497	0.350969	1	37	0.00515045	0.00144641	0	4.53164e-06	1.15225	0.545728	19.4532	3.32176e-05	1.12919e-05	2.10345e-05	2.58564e-05	2.19204e-05	1.46356e-05	0.611903	0.357526	12.2968	2.94908e-06	4.44833e-06	2.37382e-06	2.88056e-06	3.37259e-06	3.04228e-06	0.27527	0.055613	0.280832	11.4218	350.969	1737.21	1772.31	-78.5782	0.0000000E+000	0.0000000E+000	0.0000000E+000	78.5782	0.0000000E+000	0.0000000E+000	0.0000000E+000	-78.5782	0.0000000E+000	0.0000000E+000	0.0000000E+000	-11.4218	0.0000000E+000	0.0000000E+000	0.0000000E+000	11.4218	4.94974	78.5782	-2.42065e-07
20032.3	3.54052	0.785741	3.62666	-12.5127	218.613	0.446003	-0.00770813	10.1114	0.47463	1	37	0.00514002	0.00141729	0	6.76707e-06	0.947302	0.517762	19.6238	1.37981e-05	1.33724e-05	1.82789e-05	1.63689e-05	2.36424e-05	2.63422e-05	0.774297	0.315624	12.5485	5.33081e-06	1.71862e-06	4.02624e-06	3.01964e-06	4.91206e-06	5.21134e-06	0.269186	0.05974	0.275736	12.5127	474.63	2138.66	2190.7	-77.4873	0.0000000E+000	0.0000000E+000	0.0000000E+000	77.4873	0.0000000E+000	0.0000000E+000	0.0000000E+000	-77.4873	0.0000000E+000	0.0000000E+000	0.0000000E+000	-12.5127	0.0000000E+000	0.0000000E+000	0.0000000E+000	12.5127	4.50596	77.4873	2.23543e-06
15912.6	3.57593	0.930597	3.69503	-14.5871	219.762	0.445985	-0.00164085	10.7477	0.681715	1	37	0.00510594	0.00138184	0	4.70651e-06	1.10446	0.367704	20.1561	1.9413e-05	1.32675e-05	2.90349e-05	2.63409e-05	1.41914e-05	2.5899e-05	0.582753	0.523117	12.8941	2.15344e-06	3.32434e-06	4.59662e-06	3.17087e-06	2.52648e-06	2.17547e-06	0.26191	0.0681592	0.270633	14.5871	681.715	2619.57	2706.82	-75.4129	0.0000000E+000	0.0000000E+000	0.0000000E+000	75.4129	0.0000000E+000	0.0000000E+000	0.0000000E+000	-75.4129	0.0000000E+000	0.0000000E+000	0.0000000E+000	-14.5871	0.0000000E+000	0.0000000E+000	0.0000000E+000	14.5871	3.84262	75.4129	-2.06055e-06
12637.3	3.62121	1.09885	3.78426	-16.8804	220.91	0.445962	-0.00599589	11.4611	0.966367	1	37	0.00515261	0.00136159	0	5.37634e-06	1.19	0.623303	19.8317	3.44169e-05	2.39362e-05	2.28624e-05	1.7212e-05	1.53768e-05	2.52704e-05	0.711305	0.508104	12.9676	4.01782e-06	4.95449e-06	1.94079e-06	2.50012e-06	3.49031e-06	4.58938e-06	0.252866	0.0767321	0.264252	16.8804	966.366	3184.61	3328	-73.1196	0.0000000E+000	0.0000000E+000	0.0000000E+000	73.1196	0.0000000E+000	0.0000000E+000	0.0000000E+000	-73.1196	0.0000000E+000	0.0000000E+000	0.0000000E+000	-16.8804	0.0000000E+000	0.0000000E+000	0.0000000E+000	16.8804	3.29544	73.1196	6.69832e-07
10039.3	3.67691	1.27121	3.89045	-19.0718	222.058	0.445993	-0.00154779	12.4709	1.33148	1	37	0.00497	0.00127749	0	6.54778e-06	1.08386	0.509062	20.2166	2.71317e-05	1.42037e-05	2.46275e-05	1.48157e-05	2.19679e-05	1.72963e-05	0.706314	0.423837	13.8384	1.31521e-06	2.46938e-06	3.43761e-06	4.51147e-06	3.87643e-06	4.01336e-06	0.242931	0.0839882	0.25704	19.0718	1331.48	3851.21	4074.88	-70.9282	0.0000000E+000	0.0000000E+000	0.0000000E+000	70.9282	0.0000000E+000	0.0000000E+000	0.0000000E+000	-70.9282	0.0000000E+000	0.0000000E+000	0.0000000E+000	-19.0718	0.0000000E+000	0.0000000E+000	0.0000000E+000	19.0718	2.89244	70.9282	1.17144e-06
7967.67	3.74767	1.53548	4.05003	-22.2797	223.235	0.445866	-0.00294364	13.009	1.86989	1	37	0.00512663	0.00126583	0	4.83966e-06	1.06484	0.442802	20.2252	1.85188e-05	9.02179e-06	1.65929e-05	1.81628e-05	2.77473e-05	3.04465e-05	0.810732	0.461502	14.0815	4.74523e-06	4.08165e-06	3.92347e-06	4.03416e-06	3.58406e-06	3.89961e-06	0.228479	0.0936112	0.246912	22.2797	1869.89	4563.88	4932.09	-67.7203	0.0000000E+000	0.0000000E+000	0.0000000E+000	67.7203	0.0000000E+000	0.0000000E+000	0.0000000E+000	-67.7203	0.0000000E+000	0.0000000E+000	0.0000000E+000	-22.2797	0.0000000E+000	0.0000000E+000	0.0000000E+000	22.2797	2.44072	67.7203	-1.70812e-06
6332.63	3.84236	1.86521	4.27115	-25.8934	224.505	0.445853	8.72335e-05	13.4744	2.56965	1	38	0.00470062	0.00110055	0	5.31475e-06	1.30359	0.819664	21.3233	7.75891e-06	2.37241e-05	1.9155e-05	1.90614e-05	2.91905e-05	2.95057e-05	0.202766	0.139813	2.67476	6.10823e-07	1.00094e-06	5.11238e-07	7.92341e-07	1.12502e-06	1.05354e-06	0.210624	0.102244	0.234129	25.8934	2569.65	5293.52	5884.25	-64.1066	0.0000000E+000	0.0000000E+000	0.0000000E+000	64.1066	0.0000000E+000	0.0000000E+000	0.0000000E+000	-64.1066	0.0000000E+000	0.0000000E+000	0.0000000E+000	-25.8934	0.0000000E+000	0.0000000E+000	0.0000000E+000	25.8934	2.06002	64.1066	4.75095e-07
5028.39	3.93578	2.24931	4.53319	-29.7481	225.626	0.445885	0.00098841	14.0715	3.46444	1	38	0.00542413	0.00119654	0	4.65134e-06	0.964926	0.44937	18.3688	3.16958e-05	1.83027e-05	1.58124e-05	1.76165e-05	1.33961e-05	1.39848e-05	0.162109	0.0853859	2.48987	1.48909e-06	3.84543e-07	4.77553e-07	3.55713e-07	4.20979e-07	5.94917e-07	0.191524	0.109457	0.220595	29.7481	3464.44	6061.99	6982.12	-60.2519	0.0000000E+000	0.0000000E+000	0.0000000E+000	60.2519	0.0000000E+000	0.0000000E+000	0.0000000E+000	-60.2519	0.0000000E+000	0.0000000E+000	0.0000000E+000	-29.7481	0.0000000E+000	0.0000000E+000	0.0000000E+000	29.7481	1.74977	60.2519	-6.63413e-07
3993.72	4.04961	2.73362	4.8859	-34.0206	226.953	0.445827	-0.000380119	14.5782	4.56343	1	38	0.00506979	0.00103764	0	6.91612e-06	0.827129	0.599382	19.4502	1.5607e-05	9.3754e-06	1.09648e-05	1.78409e-05	1.69026e-05	2.20336e-05	0.210411	0.10815	2.83995	1.32937e-06	6.35066e-07	3.58631e-07	1.13744e-06	6.19198e-07	7.82459e-07	0.169638	0.114512	0.204671	34.0206	4563.43	6760.31	8156.39	-55.9794	0.0000000E+000	0.0000000E+000	0.0000000E+000	55.9794	0.0000000E+000	0.0000000E+000	0.0000000E+000	-55.9794	0.0000000E+000	0.0000000E+000	0.0000000E+000	-34.0206	0.0000000E+000	0.0000000E+000	0.0000000E+000	34.0206	1.48141	55.9794	2.26478e-06
3171.96	4.1786	3.33239	5.34467	-38.572	228.059	0.445876	-0.000439699	15.057	5.85337	1	38	0.00522565	0.000977732	0	6.25518e-06	1.16796	0.746906	18.3855	1.47023e-05	3.1198e-05	3.07729e-05	1.42421e-05	1.65824e-05	2.82106e-05	0.240103	0.129721	2.97679	1.69275e-06	6.34625e-07	4.07717e-07	7.66894e-07	6.40568e-07	8.94923e-07	0.146281	0.116658	0.187102	38.572	5853.37	7339.76	9387.97	-51.428	0.0000000E+000	0.0000000E+000	0.0000000E+000	51.428	0.0000000E+000	0.0000000E+000	0.0000000E+000	-51.428	0.0000000E+000	0.0000000E+000	0.0000000E+000	-38.572	0.0000000E+000	0.0000000E+000	0.0000000E+000	38.572	1.25394	51.428	-6.60937e-07
2519.19	4.31978	4.0446	5.91771	-43.1157	229.164	0.445871	-0.00123288	15.6201	7.29671	1	38	0.00516932	0.000873533	0	5.2581e-06	1.0941	0.350641	19.285	2.21805e-05	2.22494e-05	2.69585e-05	1.2493e-05	2.75266e-05	1.38795e-05	0.275166	0.125384	3.33923	1.73647e-06	5.77436e-07	7.40086e-07	1.00131e-06	5.29236e-07	4.85612e-07	0.123354	0.115496	0.168984	43.1157	7296.71	7793.15	10675.9	-46.8843	0.0000000E+000	0.0000000E+000	0.0000000E+000	46.8843	0.0000000E+000	0.0000000E+000	0.0000000E+000	-46.8843	0.0000000E+000	0.0000000E+000	0.0000000E+000	-43.1157	0.0000000E+000	0.0000000E+000	0.0000000E+000	43.1157	1.06804	46.8843	-9.97082e-07
2001.92	4.58	4.95573	6.74801	-47.2564	230.268	0.445894	-0.0011398	16.0423	8.65226	1	38	0.00509749	0.000755406	0	4.79391e-06	0.896057	0.692651	19.0064	1.52348e-05	1.97834e-05	1.37992e-05	2.12793e-05	1.84468e-05	1.36158e-05	0.354001	0.17574	3.85951	1.96625e-06	1.15198e-06	5.46157e-07	8.34169e-07	5.03767e-07	2.94503e-07	0.10058	0.108832	0.148192	47.2564	8652.26	7996.27	11781.4	-42.7436	0.0000000E+000	0.0000000E+000	0.0000000E+000	42.7436	0.0000000E+000	0.0000000E+000	0.0000000E+000	-42.7436	0.0000000E+000	0.0000000E+000	0.0000000E+000	-47.2564	0.0000000E+000	0.0000000E+000	0.0000000E+000	47.2564	0.924182	42.7436	-4.64188e-07
1589.49	4.89367	6.09237	7.81441	-51.227	231.374	0.445864	-0.000979668	16.4352	9.98977	1	38	0.00499694	0.000639451	0	4.69851e-06	1.05373	0.340441	19.5049	1.68133e-05	2.02992e-05	2.22285e-05	1.70953e-05	2.24958e-05	1.3545e-05	0.437475	0.14432	4.57201	2.00349e-06	1.27846e-06	5.2741e-07	7.19228e-07	7.50304e-07	6.42997e-07	0.0801387	0.0997686	0.127969	51.227	9989.77	8024.24	12813.4	-38.773	0.0000000E+000	0.0000000E+000	0.0000000E+000	38.773	0.0000000E+000	0.0000000E+000	0.0000000E+000	-38.773	0.0000000E+000	0.0000000E+000	0.0000000E+000	-51.227	0.0000000E+000	0.0000000E+000	0.0000000E+000	51.227	0.803246	38.773	-9.53963e-08
1262.98	5.30637	7.43046	9.13068	-54.4679	232.48	0.445886	-0.000657557	16.9593	11.2314	1	38	0.00488234	0.000534717	0	4.95137e-06	1.03716	0.637105	19.8742	2.16236e-05	1.32537e-05	1.93284e-05	2.23146e-05	2.03485e-05	1.59627e-05	0.487694	0.10386	5.45762	1.90684e-06	1.10683e-06	8.08118e-07	5.99998e-07	4.34934e-07	6.25808e-07	0.063649	0.089127	0.109521	54.4679	11231.4	8020.76	13801.3	-35.5321	0.0000000E+000	0.0000000E+000	0.0000000E+000	35.5321	0.0000000E+000	0.0000000E+000	0.0000000E+000	-35.5321	0.0000000E+000	0.0000000E+000	0.0000000E+000	-54.4679	0.0000000E+000	0.0000000E+000	0.0000000E+000	54.4679	0.714138	35.5321	2.52858e-07
1002.75	5.84403	9.07154	10.791	-57.2097	233.588	0.445873	-0.0017412	17.4963	12.3647	1	38	0.00480158	0.000444962	0	4.59514e-06	0.894218	0.632839	20.5556	1.24974e-05	1.24931e-05	2.19527e-05	1.23505e-05	1.99537e-05	1.64662e-05	0.591018	0.218166	6.6346	1.55935e-06	1.25687e-06	6.59892e-07	8.31716e-07	5.53521e-07	8.73891e-07	0.0501868	0.0779037	0.0926699	57.2097	12364.7	7965.57	14708.4	-32.7903	0.0000000E+000	0.0000000E+000	0.0000000E+000	32.7903	0.0000000E+000	0.0000000E+000	0.0000000E+000	-32.7903	0.0000000E+000	0.0000000E+000	0.0000000E+000	-57.2097	0.0000000E+000	0.0000000E+000	0.0000000E+000	57.2097	0.644216	32.7903	-3.5623e-07
796.787	6.54229	11.0421	12.8347	-59.3538	234.693	0.445865	-0.000977816	18.0895	13.3893	1	38	0.00473022	0.000368549	0	4.5165e-06	1.51046	0.544333	21.0067	2.74867e-05	2.14254e-05	1.97399e-05	3.54662e-05	2.48988e-05	3.46454e-05	0.626315	0.270466	8.01414	1.58598e-06	1.06131e-06	7.87714e-07	5.45826e-07	4.79492e-07	4.99248e-07	0.0397154	0.0670317	0.0779138	59.3538	13389.3	7932.98	15563	-30.6462	0.0000000E+000	0.0000000E+000	0.0000000E+000	30.6462	0.0000000E+000	0.0000000E+000	0.0000000E+000	-30.6462	0.0000000E+000	0.0000000E+000	0.0000000E+000	-59.3538	0.0000000E+000	0.0000000E+000	0.0000000E+000	59.3538	0.592487	30.6462	-7.86433e-08
632.773	7.65415	13.3773	15.4122	-60.2228	235.801	0.445907	0.00176667	18.8021	14.1647	1	38	0.00469533	0.000304649	0	5.27707e-06	1.09946	0.421065	21.3071	2.26198e-05	1.93424e-05	1.52123e-05	1.78868e-05	2.04201e-05	1.71435e-05	0.901365	0.163623	9.70086	1.22804e-06	1.15668e-06	7.11781e-07	1.51776e-06	6.90059e-07	7.09596e-07	0.032223	0.0563165	0.0648835	60.2228	14164.7	8104.72	16319.5	-29.7772	0.0000000E+000	0.0000000E+000	0.0000000E+000	29.7772	0.0000000E+000	0.0000000E+000	0.0000000E+000	-29.7772	0.0000000E+000	0.0000000E+000	0.0000000E+000	-60.2228	0.0000000E+000	0.0000000E+000	0.0000000E+000	60.2228	0.572176	29.7772	7.60577e-07
502.588	9.00233	16.0329	18.3874	-60.6861	236.91	0.445884	0.00092694	19.7513	15.0169	1	38	0.00464392	0.00025256	0	5.68549e-06	1.25987	0.581717	20.9272	2.85149e-05	2.6511e-05	2.64186e-05	1.04186e-05	1.39786e-05	2.03346e-05	0.880006	0.401201	11.6559	8.38545e-07	8.98581e-07	9.26312e-07	1.05297e-06	5.80319e-07	9.05191e-07	0.0266266	0.0474212	0.0543852	60.6861	15016.9	8431.87	17222.2	-29.3139	0.0000000E+000	0.0000000E+000	0.0000000E+000	29.3139	0.0000000E+000	0.0000000E+000	0.0000000E+000	-29.3139	0.0000000E+000	0.0000000E+000	0.0000000E+000	-60.6861	0.0000000E+000	0.0000000E+000	0.0000000E+000	60.6861	0.561492	29.3139	4.08412e-07
399.106	10.8597	19.2412	22.0942	-60.5597	238.017	0.445912	0.00185046	20.7253	15.7183	1	38	0.00461941	0.000209078	0	6.10298e-06	1.32817	0.949493	21.411	3.92454e-05	1.31908e-05	1.70449e-05	2.68717e-05	1.60867e-05	2.17792e-05	1.18939	0.579595	14.2102	1.91528e-06	5.48029e-07	5.48856e-07	7.48063e-07	6.88327e-07	5.72614e-07	0.0222464	0.0394161	0.0452607	60.5597	15718.3	8871.39	18049	-29.4403	0.0000000E+000	0.0000000E+000	0.0000000E+000	29.4403	0.0000000E+000	0.0000000E+000	0.0000000E+000	-29.4403	0.0000000E+000	0.0000000E+000	0.0000000E+000	-60.5597	0.0000000E+000	0.0000000E+000	0.0000000E+000	60.5597	0.564399	29.4403	4.1749e-07
316.927	13.2967	22.8388	26.4275	-59.7922	239.122	0.445904	0.00179832	21.9881	16.4218	1	38	0.00462701	0.000175083	0	6.66203e-06	1.12242	0.614322	21.394	2.14326e-05	1.53251e-05	1.60058e-05	1.67884e-05	3.09517e-05	7.75293e-06	0.964808	0.446894	16.9239	1.1787e-06	3.13225e-07	5.24662e-07	5.13262e-07	5.17869e-07	6.60585e-07	0.0190384	0.032701	0.0378393	59.7922	16421.8	9560.74	19002.2	-30.2078	0.0000000E+000	0.0000000E+000	0.0000000E+000	30.2078	0.0000000E+000	0.0000000E+000	0.0000000E+000	-30.2078	0.0000000E+000	0.0000000E+000	0.0000000E+000	-59.7922	0.0000000E+000	0.0000000E+000	0.0000000E+000	59.7922	0.582197	30.2078	5.59049e-07
251.853	16.5884	26.852	31.5627	-58.2935	240.474	0.445886	0.000938206	23.534	17.0334	1	39	0.00473415	0.000149992	0	7.32079e-06	1.12167	0.813769	22.025	1.39231e-05	2.2134e-05	1.65107e-05	2.84328e-05	1.20955e-05	2.17842e-05	0.742886	0.34163	8.42141	5.87999e-07	2.57034e-07	1.88834e-07	7.18466e-07	4.0872e-07	2.32449e-07	0.0166516	0.0269543	0.031683	58.2935	17033.4	10522.7	20021.6	-31.7065	0.0000000E+000	0.0000000E+000	0.0000000E+000	31.7065	0.0000000E+000	0.0000000E+000	0.0000000E+000	-31.7065	0.0000000E+000	0.0000000E+000	0.0000000E+000	-58.2935	0.0000000E+000	0.0000000E+000	0.0000000E+000	58.2935	0.61777	31.7065	6.58761e-07
199.936	21.0701	30.7672	37.2903	-55.5957	241.582	0.445928	0.00111601	25.8727	17.6126	1	39	0.00468491	0.000125633	0	7.52498e-06	1.33473	1.02543	21.8749	2.30338e-05	2.81096e-05	2.26195e-05	2.35785e-05	2.03718e-05	1.79732e-05	0.87852	0.349056	9.87844	6.66061e-07	4.70672e-07	3.14333e-07	5.16366e-07	2.67405e-07	2.00731e-07	0.0151522	0.0221256	0.0268166	55.5957	17612.6	12061.6	21346.8	-34.4043	0.0000000E+000	0.0000000E+000	0.0000000E+000	34.4043	0.0000000E+000	0.0000000E+000	0.0000000E+000	-34.4043	0.0000000E+000	0.0000000E+000	0.0000000E+000	-55.5957	0.0000000E+000	0.0000000E+000	0.0000000E+000	55.5957	0.684825	34.4043	2.04196e-07
158.831	26.1291	34.929	43.6208	-53.2012	242.691	0.445896	0.00126921	28.6879	18.3944	1	39	0.00466078	0.000106848	0	8.04542e-06	1.30161	0.705584	22.4564	2.30785e-05	2.6109e-05	1.425e-05	1.54188e-05	2.80835e-05	2.26332e-05	0.931464	0.27171	12.0449	5.57381e-07	3.63378e-07	1.44154e-07	5.1452e-07	3.02667e-07	2.5294e-07	0.0137322	0.0183569	0.0229249	53.2012	18394.4	13760.2	22971.7	-36.7988	0.0000000E+000	0.0000000E+000	0.0000000E+000	36.7988	0.0000000E+000	0.0000000E+000	0.0000000E+000	-36.7988	0.0000000E+000	0.0000000E+000	0.0000000E+000	-53.2012	0.0000000E+000	0.0000000E+000	0.0000000E+000	53.2012	0.748064	36.7988	5.20434e-07
126.171	32.2754	38.5281	50.2605	-50.0467	243.791	0.445898	0.00112924	32.7403	19.2391	1	39	0.00462614	9.20433e-05	0	8.28885e-06	1.0464	0.792006	22.3894	2.03321e-05	2.09813e-05	2.18595e-05	1.86568e-05	1.51692e-05	1.48164e-05	0.771005	0.343758	13.8331	4.41115e-07	3.3483e-07	2.33743e-07	2.35603e-07	1.38329e-07	1.4985e-07	0.0127767	0.0152519	0.0198964	50.0467	19239.1	16116.8	25097.7	-39.9533	0.0000000E+000	0.0000000E+000	0.0000000E+000	39.9533	0.0000000E+000	0.0000000E+000	0.0000000E+000	-39.9533	0.0000000E+000	0.0000000E+000	0.0000000E+000	-50.0467	0.0000000E+000	0.0000000E+000	0.0000000E+000	50.0467	0.837712	39.9533	2.4343e-07
100.224	39.4385	41.8193	57.4826	-46.6782	244.896	0.445892	0.00112328	37.9726	20.0979	1	39	0.00462756	8.05038e-05	0	8.56506e-06	0.979712	0.580938	22.2215	1.76369e-05	1.38652e-05	1.73502e-05	2.39932e-05	1.38837e-05	1.20373e-05	0.716612	0.403829	15.9606	1.67034e-07	1.88177e-07	2.01666e-07	2.9564e-07	1.91579e-07	2.27911e-07	0.0119357	0.0126562	0.0173966	46.6782	20097.9	18953.7	27625.5	-43.3218	0.0000000E+000	0.0000000E+000	0.0000000E+000	43.3218	0.0000000E+000	0.0000000E+000	0.0000000E+000	-43.3218	0.0000000E+000	0.0000000E+000	0.0000000E+000	-46.6782	0.0000000E+000	0.0000000E+000	0.0000000E+000	46.6782	0.94307	43.3218	2.76217e-07
79.6177	47.425	44.4225	64.9807	-43.1276	245.979	0.445864	0.000978834	44.9995	21.0303	1	39	0.00462424	7.11633e-05	0	8.82066e-06	1.36256	0.694522	22.1295	1.65966e-05	2.15126e-05	3.10237e-05	3.15111e-05	1.80548e-05	2.0208e-05	1.11517	0.358008	17.8311	2.53158e-07	2.12848e-07	3.67938e-07	4.83019e-07	1.75735e-07	2.371e-07	0.0112315	0.0105204	0.0153892	43.1276	21030.3	22451.7	30762.8	-46.8724	0.0000000E+000	0.0000000E+000	0.0000000E+000	46.8724	0.0000000E+000	0.0000000E+000	0.0000000E+000	-46.8724	0.0000000E+000	0.0000000E+000	0.0000000E+000	-43.1276	0.0000000E+000	0.0000000E+000	0.0000000E+000	43.1276	1.06759	46.8724	2.55595e-07
63.2394	55.1171	45.6066	71.5392	-39.606	247.06	0.445899	0.00120845	55.1829	22.427	1	39	0.00460118	6.43169e-05	0	9.15994e-06	1.18279	0.688492	23.0278	2.70538e-05	2.70719e-05	1.89652e-05	1.90572e-05	1.23073e-05	1.54471e-05	1.12047	0.605189	20.4095	4.30741e-07	3.5281e-07	1.76243e-07	1.77119e-07	2.01501e-07	2.5254e-07	0.0107696	0.00891126	0.0139783	39.606	22427	27103.8	35179.4	-50.394	0.0000000E+000	0.0000000E+000	0.0000000E+000	50.394	0.0000000E+000	0.0000000E+000	0.0000000E+000	-50.394	0.0000000E+000	0.0000000E+000	0.0000000E+000	-39.606	0.0000000E+000	0.0000000E+000	0.0000000E+000	39.606	1.20853	50.394	3.39286e-07
50.2089	63.5577	46.4228	78.7061	-36.1446	248.125	0.445921	0.00104947	68.2823	23.7549	1	39	0.00460801	5.85471e-05	0	9.56434e-06	1.03765	0.590673	23.0417	1.69133e-05	2.16909e-05	2.23726e-05	1.63565e-05	1.28472e-05	1.54073e-05	1.30593	0.805694	22.0027	4.20945e-07	3.7678e-07	2.59416e-07	2.60882e-07	2.62593e-07	1.11601e-07	0.0102601	0.00749401	0.0127055	36.1446	23754.9	32523	40274.6	-53.8554	0.0000000E+000	0.0000000E+000	0.0000000E+000	53.8554	0.0000000E+000	0.0000000E+000	0.0000000E+000	-53.8554	0.0000000E+000	0.0000000E+000	0.0000000E+000	-36.1446	0.0000000E+000	0.0000000E+000	0.0000000E+000	36.1446	1.3691	53.8554	4.04395e-07
39.8851	71.229	46.2715	84.939	-33.0084	249.194	0.44588	0.0014787	86.2373	25.5923	1	39	0.00459661	5.41167e-05	0	9.86456e-06	1.3489	0.677371	22.8803	2.44708e-05	1.8652e-05	1.92238e-05	3.12843e-05	2.34293e-05	1.9943e-05	1.33395	0.70771	23.1987	4.66224e-07	2.90541e-07	9.35321e-08	3.27149e-07	1.40867e-07	2.25148e-07	0.00987286	0.00641357	0.0117732	33.0084	25592.3	39396	46978.8	-56.9916	0.0000000E+000	0.0000000E+000	0.0000000E+000	56.9916	0.0000000E+000	0.0000000E+000	0.0000000E+000	-56.9916	0.0000000E+000	0.0000000E+000	0.0000000E+000	-33.0084	0.0000000E+000	0.0000000E+000	0.0000000E+000	33.0084	1.53937	56.9916	3.0022e-07
31.6723	79.5559	45.7122	91.7538	-29.8813	250.236	0.445917	0.000976597	109.928	27.2851	1	39	0.00460776	5.02187e-05	0	1.01551e-05	1.05214	0.574993	23.5045	1.9384e-05	1.54245e-05	1.19955e-05	1.41081e-05	1.66472e-05	2.91714e-05	1.43677	0.766571	25.7265	3.12933e-07	3.2059e-07	1.59181e-07	2.82429e-07	2.48851e-07	3.27338e-07	0.00944985	0.00542981	0.0108987	29.8813	27285.1	47486	54766.8	-60.1187	0.0000000E+000	0.0000000E+000	0.0000000E+000	60.1187	0.0000000E+000	0.0000000E+000	0.0000000E+000	-60.1187	0.0000000E+000	0.0000000E+000	0.0000000E+000	-29.8813	0.0000000E+000	0.0000000E+000	0.0000000E+000	29.8813	1.74036	60.1187	2.90581e-07
25.1691	86.8908	45.1995	97.9439	-27.4829	251.302	0.445895	0.00123455	139.9	29.7942	1	39	0.00461269	4.70952e-05	0	1.03857e-05	1.28421	0.593595	22.2003	2.64503e-05	2.12819e-05	2.38571e-05	2.33868e-05	2.22596e-05	1.64511e-05	1.35028	0.921996	26.8913	2.43034e-07	1.72481e-07	2.07272e-07	2.97973e-07	2.58953e-07	1.68172e-07	0.00905772	0.00471172	0.0102099	27.4829	29794.2	57275.8	64561.7	-62.5171	0.0000000E+000	0.0000000E+000	0.0000000E+000	62.5171	0.0000000E+000	0.0000000E+000	0.0000000E+000	-62.5171	0.0000000E+000	0.0000000E+000	0.0000000E+000	-27.4829	0.0000000E+000	0.0000000E+000	0.0000000E+000	27.4829	1.92238	62.5171	2.30571e-07
19.9808	93.3034	43.8605	103.098	-25.1775	252.37	0.445892	0.00114807	181.607	32.8683	1	39	0.00460361	4.46526e-05	0	1.08045e-05	1.08324	0.874487	22.3334	1.03309e-05	1.1212e-05	2.6268e-05	1.62313e-05	2.12054e-05	1.52605e-05	1.57572	1.11909	28.8365	1.8736e-07	1.99106e-07	3.92055e-07	2.36414e-07	2.6046e-07	1.88599e-07	0.00877797	0.00412639	0.00969948	25.1775	32868.3	69919.9	77260.1	-64.8225	0.0000000E+000	0.0000000E+000	0.0000000E+000	64.8225	0.0000000E+000	0.0000000E+000	0.0000000E+000	-64.8225	0.0000000E+000	0.0000000E+000	0.0000000E+000	-25.1775	0.0000000E+000	0.0000000E+000	0.0000000E+000	25.1775	2.12727	64.8225	4.18827e-07
15.879	98.7296	44.4392	108.27	-24.233	253.409	0.445884	0.00129847	225.543	37.9967	1	39	0.00459482	4.24386e-05	0	1.10825e-05	1.18481	0.394759	22.6048	2.14964e-05	1.2057e-05	2.2203e-05	2.48642e-05	2.28501e-05	2.12091e-05	1.57349	0.681362	30.2245	2.95341e-07	2.2512e-07	2.10611e-07	3.03282e-07	2.41682e-07	2.70121e-07	0.00842232	0.00379097	0.00923617	24.233	37996.7	84416.5	92573.7	-65.767	0.0000000E+000	0.0000000E+000	0.0000000E+000	65.767	0.0000000E+000	0.0000000E+000	0.0000000E+000	-65.767	0.0000000E+000	0.0000000E+000	0.0000000E+000	-24.233	0.0000000E+000	0.0000000E+000	0.0000000E+000	24.233	2.22168	65.767	2.7799e-07
12.6144	104.908	43.4376	113.546	-22.4921	254.579	0.445913	0.00115114	290.462	42.509	1	39	0.00459452	4.04642e-05	0	1.13816e-05	0.929958	0.662374	16.3864	1.69322e-05	1.1695e-05	1.83864e-05	2.04046e-05	1.64645e-05	1.47875e-05	1.50081	1.11308	22.6542	2.51952e-07	1.87752e-07	2.54528e-07	2.49053e-07	2.23362e-07	2.24571e-07	0.00813711	0.00336919	0.00880704	22.4921	42509	102666	111118	-67.5079	0.0000000E+000	0.0000000E+000	0.0000000E+000	67.5079	0.0000000E+000	0.0000000E+000	0.0000000E+000	-67.5079	0.0000000E+000	0.0000000E+000	0.0000000E+000	-22.4921	0.0000000E+000	0.0000000E+000	0.0000000E+000	22.4921	2.41515	67.5079	2.99073e-07
10.016	110.639	42.5322	118.533	-21.0278	255.638	0.445894	0.00120491	373.599	48.102	1	39	0.00459155	3.87365e-05	0	1.20306e-05	1.09273	0.523959	23.1516	1.83688e-05	1.6289e-05	1.20433e-05	1.73924e-05	2.24586e-05	2.59299e-05	1.66149	0.608053	33.4172	3.91421e-07	1.35031e-07	2.04738e-07	2.91775e-07	1.2455e-07	2.10533e-07	0.00787465	0.00302718	0.00843647	21.0278	48102	125128	134056	-68.9722	0.0000000E+000	0.0000000E+000	0.0000000E+000	68.9722	0.0000000E+000	0.0000000E+000	0.0000000E+000	-68.9722	0.0000000E+000	0.0000000E+000	0.0000000E+000	-21.0278	0.0000000E+000	0.0000000E+000	0.0000000E+000	21.0278	2.60131	68.9722	6.48994e-07
7.95573	116.536	43.3733	124.346	-20.4147	257.148	0.445878	0.00125763	461.23	56.1179	1	40	0.00459639	3.69646e-05	0	1.2554e-05	1.75705	1.20238	29.3845	2.46955e-05	2.46783e-05	2.23415e-05	2.80765e-05	4.75651e-05	3.27396e-05	0.442659	0.216011	4.89025	1.01421e-07	6.54648e-08	4.67953e-08	6.56638e-08	4.70654e-08	4.2438e-08	0.007537	0.00280518	0.0080421	20.4147	56117.9	150778	160883	-69.5853	0.0000000E+000	0.0000000E+000	0.0000000E+000	69.5853	0.0000000E+000	0.0000000E+000	0.0000000E+000	-69.5853	0.0000000E+000	0.0000000E+000	0.0000000E+000	-20.4147	0.0000000E+000	0.0000000E+000	0.0000000E+000	20.4147	2.68681	69.5853	5.23448e-07
6.31569	122.775	44.4029	130.558	-19.8831	258.531	0.445901	0.00124678	567.529	65.6458	1	40	0.00461828	3.53735e-05	0	1.27805e-05	1.24739	0.803398	28.9143	1.5971e-05	2.09243e-05	2.05712e-05	2.25529e-05	3.69552e-05	1.29398e-05	0.403462	0.19672	4.99337	1.0584e-07	4.1903e-08	2.709e-08	5.33805e-08	3.54944e-08	3.32866e-08	0.00720286	0.002605	0.00765946	19.8831	65645.8	181512	193018	-70.1169	0.0000000E+000	0.0000000E+000	0.0000000E+000	70.1169	0.0000000E+000	0.0000000E+000	0.0000000E+000	-70.1169	0.0000000E+000	0.0000000E+000	0.0000000E+000	-19.8831	0.0000000E+000	0.0000000E+000	0.0000000E+000	19.8831	2.76502	70.1169	2.26453e-07
5.01766	128.449	44.8516	136.055	-19.248	260.147	0.445883	0.00127119	707.198	76.8543	1	40	0.00460811	3.38695e-05	0	1.34777e-05	1.40023	0.627781	23.9367	3.12197e-05	1.03007e-05	2.28105e-05	2.15151e-05	2.07747e-05	3.64801e-05	0.444701	0.224365	4.29421	1.12871e-07	4.17167e-08	2.87625e-08	5.05879e-08	3.08153e-08	5.6159e-08	0.00693912	0.00242298	0.00734998	19.248	76854.3	220102	233134	-70.752	0.0000000E+000	0.0000000E+000	0.0000000E+000	70.752	0.0000000E+000	0.0000000E+000	0.0000000E+000	-70.752	0.0000000E+000	0.0000000E+000	0.0000000E+000	-19.248	0.0000000E+000	0.0000000E+000	0.0000000E+000	19.248	2.86388	70.752	6.97211e-07
3.98597	133.717	46.7288	141.647	-19.2625	262.068	0.445887	0.00129078	854.478	92.9945	1	40	0.00459132	3.24139e-05	0	1.35564e-05	1.45509	0.678042	21.5234	2.209e-05	2.08412e-05	1.69969e-05	2.5208e-05	2.79767e-05	3.34365e-05	0.408163	0.26378	3.99446	7.70156e-08	5.47287e-08	3.49633e-08	4.7077e-08	2.30685e-08	3.68115e-08	0.00666458	0.00232901	0.00705981	19.2625	92994.5	266109	281890	-70.7375	0.0000000E+000	0.0000000E+000	0.0000000E+000	70.7375	0.0000000E+000	0.0000000E+000	0.0000000E+000	-70.7375	0.0000000E+000	0.0000000E+000	0.0000000E+000	-19.2625	0.0000000E+000	0.0000000E+000	0.0000000E+000	19.2625	2.86155	70.7375	7.87252e-08
3.16616	140.117	49.1215	148.478	-19.3193	264.375	0.445892	0.0013512	1023.33	112.004	1	40	0.00459952	3.09777e-05	0	1.4995e-05	1.04643	0.695868	18.9561	1.42019e-05	1.22065e-05	1.42648e-05	1.453e-05	2.71649e-05	2.05648e-05	0.386081	0.273067	3.74867	9.56502e-08	2.73299e-08	2.29757e-08	3.63796e-08	3.52056e-08	2.27383e-08	0.00635574	0.00222816	0.00673499	19.3193	112004	319487	338551	-70.6807	0.0000000E+000	0.0000000E+000	0.0000000E+000	70.6807	0.0000000E+000	0.0000000E+000	0.0000000E+000	-70.6807	0.0000000E+000	0.0000000E+000	0.0000000E+000	-19.3193	0.0000000E+000	0.0000000E+000	0.0000000E+000	19.3193	2.85247	70.6807	1.43852e-06
2.51368	146.904	51.8463	155.784	-19.4393	267.175	0.445887	0.00142456	1221.22	135.264	1	40	0.00459995	2.95277e-05	0	1.6172e-05	0.760768	0.69646	15.7252	1.9075e-05	1.0133e-05	1.84704e-05	9.22602e-06	1.17954e-05	9.89993e-06	0.340254	0.270475	3.28309	7.86186e-08	3.29624e-08	2.19838e-08	2.93372e-08	2.044e-08	1.2585e-08	0.00605321	0.00213634	0.00641913	19.4393	135264	383262	406431	-70.5607	0.0000000E+000	0.0000000E+000	0.0000000E+000	70.5607	0.0000000E+000	0.0000000E+000	0.0000000E+000	-70.5607	0.0000000E+000	0.0000000E+000	0.0000000E+000	-19.4393	0.0000000E+000	0.0000000E+000	0.0000000E+000	19.4393	2.83345	70.5607	1.17708e-06
1.99783	154.374	55.3609	164.001	-19.7286	270.597	0.445894	0.00146138	1438.99	163.973	1	40	0.00459932	2.80445e-05	0	1.6972e-05	0.68323	0.357023	13.7644	1.31577e-05	9.06584e-06	7.43545e-06	1.59756e-05	1.44994e-05	9.01957e-06	0.409982	0.29097	3.06315	9.03032e-08	3.20433e-08	1.779e-08	4.33516e-08	2.58449e-08	1.76175e-08	0.00573962	0.00205831	0.00609753	19.7286	163973	457241	485753	-70.2714	0.0000000E+000	0.0000000E+000	0.0000000E+000	70.2714	0.0000000E+000	0.0000000E+000	0.0000000E+000	-70.2714	0.0000000E+000	0.0000000E+000	0.0000000E+000	-19.7286	0.0000000E+000	0.0000000E+000	0.0000000E+000	19.7286	2.78851	70.2714	7.99979e-07
1.5871	162.956	59.7929	173.58	-20.1494	274.807	0.445905	0.00148226	1677.13	199.007	1	40	0.00460534	2.65316e-05	0	1.82266e-05	0.795014	0.325221	12.4567	1.44122e-05	1.40823e-05	1.52353e-05	1.60387e-05	6.56804e-06	1.7772e-05	0.476161	0.215187	2.97847	1.09875e-07	2.25581e-08	2.48157e-08	3.6911e-08	5.39985e-09	2.50306e-08	0.00540846	0.00198451	0.00576105	20.1494	199007	542362	577720	-69.8506	0.0000000E+000	0.0000000E+000	0.0000000E+000	69.8506	0.0000000E+000	0.0000000E+000	0.0000000E+000	-69.8506	0.0000000E+000	0.0000000E+000	0.0000000E+000	-20.1494	0.0000000E+000	0.0000000E+000	0.0000000E+000	20.1494	2.72534	69.8506	1.25457e-06
1.25968	173.1	63.8662	184.506	-20.2518	280.011	0.445905	0.00152403	1978.29	237.034	1	40	0.00459442	2.49012e-05	0	2.19503e-05	0.579902	0.30464	10.9171	8.86852e-06	7.98047e-06	1.69364e-05	8.6731e-06	8.38003e-06	7.56465e-06	0.609355	0.284663	2.81581	1.38364e-07	3.2322e-08	2.0307e-08	3.53949e-08	2.21522e-08	1.69424e-08	0.00508483	0.00187608	0.00541988	20.2518	237034	642446	684779	-69.7482	0.0000000E+000	0.0000000E+000	0.0000000E+000	69.7482	0.0000000E+000	0.0000000E+000	0.0000000E+000	-69.7482	0.0000000E+000	0.0000000E+000	0.0000000E+000	-20.2518	0.0000000E+000	0.0000000E+000	0.0000000E+000	20.2518	2.71035	69.7482	3.72374e-06
1.00122	185.477	67.8405	197.494	-20.0906	288.511	0.445895	0.00162461	2343.16	276.485	1	41	0.0045921	2.32518e-05	0	2.39109e-05	0.680286	0.436806	12.9073	7.40546e-06	7.85386e-06	1.24361e-05	1.05117e-05	1.35975e-05	1.58624e-05	0.49697	0.102871	0.633582	1.1062e-07	1.73705e-08	4.91422e-09	2.40814e-08	7.64218e-09	5.24711e-09	0.00475533	0.00173932	0.00506343	20.0906	276485	755914	804891	-69.9094	0.0000000E+000	0.0000000E+000	0.0000000E+000	69.9094	0.0000000E+000	0.0000000E+000	0.0000000E+000	-69.9094	0.0000000E+000	0.0000000E+000	0.0000000E+000	-20.0906	0.0000000E+000	0.0000000E+000	0.0000000E+000	20.0906	2.73401	69.9094	1.96059e-06
0.79456	200	70.422	212.036	-19.3976	296.528	0.445898	0.00171693	2844.37	313.749	1	41	0.00459584	2.16748e-05	0	2.94806e-05	0.578351	0.334144	10.938	7.35868e-06	1.22464e-05	1.05139e-05	1.36186e-05	8.58133e-06	6.82463e-06	0.558181	0.126689	0.622034	1.15054e-07	1.84874e-08	8.15857e-09	2.95076e-08	5.91573e-09	5.85424e-09	0.00444847	0.00156635	0.00471618	19.3976	313749	891054	944678	-70.6024	0.0000000E+000	0.0000000E+000	0.0000000E+000	70.6024	0.0000000E+000	0.0000000E+000	0.0000000E+000	-70.6024	0.0000000E+000	0.0000000E+000	0.0000000E+000	-19.3976	0.0000000E+000	0.0000000E+000	0.0000000E+000	19.3976	2.84003	70.6024	5.56966e-06
0.631645	215.56	70.1406	226.684	-18.0243	306.515	0.445903	0.00179706	3592.34	343.933	1	41	0.00459905	2.02884e-05	0	3.44931e-05	0.535296	0.322562	10.2603	1.04752e-05	1.19536e-05	1.07639e-05	7.93668e-06	5.11237e-06	6.51878e-06	0.600189	0.183882	0.674702	1.18586e-07	1.04885e-08	1.19377e-08	1.84498e-08	8.26774e-09	5.37722e-09	0.00419494	0.00136498	0.00441142	18.0243	343934	1.05699e+06	1.11154e+06	-71.9757	0.0000000E+000	0.0000000E+000	0.0000000E+000	71.9757	0.0000000E+000	0.0000000E+000	0.0000000E+000	-71.9757	0.0000000E+000	0.0000000E+000	0.0000000E+000	-18.0243	0.0000000E+000	0.0000000E+000	0.0000000E+000	18.0243	3.07325	71.9757	5.01251e-06
0.501541	231.385	67.0123	240.893	-16.1518	319.008	0.445895	0.00196293	4735.42	366.454	1	41	0.00460026	1.90967e-05	0	3.86824e-05	0.547982	0.250912	8.91922	3.7418e-06	1.08738e-05	1.27831e-05	1.003e-05	9.35658e-06	1.00456e-05	0.559352	0.176797	0.6547	1.02728e-07	1.65096e-08	7.99889e-09	1.88026e-08	3.25804e-09	6.85443e-09	0.00398736	0.0011548	0.00415122	16.1518	366454	1.26532e+06	1.31731e+06	-73.8482	0.0000000E+000	0.0000000E+000	0.0000000E+000	73.8482	0.0000000E+000	0.0000000E+000	0.0000000E+000	-73.8482	0.0000000E+000	0.0000000E+000	0.0000000E+000	-16.1518	0.0000000E+000	0.0000000E+000	0.0000000E+000	16.1518	3.45287	73.8482	4.18936e-06
0.398211	245.478	61.7843	253.134	-14.1273	334.658	0.445896	0.00214339	6468.88	385.375	1	41	0.00459335	1.81459e-05	0	4.835e-05	0.512404	0.204195	8.22854	8.93987e-06	6.09954e-06	8.90498e-06	9.21635e-06	9.69476e-06	1.12825e-05	0.59354	0.262525	0.666645	1.04881e-07	8.89135e-09	1.27928e-08	1.36108e-08	8.32736e-09	6.58945e-09	0.003831	0.000964222	0.00395048	14.1273	385375	1.53115e+06	1.57891e+06	-75.8727	0.0000000E+000	0.0000000E+000	0.0000000E+000	75.8727	0.0000000E+000	0.0000000E+000	0.0000000E+000	-75.8727	0.0000000E+000	0.0000000E+000	0.0000000E+000	-14.1273	0.0000000E+000	0.0000000E+000	0.0000000E+000	14.1273	3.97315	75.8727	9.66753e-06
0.316193	257.314	54.3161	262.984	-11.9195	354.282	0.445913	0.00233971	9267	395.31	1	41	0.00459254	1.74632e-05	0	6.35833e-05	0.502128	0.273987	7.27735	9.11987e-06	1.18002e-05	6.51647e-06	1.11392e-05	8.96933e-06	6.13614e-06	0.622955	0.176387	0.629195	1.05632e-07	1.03702e-08	6.13089e-09	2.08831e-08	7.01331e-09	4.36324e-09	0.00372052	0.000785362	0.00380251	11.9195	395310	1.87272e+06	1.91398e+06	-78.0805	0.0000000E+000	0.0000000E+000	0.0000000E+000	78.0805	0.0000000E+000	0.0000000E+000	0.0000000E+000	-78.0805	0.0000000E+000	0.0000000E+000	0.0000000E+000	-11.9195	0.0000000E+000	0.0000000E+000	0.0000000E+000	11.9195	4.73734	78.0805	1.52334e-05
0.251222	267.343	46.8828	271.422	-9.94658	378.902	0.445912	0.00258761	13512.9	403.167	1	41	0.00459262	1.69206e-05	0	8.17039e-05	0.358499	0.235798	6.36293	7.48336e-06	6.15491e-06	4.52444e-06	9.56361e-06	3.94892e-06	6.09044e-06	0.651874	0.186232	0.610948	1.08238e-07	6.54982e-09	6.49248e-09	1.68647e-08	4.64566e-09	6.22003e-09	0.00362892	0.000636388	0.00368429	9.94658	403167	2.299e+06	2.33409e+06	-80.0534	0.0000000E+000	0.0000000E+000	0.0000000E+000	80.0534	0.0000000E+000	0.0000000E+000	0.0000000E+000	-80.0534	0.0000000E+000	0.0000000E+000	0.0000000E+000	-9.94658	0.0000000E+000	0.0000000E+000	0.0000000E+000	9.94658	5.70237	80.0534	1.81206e-05
0.199573	275.916	38.8681	278.64	-8.01844	409.811	0.445907	0.00291636	20517.5	399.229	1	41	0.00459629	1.64954e-05	0	0.00010298	0.291304	0.102237	5.66599	5.51924e-06	4.0769e-06	3.70697e-06	6.69219e-06	7.42673e-06	1.93458e-06	0.558935	0.206456	0.624845	8.51408e-08	2.16103e-08	1.31677e-08	1.84096e-08	7.71615e-09	7.3076e-09	0.00355377	0.000500616	0.00358886	8.01844	399229	2.83404e+06	2.86202e+06	-81.9816	0.0000000E+000	0.0000000E+000	0.0000000E+000	81.9816	0.0000000E+000	0.0000000E+000	0.0000000E+000	-81.9816	0.0000000E+000	0.0000000E+000	0.0000000E+000	-8.01844	0.0000000E+000	0.0000000E+000	0.0000000E+000	8.01844	7.09879	81.9816	2.12762e-05
0.158419	282.682	31.5098	284.432	-6.36036	448.667	0.445905	0.00330251	31883.6	391.293	1	41	0.00459615	1.6159e-05	0	0.000133368	0.262637	0.176526	5.15738	5.69399e-06	5.82817e-06	3.40615e-06	4.25775e-06	3.25808e-06	4.29334e-06	0.68061	0.320028	0.625557	1.06927e-07	6.35468e-09	9.87809e-09	1.97501e-08	8.65911e-09	3.88884e-09	0.00349413	0.000389483	0.00351577	6.36036	391293	3.51037e+06	3.53211e+06	-83.6396	0.0000000E+000	0.0000000E+000	0.0000000E+000	83.6396	0.0000000E+000	0.0000000E+000	0.0000000E+000	-83.6396	0.0000000E+000	0.0000000E+000	0.0000000E+000	-6.36036	0.0000000E+000	0.0000000E+000	0.0000000E+000	6.36036	8.97122	83.6396	3.03882e-05
0.125939	288.856	26.4839	290.068	-5.23854	497.463	0.445912	0.00379294	47717.6	397.781	1	41	0.00459653	1.58464e-05	0	0.000180894	0.3137	0.148696	4.43706	5.58825e-06	8.94285e-06	3.45792e-06	2.67273e-06	3.6525e-06	6.36841e-06	0.618516	0.258347	0.528113	9.42331e-08	1.61114e-08	6.57549e-09	1.7651e-08	3.97425e-09	4.30455e-09	0.00343307	0.000314763	0.00344747	5.23854	397781	4.33854e+06	4.35674e+06	-84.7615	0.0000000E+000	0.0000000E+000	0.0000000E+000	84.7615	0.0000000E+000	0.0000000E+000	0.0000000E+000	-84.7615	0.0000000E+000	0.0000000E+000	0.0000000E+000	-5.23854	0.0000000E+000	0.0000000E+000	0.0000000E+000	5.23854	10.9069	84.7615	4.75255e-05
0.0999518	293.673	21.4495	294.455	-4.1774	558.866	0.445908	0.00432845	74235.6	393.921	1	41	0.00459103	1.55916e-05	0	0.00025424	0.232917	0.136088	4.58587	2.62287e-06	3.52412e-06	2.99543e-06	6.73195e-06	3.78215e-06	3.84331e-06	0.51907	0.363392	0.48029	7.88243e-08	1.00717e-08	3.47622e-09	1.00835e-08	6.19744e-09	4.83641e-09	0.00338708	0.000247388	0.0033961	4.1774	393921	5.39331e+06	5.40767e+06	-85.8226	0.0000000E+000	0.0000000E+000	0.0000000E+000	85.8226	0.0000000E+000	0.0000000E+000	0.0000000E+000	-85.8226	0.0000000E+000	0.0000000E+000	0.0000000E+000	-4.1774	0.0000000E+000	0.0000000E+000	0.0000000E+000	4.1774	13.6913	85.8226	7.33459e-05