File: Python/Data/GoldElectrode/240313/240313-CVEIS_PostActivation-Fe2Fe3_5mM-HCl1M-0225RPM-Ag_AgCl_BLF8-Au_RDE_02_PEIS_C15.mpt
EC-Lab ASCII FILE
Nb header lines : 66

Potentio Electrochemical Impedance Spectroscopy

Run on channel : 15 (SN 19485)
User :
Electrode connection : standard
Potential control : Ewe
Ewe ctrl range : min = -1.00 V, max = 1.00 V
Ewe,I filtering : <None>
Safety Limits :
	Do not start on E overload
Channel : Floating
Acquisition started on : 03/13/2024 17:04:56.446
Loaded Setting File :  NONE
Saved on :
	File : 240313-CVEIS_PostActivation-Fe2Fe3_5mM-HCl1M-225RPM-Ag_AgCl_BLF8-Au_RDE_02_PEIS_C15.mpr
	Directory : C:\Data\mathias\GoldElectrode\
	Host : 192.168.0.1
Device : VMP-300 (SN 0826)
Address : USB
EC-Lab for windows v11.52 (software)
Internet server v11.52 (firmware)
Command interpretor v11.52 (firmware)
Electrode material :
Initial state :
Electrolyte :
Comments :
Cable : special
Electrode surface area : 0.001 cm²
Characteristic mass : 0.001 g
Equivalent Weight : 0.000 g/eq.
Density : 0.000 g/cm3
Volume (V) : 0.001 cm³
Record EIS quality indicators
Cycle Definition : Charge/Discharge alternance
Mode                Single sine
E (V)               0.0000
vs.                 Eoc
tE (h:m:s)          0:01:0.0000
record              0
dI                  0.000
unit dI             mA
dt (s)              0.000
fi                  400.000
unit fi             kHz
ff                  100.000
unit ff             mHz
Nd                  10
Points              per decade
spacing             Logarithmic
Va (mV)             5.0
pw                  0.10
Na                  3
corr                0
E range min (V)     -1.000
E range max (V)     1.000
I Range             Auto
Bandwidth           8
nc cycles           0
goto Ns'            0
nr cycles           0
inc. cycle          1

freq/Hz	Re(Z)/Ohm	-Im(Z)/Ohm	|Z|/Ohm	Phase(Z)/deg	time/s	<Ewe>/V	<I>/mA	Cs/µF	Cp/µF	cycle number	I Range	|Ewe|/V	|I|/A	Ns	(Q-Qo)/mA.h	THD Ewe/%	NSD Ewe/%	NSR Ewe/%	|Ewe h2|/V	|Ewe h3|/V	|Ewe h4|/V	|Ewe h5|/V	|Ewe h6|/V	|Ewe h7|/V	THD I/%	NSD I/%	NSR I/%	|I h2|/A	|I h3|/A	|I h4|/A	|I h5|/A	|I h6|/A	|I h7|/A	Re(Y)/Ohm-1	Im(Y)/Ohm-1	|Y|/Ohm-1	Phase(Y)/deg	Re(C)/nF	Im(C)/nF	|C|/nF	Phase(C)/deg	Re(M)	Im(M)	|M|	Phase(M)/deg	Re(Permittivity)	Im(Permittivity)	|Permittivity|	Phase(Permittivity)/deg	Re(Resistivity)/Ohm.cm	Im(Resistivity)/Ohm.cm	|Resistivity|/Ohm.cm	Phase(Resistivity)/deg	Re(Conductivity)/mS/cm	Im(Conductivity)/mS/cm	|Conductivity|/mS/cm	Phase(Conductivity)/deg	Tan(Delta)	Loss Angle(Delta)/deg	dq/mA.h
399996	3.22338	1.38472	3.50822	-23.2477	203.378	0.449739	-0.0127267	0.287344	0.0447664	1	38	0.00490894	0.00139927	0	-4.10436e-06	-1	-1	-1	0	0	0	0	0	0	-1	-1	-1	0	0	0	0	0	0	0.261901	0.112509	0.285045	23.2477	44.7664	104.208	113.417	-66.7523	0.0000000E+000	0.0000000E+000	0.0000000E+000	66.7523	0.0000000E+000	0.0000000E+000	0.0000000E+000	-66.7523	0.0000000E+000	0.0000000E+000	0.0000000E+000	-23.2477	0.0000000E+000	0.0000000E+000	0.0000000E+000	23.2477	2.32782	66.7523	-4.10436e-06
317705	3.18904	1.11068	3.37692	-19.2022	204.525	0.449739	-0.00271497	0.451031	0.0487914	1	38	0.0051407	0.0015223	0	-5.33815e-06	-1	-1	-1	0	0	0	0	0	0	-1	-1	-1	0	0	0	0	0	0	0.279652	0.0973974	0.296128	19.2022	48.7914	140.092	148.346	-70.7978	0.0000000E+000	0.0000000E+000	0.0000000E+000	70.7978	0.0000000E+000	0.0000000E+000	0.0000000E+000	-70.7978	0.0000000E+000	0.0000000E+000	0.0000000E+000	-19.2022	0.0000000E+000	0.0000000E+000	0.0000000E+000	19.2022	2.87125	70.7978	-1.23379e-06
252347	3.28456	0.299228	3.29816	-5.20537	206.107	0.449727	-0.0275664	2.10775	0.0173493	1	37	0.00468048	0.00141912	0	-2.04181e-05	-1	-1	-1	0	0	0	0	0	0	-1	-1	-1	0	0	0	0	0	0	0.301949	0.0275081	0.3032	5.20537	17.3493	190.439	191.227	-84.7946	0.0000000E+000	0.0000000E+000	0.0000000E+000	84.7946	0.0000000E+000	0.0000000E+000	0.0000000E+000	-84.7946	0.0000000E+000	0.0000000E+000	0.0000000E+000	-5.20537	0.0000000E+000	0.0000000E+000	0.0000000E+000	5.20537	10.9767	84.7946	-1.50799e-05
200434	3.22418	0.301815	3.23828	-5.34786	207.254	0.449748	-0.0222435	2.63092	0.0228539	1	37	0.00510056	0.00157508	0	-2.62903e-05	-1	-1	-1	0	0	0	0	0	0	-1	-1	-1	0	0	0	0	0	0	0.307462	0.0287814	0.308806	5.34786	22.8539	244.141	245.208	-84.6521	0.0000000E+000	0.0000000E+000	0.0000000E+000	84.6521	0.0000000E+000	0.0000000E+000	0.0000000E+000	-84.6521	0.0000000E+000	0.0000000E+000	0.0000000E+000	-5.34786	0.0000000E+000	0.0000000E+000	0.0000000E+000	5.34786	10.6827	84.6521	-5.87222e-06
159201	3.19647	0.318946	3.21234	-5.69815	208.401	0.449729	-0.0222063	3.13443	0.0308993	1	37	0.00518302	0.00161347	0	-3.49187e-05	-1	-1	-1	0	0	0	0	0	0	-1	-1	-1	0	0	0	0	0	0	0.309761	0.0309081	0.311299	5.69815	30.8993	309.672	311.21	-84.3018	0.0000000E+000	0.0000000E+000	0.0000000E+000	84.3018	0.0000000E+000	0.0000000E+000	0.0000000E+000	-84.3018	0.0000000E+000	0.0000000E+000	0.0000000E+000	-5.69815	0.0000000E+000	0.0000000E+000	0.0000000E+000	5.69815	10.022	84.3018	-8.62841e-06
126447	3.18907	0.343718	3.20754	-6.1516	209.549	0.449753	-0.0183538	3.66191	0.0420503	1	37	0.00519475	0.00161954	0	-3.93252e-05	-1	-1	-1	0	0	0	0	0	0	-1	-1	-1	0	0	0	0	0	0	0.309971	0.0334087	0.311766	6.1516	42.0503	390.149	392.409	-83.8484	0.0000000E+000	0.0000000E+000	0.0000000E+000	83.8484	0.0000000E+000	0.0000000E+000	0.0000000E+000	-83.8484	0.0000000E+000	0.0000000E+000	0.0000000E+000	-6.1516	0.0000000E+000	0.0000000E+000	0.0000000E+000	6.1516	9.27814	83.8484	-4.40649e-06
100431	3.21932	0.38516	3.24228	-6.82246	210.697	0.449754	-0.0165113	4.11446	0.0580625	1	37	0.00518721	0.00159987	0	-4.92301e-05	0.90534	0.784248	19.7452	2.20525e-05	1.71383e-05	1.66784e-05	2.64202e-05	8.90821e-06	1.09177e-05	0.683537	0.338017	10.8608	3.45473e-06	3.66812e-06	3.81978e-06	3.22795e-06	5.43082e-06	5.58852e-06	0.306241	0.0366388	0.308425	6.82246	58.0626	485.309	488.77	-83.1775	0.0000000E+000	0.0000000E+000	0.0000000E+000	83.1775	0.0000000E+000	0.0000000E+000	0.0000000E+000	-83.1775	0.0000000E+000	0.0000000E+000	0.0000000E+000	-6.82246	0.0000000E+000	0.0000000E+000	0.0000000E+000	6.82246	8.35838	83.1775	-9.90497e-06
79767.3	3.24759	0.422884	3.27501	-7.41899	211.845	0.449738	-0.0252586	4.71818	0.0786666	1	37	0.00519609	0.00158659	0	-5.56841e-05	1.10245	0.478201	19.5744	1.62686e-05	2.88938e-05	2.65172e-05	2.19005e-05	1.76971e-05	1.73735e-05	0.591772	0.346751	11.0866	3.38037e-06	2.7719e-06	3.51844e-06	4.08189e-06	3.00779e-06	2.93152e-06	0.302786	0.0394271	0.305342	7.41899	78.6666	604.131	609.232	-82.581	0.0000000E+000	0.0000000E+000	0.0000000E+000	82.581	0.0000000E+000	0.0000000E+000	0.0000000E+000	-82.581	0.0000000E+000	0.0000000E+000	0.0000000E+000	-7.41899	0.0000000E+000	0.0000000E+000	0.0000000E+000	7.41899	7.67964	82.581	-6.45398e-06
63362.9	3.30214	0.45337	3.33312	-7.8176	212.993	0.449731	-0.0239372	5.54029	0.102503	1	37	0.00518911	0.00155683	0	-6.60518e-05	0.899777	0.486221	19.1896	1.56795e-05	1.63997e-05	1.51252e-05	2.23785e-05	1.72657e-05	1.75093e-05	0.54325	0.438444	11.4572	1.78607e-06	3.78208e-06	2.7037e-06	3.21677e-06	4.16937e-06	3.32329e-06	0.297231	0.0408086	0.300019	7.8176	102.503	746.585	753.589	-82.1824	0.0000000E+000	0.0000000E+000	0.0000000E+000	82.1824	0.0000000E+000	0.0000000E+000	0.0000000E+000	-82.1824	0.0000000E+000	0.0000000E+000	0.0000000E+000	-7.8176	0.0000000E+000	0.0000000E+000	0.0000000E+000	7.8176	7.28354	82.1824	-1.03677e-05
50326.6	3.36519	0.50376	3.40269	-8.5138	214.141	0.449745	-0.0240116	6.27767	0.137595	1	37	0.00521982	0.00153403	0	-7.27836e-05	0.896629	0.424662	19.3424	1.47805e-05	2.43807e-05	6.04348e-06	2.22821e-05	1.94616e-05	1.29858e-05	0.556043	0.439282	11.6446	3.22765e-06	3.09754e-06	2.12406e-06	2.30019e-06	4.09856e-06	3.53303e-06	0.290647	0.043509	0.293885	8.5138	137.595	919.153	929.395	-81.4862	0.0000000E+000	0.0000000E+000	0.0000000E+000	81.4862	0.0000000E+000	0.0000000E+000	0.0000000E+000	-81.4862	0.0000000E+000	0.0000000E+000	0.0000000E+000	-8.5138	0.0000000E+000	0.0000000E+000	0.0000000E+000	8.5138	6.68015	81.4862	-6.73181e-06
39971.8	3.40886	0.543093	3.45185	-9.05216	215.289	0.449757	-0.0260588	7.3315	0.181483	1	37	0.00516215	0.00149547	0	-8.00142e-05	0.873063	0.502269	19.6795	2.08592e-05	1.11126e-05	1.40521e-05	1.94199e-05	1.57901e-05	2.175e-05	0.685843	0.347534	11.7981	5.0408e-06	4.85951e-06	3.88273e-06	3.17425e-06	3.28459e-06	3.65468e-06	0.286091	0.0455794	0.289699	9.05216	181.483	1139.12	1153.49	-80.9478	0.0000000E+000	0.0000000E+000	0.0000000E+000	80.9478	0.0000000E+000	0.0000000E+000	0.0000000E+000	-80.9478	0.0000000E+000	0.0000000E+000	0.0000000E+000	-9.05216	0.0000000E+000	0.0000000E+000	0.0000000E+000	9.05216	6.27676	80.9478	-7.23061e-06
31751	3.46224	0.59825	3.51354	-9.8035	216.437	0.449742	-0.0262636	8.37875	0.242915	1	37	0.00516371	0.00146966	0	-8.99915e-05	0.925251	0.519582	19.3766	1.7373e-05	1.6769e-05	1.297e-05	3.07982e-05	1.23713e-05	1.38011e-05	0.620866	0.349441	12.3255	4.50664e-06	3.06441e-06	2.83716e-06	2.27797e-06	4.4753e-06	3.62309e-06	0.280457	0.048461	0.284613	9.8035	242.915	1405.82	1426.65	-80.1965	0.0000000E+000	0.0000000E+000	0.0000000E+000	80.1965	0.0000000E+000	0.0000000E+000	0.0000000E+000	-80.1965	0.0000000E+000	0.0000000E+000	0.0000000E+000	-9.8035	0.0000000E+000	0.0000000E+000	0.0000000E+000	9.8035	5.78727	80.1965	-9.97728e-06
25219	3.51264	0.660299	3.57416	-10.6461	217.586	0.449755	-0.0307117	9.55768	0.326201	1	37	0.00507229	0.00141916	0	-9.79943e-05	1.12025	0.622857	19.6126	1.41808e-05	1.51938e-05	2.64508e-05	2.9635e-05	1.66038e-05	2.36533e-05	0.666821	0.458032	12.5699	3.07064e-06	2.10354e-06	4.96847e-06	3.99013e-06	2.59298e-06	4.13191e-06	0.27497	0.0516884	0.279786	10.6461	326.201	1735.32	1765.71	-79.3539	0.0000000E+000	0.0000000E+000	0.0000000E+000	79.3539	0.0000000E+000	0.0000000E+000	0.0000000E+000	-79.3539	0.0000000E+000	0.0000000E+000	0.0000000E+000	-10.6461	0.0000000E+000	0.0000000E+000	0.0000000E+000	10.6461	5.31977	79.3539	-8.00276e-06
20032.3	3.55466	0.734987	3.62985	-11.6823	218.734	0.449747	-0.0285341	10.8096	0.443192	1	37	0.00516627	0.00142328	0	-0.00010702	0.940136	0.649407	19.0179	1.67418e-05	9.80358e-06	2.44624e-05	1.64866e-05	2.52459e-05	1.44199e-05	0.683933	0.469296	12.3958	2.5703e-06	2.04776e-06	5.40618e-06	3.64689e-06	3.9913e-06	4.68235e-06	0.269787	0.0557831	0.275494	11.6823	443.192	2143.44	2188.78	-78.3177	0.0000000E+000	0.0000000E+000	0.0000000E+000	78.3177	0.0000000E+000	0.0000000E+000	0.0000000E+000	-78.3177	0.0000000E+000	0.0000000E+000	0.0000000E+000	-11.6823	0.0000000E+000	0.0000000E+000	0.0000000E+000	11.6823	4.83636	78.3177	-9.02606e-06
15912.6	3.61537	0.8223	3.70771	-12.8137	219.882	0.44975	-0.0314189	12.1632	0.59827	1	37	0.0050602	0.00136478	0	-0.000114824	0.923744	0.531939	19.6146	1.57279e-05	8.71986e-06	2.29756e-05	1.76791e-05	1.66029e-05	2.34364e-05	0.58216	0.589275	12.8067	4.22806e-06	2.50374e-06	2.64156e-06	4.67992e-06	1.76137e-06	1.70057e-06	0.262992	0.0598163	0.269708	12.8137	598.27	2630.39	2697.57	-77.1863	0.0000000E+000	0.0000000E+000	0.0000000E+000	77.1863	0.0000000E+000	0.0000000E+000	0.0000000E+000	-77.1863	0.0000000E+000	0.0000000E+000	0.0000000E+000	-12.8137	0.0000000E+000	0.0000000E+000	0.0000000E+000	12.8137	4.39666	77.1863	-7.80349e-06
12637.3	3.68195	0.949899	3.80251	-14.4662	221.03	0.449736	-0.0334103	13.2583	0.827374	1	37	0.00507599	0.00133491	0	-0.000125812	1.15553	0.667175	19.4842	2.67163e-05	1.48376e-05	2.03138e-05	2.50711e-05	2.03644e-05	2.26776e-05	0.695053	0.538443	13.3629	2.52911e-06	2.65259e-06	3.35643e-06	3.29163e-06	3.41904e-06	4.60759e-06	0.254646	0.0656957	0.262984	14.4662	827.374	3207.03	3312.03	-75.5338	0.0000000E+000	0.0000000E+000	0.0000000E+000	75.5338	0.0000000E+000	0.0000000E+000	0.0000000E+000	-75.5338	0.0000000E+000	0.0000000E+000	0.0000000E+000	-14.4662	0.0000000E+000	0.0000000E+000	0.0000000E+000	14.4662	3.87615	75.5338	-1.09886e-05
10039.3	3.73224	1.0855	3.88689	-16.2168	222.179	0.449749	-0.0314003	14.6044	1.13904	1	37	0.00501604	0.0012905	0	-0.000134828	1.3039	0.663783	19.8604	1.86893e-05	1.88546e-05	3.83784e-05	1.79402e-05	2.81919e-05	2.01471e-05	0.781012	0.5826	13.727	4.37791e-06	2.42924e-06	4.14946e-06	4.50772e-06	4.10541e-06	3.10688e-06	0.247039	0.0718498	0.257275	16.2168	1139.04	3916.33	4078.61	-73.7832	0.0000000E+000	0.0000000E+000	0.0000000E+000	73.7832	0.0000000E+000	0.0000000E+000	0.0000000E+000	-73.7832	0.0000000E+000	0.0000000E+000	0.0000000E+000	-16.2168	0.0000000E+000	0.0000000E+000	0.0000000E+000	16.2168	3.43826	73.7832	-9.01595e-06
7967.67	3.7868	1.31688	4.00924	-19.1754	223.356	0.449625	-0.0294461	15.1685	1.63648	1	37	0.00516692	0.00128875	0	-0.000142552	1.19361	0.662212	19.2128	3.07811e-05	8.16043e-06	1.54836e-05	2.57305e-05	2.83357e-05	2.86843e-05	0.787799	0.557612	13.8663	2.79304e-06	2.01577e-06	4.5967e-06	2.52642e-06	6.46304e-06	3.76366e-06	0.235585	0.081926	0.249424	19.1754	1636.48	4705.84	4982.27	-70.8246	0.0000000E+000	0.0000000E+000	0.0000000E+000	70.8246	0.0000000E+000	0.0000000E+000	0.0000000E+000	-70.8246	0.0000000E+000	0.0000000E+000	0.0000000E+000	-19.1754	0.0000000E+000	0.0000000E+000	0.0000000E+000	19.1754	2.87559	70.8246	-7.72372e-06
6332.63	3.87762	1.57012	4.18345	-22.0439	224.626	0.44962	-0.00236493	16.0068	2.25476	1	38	0.00461529	0.00110323	0	-0.000144777	1.23397	0.935893	21.2519	3.31092e-05	2.11179e-05	1.39846e-05	1.82775e-05	2.92627e-05	8.89047e-06	0.133049	0.296005	2.63303	5.97305e-07	3.95352e-07	5.79267e-07	7.59313e-07	4.64211e-07	2.68275e-07	0.221563	0.0897147	0.239037	22.0439	2254.76	5568.43	6007.61	-67.9561	0.0000000E+000	0.0000000E+000	0.0000000E+000	67.9561	0.0000000E+000	0.0000000E+000	0.0000000E+000	-67.9561	0.0000000E+000	0.0000000E+000	0.0000000E+000	-22.0439	0.0000000E+000	0.0000000E+000	0.0000000E+000	22.0439	2.46964	67.9561	-2.2254e-06
5028.39	3.96581	1.89127	4.39369	-25.4962	225.747	0.449619	-0.00299241	16.7355	3.10088	1	38	0.00532198	0.00121128	0	-0.000145859	1.24208	0.534628	17.9756	1.80672e-05	2.41767e-05	2.75876e-05	2.0016e-05	3.45633e-05	2.29035e-05	0.171133	0.289054	2.38772	1.30769e-06	4.08892e-07	1.07505e-06	4.98684e-07	5.83695e-07	5.50968e-07	0.205434	0.0979702	0.227599	25.4962	3100.88	6502.26	7203.81	-64.5038	0.0000000E+000	0.0000000E+000	0.0000000E+000	64.5038	0.0000000E+000	0.0000000E+000	0.0000000E+000	-64.5038	0.0000000E+000	0.0000000E+000	0.0000000E+000	-25.4962	0.0000000E+000	0.0000000E+000	0.0000000E+000	25.4962	2.0969	64.5038	-1.08198e-06
3993.72	4.0531	2.27938	4.65008	-29.3525	227.074	0.449604	-0.00280622	17.4834	4.20088	1	38	0.00501124	0.00107767	0	-0.000149136	1.05559	0.34381	19.6222	1.64828e-05	2.49206e-05	1.84082e-05	1.67407e-05	1.82312e-05	2.38699e-05	0.17734	0.262375	2.72727	1.20572e-06	5.90239e-07	2.62889e-07	7.08726e-07	7.27511e-07	5.46409e-07	0.187442	0.105414	0.21505	29.3525	4200.88	7469.81	8570.03	-60.6475	0.0000000E+000	0.0000000E+000	0.0000000E+000	60.6475	0.0000000E+000	0.0000000E+000	0.0000000E+000	-60.6475	0.0000000E+000	0.0000000E+000	0.0000000E+000	-29.3525	0.0000000E+000	0.0000000E+000	0.0000000E+000	29.3525	1.77816	60.6475	-3.27681e-06
3171.96	4.17317	2.75839	5.0024	-33.464	228.18	0.449614	-0.00264609	18.1902	5.53084	1	38	0.00523542	0.00104658	0	-0.000150692	0.732346	0.466573	19.0054	1.38121e-05	1.14835e-05	6.13884e-06	1.62941e-05	1.64862e-05	1.66816e-05	0.237212	0.292783	2.84212	1.3279e-06	9.62547e-07	8.53072e-07	6.07799e-07	1.27538e-06	6.29493e-07	0.166766	0.11023	0.199904	33.464	5530.84	8367.6	10030.3	-56.536	0.0000000E+000	0.0000000E+000	0.0000000E+000	56.536	0.0000000E+000	0.0000000E+000	0.0000000E+000	-56.536	0.0000000E+000	0.0000000E+000	0.0000000E+000	-33.464	0.0000000E+000	0.0000000E+000	0.0000000E+000	33.464	1.5129	56.536	-1.55599e-06
2519.19	4.34522	3.36508	5.49588	-37.7554	229.289	0.449627	-0.002998	18.7743	7.0385	1	38	0.00529478	0.000963409	0	-0.000151311	0.949192	0.689649	17.9125	1.3333e-05	2.30541e-05	2.01473e-05	2.20691e-05	1.88351e-05	1.58756e-05	0.227836	0.274493	3.05329	1.60563e-06	6.01868e-07	5.90728e-07	5.90002e-07	5.0447e-07	7.77285e-07	0.143859	0.111409	0.181954	37.7554	7038.5	9088.59	11495.3	-52.2446	0.0000000E+000	0.0000000E+000	0.0000000E+000	52.2446	0.0000000E+000	0.0000000E+000	0.0000000E+000	-52.2446	0.0000000E+000	0.0000000E+000	0.0000000E+000	-37.7554	0.0000000E+000	0.0000000E+000	0.0000000E+000	37.7554	1.29127	52.2446	-6.18438e-07
2001.92	4.55719	4.10092	6.1307	-41.9833	230.394	0.449593	-0.00271312	19.3862	8.67429	1	38	0.00524618	0.000855722	0	-0.000152863	0.637186	0.499152	18.4322	1.31178e-05	1.11743e-05	8.3359e-06	1.55483e-05	1.15363e-05	1.63944e-05	0.327999	0.247205	3.41353	1.99622e-06	1.23955e-06	7.542e-07	7.93012e-07	7.34642e-07	5.56556e-07	0.121249	0.109109	0.163113	41.9833	8674.29	9639.41	12967.7	-48.0167	0.0000000E+000	0.0000000E+000	0.0000000E+000	48.0167	0.0000000E+000	0.0000000E+000	0.0000000E+000	-48.0167	0.0000000E+000	0.0000000E+000	0.0000000E+000	-41.9833	0.0000000E+000	0.0000000E+000	0.0000000E+000	41.9833	1.11126	48.0167	-1.55225e-06
1589.49	4.83831	5.00092	6.95833	-45.9469	231.501	0.449609	-0.00386381	20.0222	10.3419	1	38	0.00514885	0.000739955	0	-0.000153344	0.958553	0.465878	19.3173	1.02484e-05	1.80012e-05	2.13222e-05	2.61585e-05	1.41043e-05	1.99105e-05	0.345086	0.239261	3.95299	1.93268e-06	1.07085e-06	5.57865e-07	8.97898e-07	3.57903e-07	4.06093e-07	0.099927	0.103286	0.143713	45.9469	10341.9	10005.6	14389.9	-44.0531	0.0000000E+000	0.0000000E+000	0.0000000E+000	44.0531	0.0000000E+000	0.0000000E+000	0.0000000E+000	-44.0531	0.0000000E+000	0.0000000E+000	0.0000000E+000	-45.9469	0.0000000E+000	0.0000000E+000	0.0000000E+000	45.9469	0.967483	44.0531	-4.8065e-07
1262.98	5.15935	6.11095	7.99766	-49.8263	232.607	0.449607	-0.00301104	20.6213	12.0395	1	38	0.0050373	0.000629846	0	-0.000153678	0.998568	0.595378	19.5504	1.70116e-05	1.97187e-05	1.76392e-05	1.02464e-05	2.3033e-05	2.65889e-05	0.474941	0.166757	4.65827	1.97667e-06	1.37716e-06	7.51295e-07	1.12327e-06	7.858e-07	3.97653e-07	0.0806619	0.0955395	0.125037	49.8263	12039.5	10164.7	15756.6	-40.1737	0.0000000E+000	0.0000000E+000	0.0000000E+000	40.1737	0.0000000E+000	0.0000000E+000	0.0000000E+000	-40.1737	0.0000000E+000	0.0000000E+000	0.0000000E+000	-49.8263	0.0000000E+000	0.0000000E+000	0.0000000E+000	49.8263	0.844278	40.1737	-3.34191e-07
1002.75	5.74469	7.39538	9.36447	-52.1601	233.715	0.449578	-0.00352866	21.4618	13.3851	1	38	0.00497023	0.000530754	0	-0.000154123	1.01159	0.617928	19.0471	2.09056e-05	1.75918e-05	1.73948e-05	2.20376e-05	1.58424e-05	2.33216e-05	0.496662	0.286589	5.49194	1.69639e-06	1.42415e-06	5.11201e-07	9.11316e-07	2.19975e-07	5.6019e-07	0.065509	0.0843325	0.106787	52.1601	13385.1	10397.5	16949	-37.8399	0.0000000E+000	0.0000000E+000	0.0000000E+000	37.8399	0.0000000E+000	0.0000000E+000	0.0000000E+000	-37.8399	0.0000000E+000	0.0000000E+000	0.0000000E+000	-52.1601	0.0000000E+000	0.0000000E+000	0.0000000E+000	52.1601	0.776795	37.8399	-4.45563e-07
796.787	6.41925	8.94193	11.0075	-54.3261	234.82	0.449589	-0.00244688	22.3381	14.7412	1	38	0.00489363	0.000444573	0	-0.000154888	1.40661	0.626931	20.2227	2.03317e-05	1.16874e-05	2.92609e-05	3.22135e-05	3.19634e-05	2.77626e-05	0.637671	0.212223	6.45886	1.84982e-06	1.18654e-06	7.40241e-07	1.00655e-06	8.2115e-07	6.52973e-07	0.0529795	0.0737997	0.0908472	54.3261	14741.2	10582.4	18146.4	-35.6739	0.0000000E+000	0.0000000E+000	0.0000000E+000	35.6739	0.0000000E+000	0.0000000E+000	0.0000000E+000	-35.6739	0.0000000E+000	0.0000000E+000	0.0000000E+000	-54.3261	0.0000000E+000	0.0000000E+000	0.0000000E+000	54.3261	0.717882	35.6739	-7.64978e-07
632.773	7.37014	10.8072	13.0811	-55.7073	235.928	0.449639	-0.000359654	23.2734	15.8854	1	38	0.00485703	0.000371303	0	-0.000154904	1.1631	0.583242	20.0725	1.40697e-05	3.0998e-05	1.88797e-05	1.55459e-05	2.27691e-05	2.39226e-05	0.657247	0.27161	7.93863	1.9048e-06	9.1133e-07	4.67349e-07	6.49308e-07	6.0008e-07	4.62219e-07	0.0430715	0.0631578	0.0764464	55.7073	15885.4	10833.3	19227.8	-34.2927	0.0000000E+000	0.0000000E+000	0.0000000E+000	34.2927	0.0000000E+000	0.0000000E+000	0.0000000E+000	-34.2927	0.0000000E+000	0.0000000E+000	0.0000000E+000	-55.7073	0.0000000E+000	0.0000000E+000	0.0000000E+000	55.7073	0.681967	34.2927	-1.55098e-08
502.588	8.65099	12.7854	15.4372	-55.9165	237.037	0.44965	-0.00164253	24.7682	16.9898	1	38	0.00480176	0.000311052	0	-0.000155464	1.28758	0.774336	20.1613	2.15106e-05	1.68757e-05	2.74083e-05	2.39915e-05	1.6099e-05	3.0721e-05	0.822695	0.214687	9.31155	1.59699e-06	9.07111e-07	6.99689e-07	1.24182e-06	6.94269e-07	5.2249e-07	0.036302	0.0536512	0.0647788	55.9165	16989.8	11495.8	20513.5	-34.0835	0.0000000E+000	0.0000000E+000	0.0000000E+000	34.0835	0.0000000E+000	0.0000000E+000	0.0000000E+000	-34.0835	0.0000000E+000	0.0000000E+000	0.0000000E+000	-55.9165	0.0000000E+000	0.0000000E+000	0.0000000E+000	55.9165	0.676631	34.0835	-5.60633e-07
399.106	10.4384	15.2264	18.4609	-55.5675	238.144	0.449644	0.000740746	26.1899	17.8166	1	38	0.00480651	0.000260362	0	-0.000155695	1.21459	0.712732	20.4203	2.43154e-05	1.71163e-05	1.91648e-05	3.27408e-05	1.18904e-05	2.61115e-05	0.74551	0.312129	11.2839	1.07928e-06	7.17308e-07	5.88496e-07	4.69873e-07	9.35176e-07	3.69612e-07	0.0306288	0.0446778	0.0541685	55.5675	17816.6	12214.1	21601.3	-34.4325	0.0000000E+000	0.0000000E+000	0.0000000E+000	34.4325	0.0000000E+000	0.0000000E+000	0.0000000E+000	-34.4325	0.0000000E+000	0.0000000E+000	0.0000000E+000	-55.5675	0.0000000E+000	0.0000000E+000	0.0000000E+000	55.5675	0.685547	34.4325	-2.30999e-07
316.927	12.506	17.771	21.7303	-54.8649	239.249	0.449671	-0.000575643	28.2585	18.8991	1	38	0.0047752	0.000219748	0	-0.000155687	1.03585	0.483657	20.5768	1.8434e-05	1.67944e-05	1.66817e-05	2.74729e-05	2.0187e-05	7.14613e-06	1.02891	0.316115	13.2266	1.68371e-06	6.22724e-07	5.03771e-07	6.16905e-07	6.22612e-07	8.13266e-07	0.026484	0.0376339	0.0460186	54.8649	18899.1	13299.8	23109.7	-35.1351	0.0000000E+000	0.0000000E+000	0.0000000E+000	35.1351	0.0000000E+000	0.0000000E+000	0.0000000E+000	-35.1351	0.0000000E+000	0.0000000E+000	0.0000000E+000	-54.8649	0.0000000E+000	0.0000000E+000	0.0000000E+000	54.8649	0.703728	35.1351	8.08667e-09
251.853	15.4647	20.3406	25.5519	-52.7547	240.35	0.449665	-0.000510476	31.0676	19.6875	1	38	0.00477374	0.000186825	0	-0.000155568	1.33364	0.316171	20.4586	2.80176e-05	1.23195e-05	2.44837e-05	2.14257e-05	3.35347e-05	2.53603e-05	0.765684	0.54908	15.4791	8.91808e-07	2.07095e-07	4.1827e-07	4.73335e-07	5.33022e-07	4.82412e-07	0.0236863	0.0311543	0.0391361	52.7547	19687.5	14968.2	24731.4	-37.2453	0.0000000E+000	0.0000000E+000	0.0000000E+000	37.2453	0.0000000E+000	0.0000000E+000	0.0000000E+000	-37.2453	0.0000000E+000	0.0000000E+000	0.0000000E+000	-52.7547	0.0000000E+000	0.0000000E+000	0.0000000E+000	52.7547	0.760288	37.2453	1.19083e-07
199.936	19.0662	22.9449	29.8327	-50.275	241.711	0.44965	0.000142553	34.693	20.5225	1	39	0.00486204	0.000162977	0	-0.000155543	1.40518	1.02534	21.6594	2.00829e-05	2.18031e-05	3.30817e-05	2.8246e-05	3.25755e-05	1.99283e-05	0.776128	0.289953	7.80377	7.69184e-07	4.76305e-07	2.25092e-07	6.26998e-07	4.34875e-07	1.72072e-07	0.0214229	0.0257811	0.0335203	50.275	20522.5	17053.3	26683.1	-39.725	0.0000000E+000	0.0000000E+000	0.0000000E+000	39.725	0.0000000E+000	0.0000000E+000	0.0000000E+000	-39.725	0.0000000E+000	0.0000000E+000	0.0000000E+000	-50.275	0.0000000E+000	0.0000000E+000	0.0000000E+000	50.275	0.830955	39.725	2.48043e-08
158.831	23.1102	25.3264	34.2856	-47.6197	242.82	0.449631	0.000295011	39.5651	21.5891	1	39	0.00482742	0.0001408	0	-0.000155221	1.08802	0.819762	21.1558	1.01128e-05	2.73313e-05	2.4602e-05	2.30463e-05	1.16897e-05	1.39879e-05	0.64425	0.268638	8.73738	4.91382e-07	2.85901e-07	3.48089e-07	5.17401e-07	1.15113e-07	1.86538e-07	0.0196598	0.0215451	0.0291667	47.6197	21589.1	19699.9	29226.3	-42.3803	0.0000000E+000	0.0000000E+000	0.0000000E+000	42.3803	0.0000000E+000	0.0000000E+000	0.0000000E+000	-42.3803	0.0000000E+000	0.0000000E+000	0.0000000E+000	-47.6197	0.0000000E+000	0.0000000E+000	0.0000000E+000	47.6197	0.912494	42.3803	3.22219e-07
126.171	27.7327	27.0921	38.7697	-44.3305	243.92	0.449632	0.000352788	46.5605	22.7363	1	39	0.00478968	0.000123542	0	-0.000155277	1.00655	0.471186	21.8596	1.23153e-05	1.40077e-05	1.29536e-05	2.61819e-05	1.31557e-05	2.38763e-05	0.692075	0.305834	10.4126	3.87336e-07	2.15471e-07	2.77959e-07	4.59794e-07	2.85365e-07	3.16759e-07	0.0184505	0.0180243	0.0257934	44.3305	22736.3	23273.9	32536.3	-45.6695	0.0000000E+000	0.0000000E+000	0.0000000E+000	45.6695	0.0000000E+000	0.0000000E+000	0.0000000E+000	-45.6695	0.0000000E+000	0.0000000E+000	0.0000000E+000	-44.3305	0.0000000E+000	0.0000000E+000	0.0000000E+000	44.3305	1.02365	45.6695	-5.54471e-08
100.224	32.4904	28.5454	43.2489	-41.3019	245.025	0.449651	7.1728e-05	55.6301	24.2344	1	39	0.00476748	0.000110233	0	-0.000155311	1.31786	0.75294	22.2879	2.69916e-05	1.64532e-05	2.72801e-05	2.3809e-05	2.81489e-05	2.64001e-05	0.809497	0.374886	11.8198	5.65965e-07	3.65757e-07	2.84691e-07	1.75327e-07	3.1447e-07	2.64438e-07	0.0173702	0.0152611	0.023122	41.3019	24234.4	27583.6	36717.3	-48.6981	0.0000000E+000	0.0000000E+000	0.0000000E+000	48.6981	0.0000000E+000	0.0000000E+000	0.0000000E+000	-48.6981	0.0000000E+000	0.0000000E+000	0.0000000E+000	-41.3019	0.0000000E+000	0.0000000E+000	0.0000000E+000	41.3019	1.1382	48.6982	-3.43276e-08
79.6177	37.7576	29.4595	47.8905	-37.9624	246.108	0.449636	0.000758908	67.8555	25.6766	1	39	0.00476657	9.95307e-05	0	-0.000155254	1.11532	0.636144	22.1042	1.41091e-05	1.91211e-05	2.09954e-05	1.80899e-05	2.05077e-05	2.18544e-05	0.865458	0.368285	12.8304	3.9259e-07	1.98791e-07	3.53935e-07	3.83224e-07	2.98109e-07	2.79243e-07	0.0164629	0.0128448	0.020881	37.9624	25676.6	32909.1	41740.9	-52.0376	0.0000000E+000	0.0000000E+000	0.0000000E+000	52.0376	0.0000000E+000	0.0000000E+000	0.0000000E+000	-52.0376	0.0000000E+000	0.0000000E+000	0.0000000E+000	-37.9624	0.0000000E+000	0.0000000E+000	0.0000000E+000	37.9624	1.28168	52.0376	5.65522e-08
63.2394	42.7278	29.8217	52.1056	-34.913	247.189	0.449615	0.000544758	84.3918	27.6436	1	39	0.00474745	9.1112e-05	0	-0.000155152	1.24782	0.37807	22.1119	2.78114e-05	2.34547e-05	2.19386e-05	2.60519e-05	1.5026e-05	2.03335e-05	0.861986	0.331743	13.8046	4.36607e-07	2.93861e-07	2.90274e-07	3.61341e-07	1.4314e-07	2.19992e-07	0.0157377	0.0109841	0.0191918	34.913	27643.6	39607.1	48300.1	-55.087	0.0000000E+000	0.0000000E+000	0.0000000E+000	55.087	0.0000000E+000	0.0000000E+000	0.0000000E+000	-55.087	0.0000000E+000	0.0000000E+000	0.0000000E+000	-34.913	0.0000000E+000	0.0000000E+000	0.0000000E+000	34.913	1.43278	55.087	1.02855e-07
50.2089	47.9888	30.3695	56.7911	-32.3275	248.254	0.449622	0.000407955	104.376	29.8481	1	39	0.00477294	8.40439e-05	0	-0.000154964	1.05827	0.781331	22.3803	1.74558e-05	1.6185e-05	1.41409e-05	3.0624e-05	1.89955e-05	1.58754e-05	0.952136	0.4807	15.3056	4.77441e-07	1.63512e-07	2.76885e-07	2.92366e-07	1.70542e-07	3.66721e-07	0.0148792	0.00941623	0.0176084	32.3275	29848.1	47164.9	55816.1	-57.6725	0.0000000E+000	0.0000000E+000	0.0000000E+000	57.6725	0.0000000E+000	0.0000000E+000	0.0000000E+000	-57.6725	0.0000000E+000	0.0000000E+000	0.0000000E+000	-32.3275	0.0000000E+000	0.0000000E+000	0.0000000E+000	32.3275	1.58017	57.6725	1.87149e-07
39.8851	52.6894	29.6721	60.4699	-29.3861	249.323	0.449654	8.36552e-05	134.481	32.3802	1	39	0.00474642	7.84923e-05	0	-0.000155018	1.26825	0.670614	21.5308	1.03021e-05	2.65728e-05	2.00345e-05	2.01791e-05	2.27863e-05	3.11174e-05	0.977778	0.567685	15.6817	2.76955e-07	2.9795e-07	2.55048e-07	2.30167e-07	2.38762e-07	3.91566e-07	0.0144094	0.00811466	0.0165372	29.3861	32380.2	57498.2	65988.8	-60.6139	0.0000000E+000	0.0000000E+000	0.0000000E+000	60.6139	0.0000000E+000	0.0000000E+000	0.0000000E+000	-60.6139	0.0000000E+000	0.0000000E+000	0.0000000E+000	-29.3861	0.0000000E+000	0.0000000E+000	0.0000000E+000	29.3861	1.77572	60.6139	-5.30496e-08
31.6723	56.7454	29.966	64.1716	-27.8376	250.364	0.449639	0.000439826	167.692	36.5665	1	39	0.00474247	7.39029e-05	0	-0.000154954	1.09756	0.540513	22.0212	1.57307e-05	1.54268e-05	1.96721e-05	8.49487e-06	2.56777e-05	3.00027e-05	0.891127	0.51554	17.0402	3.25449e-07	1.61559e-07	2.99373e-07	2.58464e-07	2.5186e-07	2.37129e-07	0.0137798	0.00727684	0.0155832	27.8376	36566.5	69244.5	78306.5	-62.1624	0.0000000E+000	0.0000000E+000	0.0000000E+000	62.1624	0.0000000E+000	0.0000000E+000	0.0000000E+000	-62.1624	0.0000000E+000	0.0000000E+000	0.0000000E+000	-27.8376	0.0000000E+000	0.0000000E+000	0.0000000E+000	27.8376	1.89366	62.1624	6.327e-08
25.1691	61.3894	29.9083	68.2874	-25.9749	251.43	0.449654	0.000339554	211.427	40.5568	1	39	0.00475363	6.96122e-05	0	-0.000155023	1.1924	0.692595	21.7535	2.42024e-05	2.84344e-05	1.3608e-05	1.66695e-05	1.95204e-05	2.72891e-05	1.15161	0.370554	18.4363	2.92558e-07	3.7497e-07	3.27337e-07	2.00185e-07	2.70846e-07	3.16858e-07	0.0131647	0.00641374	0.014644	25.9749	40556.8	83246.3	92600.2	-64.0251	0.0000000E+000	0.0000000E+000	0.0000000E+000	64.0251	0.0000000E+000	0.0000000E+000	0.0000000E+000	-64.0251	0.0000000E+000	0.0000000E+000	0.0000000E+000	-25.9749	0.0000000E+000	0.0000000E+000	0.0000000E+000	25.9749	2.05259	64.0251	-6.90176e-08
19.9808	65.3468	30.8779	72.2749	-25.2918	252.498	0.449648	0.000210393	257.964	47.0848	1	39	0.00475932	6.58503e-05	0	-0.000154806	1.19984	0.657186	22.0574	2.32081e-05	2.27242e-05	9.44344e-06	2.68665e-05	2.73127e-05	1.9697e-05	1.1418	0.688773	19.3212	2.30237e-07	2.82527e-07	1.60243e-07	4.236e-07	3.40694e-07	2.60757e-07	0.0125098	0.00591117	0.0138361	25.2918	47084.8	99645.3	110210	-64.7082	0.0000000E+000	0.0000000E+000	0.0000000E+000	64.7082	0.0000000E+000	0.0000000E+000	0.0000000E+000	-64.7082	0.0000000E+000	0.0000000E+000	0.0000000E+000	-25.2918	0.0000000E+000	0.0000000E+000	0.0000000E+000	25.2918	2.1163	64.7082	2.17436e-07
15.879	69.1905	30.7696	75.7238	-23.9751	253.537	0.449612	0.000574019	325.742	53.7839	1	39	0.00475392	6.27797e-05	0	-0.000154829	1.21605	0.627315	21.7031	1.83921e-05	2.28452e-05	1.58196e-05	2.16332e-05	3.24154e-05	6.20791e-06	1.10077	0.598057	19.8973	2.17063e-07	2.83133e-07	3.2033e-07	2.8683e-07	3.14227e-07	1.4712e-07	0.0120665	0.00536607	0.0132059	23.9751	53783.9	120942	132362	-66.0249	0.0000000E+000	0.0000000E+000	0.0000000E+000	66.0249	0.0000000E+000	0.0000000E+000	0.0000000E+000	-66.0249	0.0000000E+000	0.0000000E+000	0.0000000E+000	-23.9751	0.0000000E+000	0.0000000E+000	0.0000000E+000	23.9751	2.24867	66.0249	-2.35313e-08
12.6144	73.4223	31.1259	79.7475	-22.9735	254.708	0.449641	0.000451381	405.353	61.7509	1	39	0.00475357	5.96078e-05	0	-0.000154853	0.714858	0.540287	15.493	1.61378e-05	1.25909e-05	1.06881e-05	1.3598e-05	1.19642e-05	1.24002e-05	0.959785	0.617034	15.2984	2.50313e-07	2.28724e-07	2.00975e-07	2.85225e-07	1.45375e-07	1.72479e-07	0.011545	0.00489427	0.0125396	22.9735	61750.8	145663	158212	-67.0265	0.0000000E+000	0.0000000E+000	0.0000000E+000	67.0265	0.0000000E+000	0.0000000E+000	0.0000000E+000	-67.0265	0.0000000E+000	0.0000000E+000	0.0000000E+000	-22.9735	0.0000000E+000	0.0000000E+000	0.0000000E+000	22.9735	2.35888	67.0265	-2.35804e-08
10.016	77.3454	32.5747	83.9251	-22.8388	255.766	0.449636	0.000503194	487.802	73.4888	1	39	0.00475222	5.66245e-05	0	-0.000154293	0.931356	0.430344	22.1927	1.07608e-05	2.05472e-05	1.5386e-05	1.13797e-05	1.42601e-05	2.38688e-05	1.17805	0.447713	22.7166	2.53512e-07	2.25518e-07	2.35989e-07	2.21184e-07	1.23503e-07	4.05031e-07	0.0109812	0.00462484	0.0119154	22.8388	73488.8	174492	189336	-67.1612	0.0000000E+000	0.0000000E+000	0.0000000E+000	67.1612	0.0000000E+000	0.0000000E+000	0.0000000E+000	-67.1612	0.0000000E+000	0.0000000E+000	0.0000000E+000	-22.8388	0.0000000E+000	0.0000000E+000	0.0000000E+000	22.8388	2.3744	67.1612	5.59651e-07
7.95573	80.9984	33.9883	87.8405	-22.7638	256.972	0.449645	0.000479431	588.586	88.1213	1	39	0.00474594	5.4029e-05	0	-0.00015457	0.884063	0.41226	14.9372	1.18622e-05	1.66568e-05	1.50347e-05	2.06958e-05	1.83767e-05	1.48288e-05	0.794088	0.286851	16.2525	9.72107e-08	2.23774e-07	1.23437e-07	1.64978e-07	2.05321e-07	1.3967e-07	0.0104975	0.00440495	0.0113843	22.7638	88121.3	210004	227743	-67.2362	0.0000000E+000	0.0000000E+000	0.0000000E+000	67.2362	0.0000000E+000	0.0000000E+000	0.0000000E+000	-67.2362	0.0000000E+000	0.0000000E+000	0.0000000E+000	-22.7638	0.0000000E+000	0.0000000E+000	0.0000000E+000	22.7638	2.38312	67.2362	-2.76699e-07
6.31569	85.9491	35.0774	92.8315	-22.2013	258.356	0.449645	0.000552771	718.409	102.574	1	39	0.00474833	5.115e-05	0	-0.000154348	0.680264	0.357214	15.3779	7.13184e-06	7.06267e-06	2.08286e-05	1.21283e-05	1.01926e-05	1.18033e-05	0.837068	0.517722	17.4905	1.0835e-07	1.2772e-07	2.09793e-07	1.8809e-07	1.98337e-07	1.30504e-07	0.00997358	0.0040704	0.0107722	22.2013	102574	251334	271459	-67.7987	0.0000000E+000	0.0000000E+000	0.0000000E+000	67.7987	0.0000000E+000	0.0000000E+000	0.0000000E+000	-67.7987	0.0000000E+000	0.0000000E+000	0.0000000E+000	-22.2013	0.0000000E+000	0.0000000E+000	0.0000000E+000	22.2013	2.45027	67.7987	2.22222e-07
5.01766	90.2019	37.5253	97.6961	-22.588	260.421	0.449674	0.000485651	845.269	124.706	1	40	0.00475038	4.86241e-05	0	-0.000154298	1.46944	0.736068	23.3147	2.39775e-05	2.78822e-05	1.78969e-05	2.69651e-05	3.08589e-05	2.73064e-05	0.386022	0.121002	2.99986	1.63866e-07	4.15379e-08	2.35274e-08	4.60715e-08	3.96834e-08	3.2853e-08	0.00945064	0.0039316	0.0102358	22.588	124706	299764	324670	-67.412	0.0000000E+000	0.0000000E+000	0.0000000E+000	67.412	0.0000000E+000	0.0000000E+000	0.0000000E+000	-67.412	0.0000000E+000	0.0000000E+000	0.0000000E+000	-22.588	0.0000000E+000	0.0000000E+000	0.0000000E+000	22.588	2.40376	67.412	4.93589e-08
3.98597	95.2677	39.9598	103.309	-22.7555	262.342	0.449637	0.000648026	999.224	149.498	1	40	0.00476042	4.60795e-05	0	-0.000154192	1.26015	0.594469	20.615	1.38912e-05	1.63035e-05	2.05533e-05	2.05055e-05	2.78513e-05	3.18733e-05	0.456105	0.170084	2.83757	1.87146e-07	4.14162e-08	3.55557e-08	4.69926e-08	3.83653e-08	3.43416e-08	0.00892628	0.00374411	0.00967971	22.7555	149498	356416	386499	-67.2445	0.0000000E+000	0.0000000E+000	0.0000000E+000	67.2445	0.0000000E+000	0.0000000E+000	0.0000000E+000	-67.2445	0.0000000E+000	0.0000000E+000	0.0000000E+000	-22.7555	0.0000000E+000	0.0000000E+000	0.0000000E+000	22.7555	2.38409	67.2445	1.06424e-07
3.16616	100.42	42.6286	109.093	-23.0014	264.649	0.449655	0.00056769	1179.2	180.05	1	40	0.00475153	4.35548e-05	0	-0.000153736	0.89188	0.562255	18.201	1.6165e-05	1.90643e-05	2.43728e-05	9.90583e-06	1.13208e-05	1.43024e-05	0.511984	0.366717	2.6565	1.99968e-07	5.73472e-08	4.14594e-08	4.33463e-08	3.23131e-08	3.08514e-08	0.00843771	0.00358184	0.00916649	23.0014	180050	424142	460776	-66.9986	0.0000000E+000	0.0000000E+000	0.0000000E+000	66.9986	0.0000000E+000	0.0000000E+000	0.0000000E+000	-66.9986	0.0000000E+000	0.0000000E+000	0.0000000E+000	-23.0014	0.0000000E+000	0.0000000E+000	0.0000000E+000	23.0014	2.35569	66.9986	4.55984e-07
2.51368	105.365	46.0511	114.989	-23.6083	267.449	0.449646	0.000575193	1374.9	220.514	1	40	0.00473942	4.12162e-05	0	-0.000153172	0.660316	0.323927	15.0546	1.1311e-05	1.24211e-05	4.38713e-06	1.2297e-05	8.24022e-06	1.74453e-05	0.476029	0.127311	2.31602	1.83812e-07	3.04607e-08	1.37691e-08	5.08584e-08	1.72182e-08	1.09191e-08	0.00796861	0.00348278	0.00869646	23.6083	220514	504537	550622	-66.3917	0.0000000E+000	0.0000000E+000	0.0000000E+000	66.3917	0.0000000E+000	0.0000000E+000	0.0000000E+000	-66.3917	0.0000000E+000	0.0000000E+000	0.0000000E+000	-23.6083	0.0000000E+000	0.0000000E+000	0.0000000E+000	23.6083	2.288	66.3917	5.64142e-07
1.99783	111.71	49.6752	122.257	-23.9737	270.871	0.449627	0.000608987	1603.7	264.761	1	40	0.00474814	3.88374e-05	0	-0.000153238	0.640179	0.564923	13.4903	6.33436e-06	7.61082e-06	1.97195e-05	1.00708e-05	1.33218e-05	7.62295e-06	0.522874	0.159839	2.27185	1.92195e-07	2.67896e-08	3.4683e-08	3.57693e-08	1.71407e-08	2.12609e-08	0.00747387	0.00332348	0.0081795	23.9737	264761	595398	651611	-66.0263	0.0000000E+000	0.0000000E+000	0.0000000E+000	66.0263	0.0000000E+000	0.0000000E+000	0.0000000E+000	-66.0263	0.0000000E+000	0.0000000E+000	0.0000000E+000	-23.9737	0.0000000E+000	0.0000000E+000	0.0000000E+000	23.9737	2.24881	66.0263	-6.64449e-08
1.5871	118.388	54.6823	130.407	-24.7917	275.079	0.449655	0.000664476	1833.87	322.45	1	40	0.00475602	3.64707e-05	0	-0.000151568	0.658858	0.368524	12.0999	7.46498e-06	1.24771e-05	1.12861e-05	1.19559e-05	1.30719e-05	1.70741e-05	0.431719	0.22907	2.16737	1.49088e-07	1.29352e-08	1.77778e-08	3.19087e-08	2.15436e-08	1.80258e-08	0.00696159	0.00321549	0.00766832	24.7917	322450	698110	768981	-65.2083	0.0000000E+000	0.0000000E+000	0.0000000E+000	65.2083	0.0000000E+000	0.0000000E+000	0.0000000E+000	-65.2083	0.0000000E+000	0.0000000E+000	0.0000000E+000	-24.7917	0.0000000E+000	0.0000000E+000	0.0000000E+000	24.7917	2.16502	65.2083	1.67016e-06
1.25968	125.587	59.6263	139.023	-25.3974	280.284	0.449644	0.000704087	2118.96	389.784	1	40	0.00474957	3.41638e-05	0	-0.000150222	0.471053	0.298528	10.4337	5.44289e-06	8.24496e-06	8.9833e-06	9.40162e-06	1.10078e-05	7.39536e-06	0.541937	0.181903	2.02189	1.75096e-07	2.11165e-08	2.20249e-08	4.08843e-08	2.19191e-08	5.74247e-09	0.00649786	0.00308505	0.00719304	25.3974	389784	820978	908810	-64.6026	0.0000000E+000	0.0000000E+000	0.0000000E+000	64.6026	0.0000000E+000	0.0000000E+000	0.0000000E+000	-64.6026	0.0000000E+000	0.0000000E+000	0.0000000E+000	-25.3974	0.0000000E+000	0.0000000E+000	0.0000000E+000	25.3974	2.10624	64.6026	1.34611e-06
1.00122	134.184	66.0283	149.549	-26.2006	286.736	0.44965	0.000718479	2407.48	469.303	1	40	0.00476088	3.18348e-05	0	-0.000149564	0.478145	0.354763	9.38494	6.52388e-06	1.58582e-05	7.45529e-06	6.01519e-06	9.4905e-06	4.03317e-06	0.513928	0.245923	1.98027	1.52553e-07	2.63445e-08	1.89105e-08	3.61901e-08	1.17159e-08	1.65743e-08	0.00599972	0.0029523	0.00668675	26.2006	469303	953724	1.06294e+06	-63.7994	0.0000000E+000	0.0000000E+000	0.0000000E+000	63.7994	0.0000000E+000	0.0000000E+000	0.0000000E+000	-63.7994	0.0000000E+000	0.0000000E+000	0.0000000E+000	-26.2006	0.0000000E+000	0.0000000E+000	0.0000000E+000	26.2006	2.03222	63.7994	6.58146e-07
0.79456	143.312	73.5408	161.079	-27.1647	297.321	0.449646	0.000809006	2723.74	567.729	1	41	0.00475453	2.95167e-05	0	-0.000147608	0.655868	0.347565	10.5048	1.0638e-05	1.13636e-05	1.38116e-05	8.62703e-06	1.35363e-05	1.13944e-05	0.553474	0.0898269	0.442601	1.58904e-07	1.67201e-08	5.79144e-09	3.24793e-08	5.43865e-09	3.65944e-09	0.00552335	0.00283431	0.00620811	27.1647	567729	1.10636e+06	1.24352e+06	-62.8353	0.0000000E+000	0.0000000E+000	0.0000000E+000	62.8353	0.0000000E+000	0.0000000E+000	0.0000000E+000	-62.8353	0.0000000E+000	0.0000000E+000	0.0000000E+000	-27.1647	0.0000000E+000	0.0000000E+000	0.0000000E+000	27.1647	1.94874	62.8353	1.95546e-06
0.631645	154.83	81.1787	174.821	-27.6684	307.306	0.449653	0.000911858	3103.88	669.272	1	41	0.00475238	2.71843e-05	0	-0.000142579	0.505334	0.217331	9.66335	9.66163e-06	6.94051e-06	9.51858e-06	1.31191e-05	8.35329e-06	6.47585e-06	0.661116	0.249075	0.490146	1.73784e-07	2.68403e-08	1.47151e-08	2.41907e-08	1.64786e-08	7.95115e-09	0.00506604	0.00265617	0.00572014	27.6684	669272	1.27649e+06	1.4413e+06	-62.3316	0.0000000E+000	0.0000000E+000	0.0000000E+000	62.3316	0.0000000E+000	0.0000000E+000	0.0000000E+000	-62.3316	0.0000000E+000	0.0000000E+000	0.0000000E+000	-27.6684	0.0000000E+000	0.0000000E+000	0.0000000E+000	27.6684	1.90728	62.3316	5.02977e-06
0.501541	169.071	89.7724	191.426	-27.9672	319.799	0.449648	0.00097526	3534.85	777.416	1	41	0.00475188	2.48235e-05	0	-0.000141631	0.476545	0.202315	8.68985	8.25198e-06	9.20151e-06	9.06901e-06	7.82085e-06	1.14233e-05	5.98649e-06	0.608669	0.211738	0.523635	1.42628e-07	2.73686e-08	9.85308e-09	3.62756e-08	1.27812e-08	7.38069e-09	0.00461387	0.00244985	0.00522394	27.9672	777416	1.46413e+06	1.65772e+06	-62.0328	0.0000000E+000	0.0000000E+000	0.0000000E+000	62.0328	0.0000000E+000	0.0000000E+000	0.0000000E+000	-62.0328	0.0000000E+000	0.0000000E+000	0.0000000E+000	-27.9672	0.0000000E+000	0.0000000E+000	0.0000000E+000	27.9672	1.88333	62.0328	9.47331e-07
0.398211	186.508	97.6299	210.515	-27.6304	335.449	0.44964	0.00108972	4093.77	880.486	1	41	0.00474785	2.25535e-05	0	-0.000139101	0.407569	0.18038	7.57558	5.52968e-06	9.94669e-06	6.52133e-06	7.77501e-06	9.29574e-06	5.76124e-06	0.730064	0.230822	0.590835	1.56673e-07	2.29737e-08	1.33336e-08	3.58305e-08	1.29853e-08	1.12592e-08	0.00420852	0.00220301	0.00475025	27.6304	880486	1.68204e+06	1.89856e+06	-62.3696	0.0000000E+000	0.0000000E+000	0.0000000E+000	62.3696	0.0000000E+000	0.0000000E+000	0.0000000E+000	-62.3696	0.0000000E+000	0.0000000E+000	0.0000000E+000	-27.6304	0.0000000E+000	0.0000000E+000	0.0000000E+000	27.6304	1.91035	62.3696	2.53073e-06
0.316193	206.987	104.293	231.777	-26.7417	355.073	0.449638	0.00123345	4826.3	977.193	1	41	0.00474978	2.04929e-05	0	-0.000130381	0.294633	0.142391	6.36979	6.67325e-06	3.6036e-06	3.98894e-06	7.13048e-06	6.7401e-06	3.28125e-06	0.723659	0.221965	0.532479	1.43861e-07	1.88124e-08	6.39793e-09	2.69689e-08	5.89721e-09	4.12832e-09	0.00385303	0.00194139	0.00431449	26.7417	977194	1.93941e+06	2.17169e+06	-63.2583	0.0000000E+000	0.0000000E+000	0.0000000E+000	63.2583	0.0000000E+000	0.0000000E+000	0.0000000E+000	-63.2583	0.0000000E+000	0.0000000E+000	0.0000000E+000	-26.7417	0.0000000E+000	0.0000000E+000	0.0000000E+000	26.7417	1.98468	63.2583	8.72006e-06
0.251222	230.049	107.017	253.723	-24.9475	379.692	0.449655	0.00136856	5919.83	1053.17	1	41	0.00474394	1.86973e-05	0	-0.000117851	0.319361	0.282023	5.78674	5.20358e-06	8.24603e-06	7.38863e-06	4.43306e-06	4.00378e-06	4.53077e-06	0.78226	0.250407	0.57141	1.42441e-07	1.67817e-08	7.7226e-09	2.43086e-08	5.90192e-09	5.48715e-09	0.00357357	0.0016624	0.00394131	24.9475	1.05317e+06	2.26394e+06	2.49692e+06	-65.0525	0.0000000E+000	0.0000000E+000	0.0000000E+000	65.0525	0.0000000E+000	0.0000000E+000	0.0000000E+000	-65.0525	0.0000000E+000	0.0000000E+000	0.0000000E+000	-24.9475	0.0000000E+000	0.0000000E+000	0.0000000E+000	24.9475	2.14964	65.0525	1.25291e-05
0.199573	255.041	105.336	275.938	-22.4413	410.602	0.449655	0.00154455	7570.81	1103.24	1	41	0.0047503	1.72151e-05	0	-0.000104797	0.313894	0.205401	5.34076	4.46379e-06	7.65224e-06	4.23733e-06	3.8747e-06	8.48438e-06	4.87372e-06	0.729358	0.186148	0.595994	1.23066e-07	5.81039e-09	6.17421e-09	2.07559e-08	5.79589e-09	5.83998e-09	0.00334957	0.00138342	0.00362401	22.4413	1.10324e+06	2.6712e+06	2.89006e+06	-67.5587	0.0000000E+000	0.0000000E+000	0.0000000E+000	67.5587	0.0000000E+000	0.0000000E+000	0.0000000E+000	-67.5587	0.0000000E+000	0.0000000E+000	0.0000000E+000	-22.4413	0.0000000E+000	0.0000000E+000	0.0000000E+000	22.4413	2.42123	67.5587	1.30541e-05
0.158419	278.822	98.5134	295.713	-19.4593	449.458	0.44967	0.00190409	10198.1	1131.79	1	41	0.0047495	1.60612e-05	0	-8.90435e-05	0.253535	0.183028	4.94727	2.31385e-06	6.84714e-06	4.92324e-06	4.3009e-06	4.2692e-06	3.37068e-06	0.785449	0.369495	0.641037	1.18145e-07	2.36237e-08	1.20821e-08	2.09302e-08	1.30934e-08	6.99718e-09	0.00318849	0.00112656	0.00338165	19.4593	1.13179e+06	3.2033e+06	3.39737e+06	-70.5406	0.0000000E+000	0.0000000E+000	0.0000000E+000	70.5406	0.0000000E+000	0.0000000E+000	0.0000000E+000	-70.5406	0.0000000E+000	0.0000000E+000	0.0000000E+000	-19.4593	0.0000000E+000	0.0000000E+000	0.0000000E+000	19.4593	2.83029	70.5406	1.57538e-05
0.125939	299.361	88.5667	312.187	-16.481	498.254	0.449661	0.00213725	14268.9	1148.42	1	41	0.00474792	1.52086e-05	0	-6.57618e-05	0.219323	0.143939	4.35028	3.86775e-06	2.68907e-06	4.02073e-06	5.58992e-06	3.8633e-06	3.95074e-06	0.684573	0.432923	0.612805	9.96808e-08	1.44016e-08	1.08587e-08	2.14159e-08	4.32286e-09	5.08231e-09	0.0030716	0.00090874	0.0032032	16.481	1.14842e+06	3.88173e+06	4.04805e+06	-73.519	0.0000000E+000	0.0000000E+000	0.0000000E+000	73.519	0.0000000E+000	0.0000000E+000	0.0000000E+000	-73.519	0.0000000E+000	0.0000000E+000	0.0000000E+000	-16.481	0.0000000E+000	0.0000000E+000	0.0000000E+000	16.481	3.38006	73.519	2.32817e-05
0.0999518	317.258	77.6043	326.612	-13.7452	559.657	0.449652	0.00251852	20518.4	1158.38	1	41	0.00475023	1.4544e-05	0	-2.71552e-05	0.255007	0.122641	4.29	5.45572e-06	5.57279e-06	3.05933e-06	4.42363e-06	5.71144e-06	2.70324e-06	0.884018	0.407416	0.62017	1.24628e-07	8.19931e-09	1.77815e-08	1.91791e-08	5.73074e-09	7.40073e-09	0.00297406	0.000727483	0.00306174	13.7452	1.15838e+06	4.73565e+06	4.87526e+06	-76.2548	0.0000000E+000	0.0000000E+000	0.0000000E+000	76.2548	0.0000000E+000	0.0000000E+000	0.0000000E+000	-76.2548	0.0000000E+000	0.0000000E+000	0.0000000E+000	-13.7452	0.0000000E+000	0.0000000E+000	0.0000000E+000	13.7452	4.08815	76.2548	3.86066e-05